File: Nanoindentation Datenauswertung/data/labview program test/program test-8
Quasi static measurement routine
Tip parameters (shape,radius, material...)
06.07.2022

Piezo position[nm]	MEMS displ.[nm]	Time[ms]	Cap [pf]
eoh
2,261996	-23,542132	0,188	-0,100565
2,263096	-23,527506	0,238	-0,100559
2,264071	-23,505004	0,289	-0,100549
2,265012	-23,641138	0,339	-0,100608
2,266058	-23,283365	0,389	-0,100453
2,267065	-23,649014	0,439	-0,100611
2,268093	-23,626512	0,489	-0,100602
2,269053	-23,687266	0,539	-0,100628
2,270084	-23,770521	0,590	-0,100664
2,271053	-23,802023	0,640	-0,100678
2,272029	-23,740144	0,690	-0,100651
2,273090	-23,862777	0,740	-0,100704
2,274050	-23,847026	0,790	-0,100697
2,275012	-23,808774	0,840	-0,100681
2,276082	-23,847026	0,891	-0,100697
2,277042	-23,992160	0,942	-0,100760
2,278012	-23,946033	0,992	-0,100740
2,279096	-23,931407	1,042	-0,100734
2,280128	-24,083291	1,094	-0,100800
2,281058	-24,144045	1,144	-0,100826
2,282039	-24,190173	1,195	-0,100846
2,283036	-24,212675	1,245	-0,100856
2,284017	-23,885279	1,295	-0,100714
2,285071	-24,327432	1,346	-0,100906
2,286039	-24,114793	1,397	-0,100813
2,287047	-24,525445	1,447	-0,100992
2,288068	-24,563697	1,499	-0,101008
2,289057	-24,373560	1,549	-0,100926
2,290039	-24,335307	1,600	-0,100909
2,291052	-24,343183	1,650	-0,100913
2,292027	-24,365684	1,701	-0,100922
2,293087	-24,495068	1,751	-0,100979
2,294040	-24,480442	1,801	-0,100972
2,295023	-24,601950	1,851	-0,101025
2,296031	-24,549071	1,901	-0,101002
2,297087	-24,640202	1,952	-0,101042
2,298064	-24,922595	2,003	-0,101164
2,299077	-24,891093	2,054	-0,101150
2,300061	-24,799962	2,105	-0,101111
2,301064	-24,830339	2,155	-0,101124
2,302061	-24,898969	2,205	-0,101154
2,303043	-24,876467	2,255	-0,101144
2,304031	-24,868592	2,305	-0,101141
2,305058	-24,815713	2,355	-0,101118
2,306046	-24,868592	2,405	-0,101141
2,307056	-25,044103	2,455	-0,101217
2,308007	-25,364748	2,505	-0,101356
2,309105	-24,929345	2,556	-0,101167
2,310084	-25,478381	2,606	-0,101405
2,311039	-25,288243	2,657	-0,101323
2,312092	-25,356873	2,707	-0,101353
2,313060	-25,234240	2,758	-0,101299
2,314073	-25,455879	2,808	-0,101396
2,315065	-25,401876	2,858	-0,101372
2,316012	-25,272492	2,909	-0,101316
2,317033	-25,524509	2,959	-0,101425
2,318006	-25,486256	3,010	-0,101409
2,319062	-25,462630	3,061	-0,101398
2,320060	-25,768649	3,111	-0,101531
2,321067	-26,110671	3,161	-0,101680
2,322034	-26,118547	3,212	-0,101683
2,323043	-25,874406	3,262	-0,101577
2,324029	-26,034166	3,312	-0,101646
2,325015	-26,110671	3,362	-0,101680
2,326061	-25,981288	3,412	-0,101624
2,327020	-26,506696	3,462	-0,101852
2,328071	-26,583201	3,512	-0,101885
2,329049	-26,568575	3,562	-0,101878
2,330036	-26,690083	3,612	-0,101931
2,331089	-26,667582	3,662	-0,101921
2,332129	-26,873470	3,712	-0,102011
2,333017	-26,690083	3,762	-0,101931
2,334010	-26,750837	3,813	-0,101958
2,335034	-26,324435	3,863	-0,101772
2,336045	-26,781214	3,913	-0,101971
2,336995	-26,766588	3,963	-0,101964
2,338039	-26,659706	4,014	-0,101918
2,339072	-27,132236	4,064	-0,102123
2,340076	-27,208741	4,114	-0,102156
2,341058	-27,154738	4,164	-0,102133
2,342031	-27,116485	4,214	-0,102116
2,343055	-27,245869	4,264	-0,102172
2,344031	-27,376377	4,314	-0,102229
2,345048	-27,269495	4,365	-0,102183
2,346027	-27,208741	4,415	-0,102156
2,347043	-27,443881	4,465	-0,102258
2,348044	-27,147987	4,515	-0,102130
2,349027	-27,482134	4,565	-0,102275
2,350055	-27,398879	4,615	-0,102239
2,351039	-27,437131	4,666	-0,102255
2,352075	-27,322374	4,717	-0,102206
2,353047	-27,406754	4,768	-0,102242
2,354010	-27,414630	4,819	-0,102246
2,355086	-27,726274	4,869	-0,102381
2,356065	-27,612642	4,919	-0,102332
2,357064	-27,154738	4,969	-0,102133
2,358032	-27,330249	5,019	-0,102209
2,359050	-27,566514	5,069	-0,102312
2,360017	-27,818530	5,120	-0,102421
2,361005	-27,978291	5,171	-0,102490
2,362081	-27,657645	5,221	-0,102351
2,363092	-27,826406	5,272	-0,102424
2,364034	-27,711649	5,322	-0,102375
2,365037	-27,780278	5,372	-0,102404
2,366025	-27,681272	5,423	-0,102361
2,367104	-27,848907	5,473	-0,102434
2,367995	-28,016543	5,523	-0,102507
2,369007	-28,046920	5,573	-0,102520
2,370073	-28,000792	5,623	-0,102500
2,371055	-28,039044	5,673	-0,102517
2,372073	-28,222431	5,723	-0,102596
2,373039	-28,099798	5,773	-0,102543
2,374039	-28,489073	5,823	-0,102712
2,375107	-28,679210	5,873	-0,102794
2,376064	-28,382191	5,923	-0,102666
2,377057	-28,549827	5,973	-0,102738
2,378055	-28,390067	6,023	-0,102669
2,379032	-28,435070	6,074	-0,102688
2,380042	-28,305687	6,124	-0,102632
2,381056	-28,481198	6,174	-0,102708
2,382065	-28,435070	6,225	-0,102688
2,383043	-28,382191	6,275	-0,102666
2,384051	-28,481198	6,325	-0,102708
2,385035	-28,305687	6,376	-0,102632
2,386028	-28,321438	6,426	-0,102639
2,387038	-28,412568	6,476	-0,102679
2,388070	-28,336064	6,526	-0,102646
2,389075	-28,328188	6,576	-0,102642
2,390067	-28,519450	6,627	-0,102725
2,391055	-28,176303	6,677	-0,102576
2,392072	-28,130175	6,727	-0,102556
2,393051	-28,184179	6,777	-0,102580
2,394064	-28,359690	6,827	-0,102656
2,395033	-28,396817	6,877	-0,102672
2,396043	-28,442945	6,927	-0,102692
2,397046	-28,489073	6,977	-0,102712
2,398067	-33,283005	7,027	-0,104792
2,399062	-32,939858	7,077	-0,104644
2,400042	-32,634964	7,128	-0,104511
2,401064	-32,162433	7,178	-0,104306
2,402031	-31,887916	7,229	-0,104187
2,403044	-31,682028	7,279	-0,104098
2,404042	-31,026111	7,330	-0,103813
2,404991	-30,454574	7,380	-0,103565
2,406045	-30,615459	7,431	-0,103635
2,407051	-30,173306	7,481	-0,103443
2,408063	-29,501638	7,531	-0,103151
2,409088	-28,999856	7,582	-0,102934
2,410049	-28,442945	7,632	-0,102692
2,411067	-28,222431	7,682	-0,102596
2,412037	-27,833156	7,732	-0,102427
2,413011	-27,330249	7,783	-0,102209
2,414044	-26,667582	7,833	-0,101921
2,415057	-26,088170	7,883	-0,101670
2,416059	-25,668518	7,934	-0,101488
2,417064	-24,922595	7,984	-0,101164
2,418048	-24,448940	8,034	-0,100958
2,419024	-23,778397	8,084	-0,100667
2,420063	-23,527506	8,135	-0,100559
2,421015	-23,222611	8,186	-0,100426
2,422060	-22,521691	8,237	-0,100122
2,423058	-22,041286	8,287	-0,099914
2,424025	-21,461874	8,337	-0,099662
2,425075	-20,791331	8,387	-0,099371
2,426016	-20,524689	8,438	-0,099255
2,427003	-20,288423	8,488	-0,099153
2,428043	-19,533500	8,538	-0,098825
2,429033	-19,121724	8,589	-0,098646
2,430063	-18,855082	8,640	-0,098531
2,431031	-18,283545	8,691	-0,098283
2,432029	-17,772762	8,741	-0,098061
2,433052	-17,133722	8,791	-0,097784
2,434038	-16,294418	8,841	-0,097419
2,435041	-15,821888	8,891	-0,097214
2,436053	-14,549431	8,942	-0,096662
2,437066	-14,435799	8,992	-0,096613
2,438051	-13,749505	9,042	-0,096315
2,439063	-13,216221	9,092	-0,096083
2,440042	-12,172154	9,143	-0,095630
2,441016	-11,988767	9,193	-0,095551
2,442040	-11,120212	9,244	-0,095174
2,443033	-10,518298	9,294	-0,094913
2,444047	-9,335847	9,344	-0,094399
2,445011	-8,978075	9,394	-0,094244
2,445987	-8,040890	9,445	-0,093837
2,447069	-7,681992	9,496	-0,093682
2,448023	-7,087954	9,547	-0,093424
2,449049	-6,608673	9,597	-0,093216
2,449996	-6,120392	9,648	-0,093004
2,451052	-5,327216	9,698	-0,092660
2,452040	-4,291025	9,749	-0,092210
2,453055	-3,604731	9,799	-0,091912
2,454073	-2,699048	9,849	-0,091519
2,455024	-2,493160	9,899	-0,091430
2,456037	-1,692108	9,949	-0,091082
2,456996	-0,853930	9,999	-0,090718
2,458031	-0,427527	10,049	-0,090533
2,459053	0,204763	10,099	-0,090259
2,460043	0,830303	10,149	-0,089987
2,461086	1,531223	10,199	-0,089683
2,462051	2,560664	10,249	-0,089236
2,463063	3,588980	10,299	-0,088790
2,464067	4,297775	10,349	-0,088482
2,465098	4,998695	10,400	-0,088178
2,466086	4,960442	10,450	-0,088195
2,467020	6,050637	10,501	-0,087722
2,468031	6,218273	10,551	-0,087649
2,469082	6,850563	10,601	-0,087375
2,470100	7,415350	10,651	-0,087129
2,471066	7,841752	10,701	-0,086944
2,472039	8,633803	10,752	-0,086601
2,473032	9,053454	10,804	-0,086418
2,474068	9,473106	10,854	-0,086236
2,475020	10,089646	10,904	-0,085969
2,476047	11,179841	10,955	-0,085496
2,477052	11,591617	11,005	-0,085317
2,478054	12,330789	11,055	-0,084996
2,479081	12,879824	11,105	-0,084758
2,480034	13,459236	11,156	-0,084506
2,481051	13,801258	11,207	-0,084358
2,482014	14,586559	11,257	-0,084017
2,483095	14,998335	11,307	-0,083838
2,484056	15,775760	11,357	-0,083501
2,485079	16,422676	11,408	-0,083220
2,486028	17,124721	11,459	-0,082916
2,487045	17,749136	11,509	-0,082645
2,488015	17,947149	11,559	-0,082559
2,489056	18,694196	11,610	-0,082234
2,489977	19,288234	11,661	-0,081977
2,491084	19,776516	11,712	-0,081765
2,492081	20,622570	11,763	-0,081397
2,493096	21,102976	11,813	-0,081189
2,494098	21,430372	11,863	-0,081047
2,495018	22,070538	11,914	-0,080769
2,496037	22,581320	11,964	-0,080547
2,497047	23,305867	12,014	-0,080233
2,498029	23,930282	12,064	-0,079962
2,498964	24,578323	12,115	-0,079681
2,500036	25,226364	12,166	-0,079399
2,501012	25,751773	12,217	-0,079171
2,502043	26,589952	12,267	-0,078808
2,503078	27,017479	12,318	-0,078622
2,504028	27,710523	12,368	-0,078321
2,505079	28,266309	12,418	-0,078080
2,506079	28,716338	12,468	-0,077885
2,507074	29,600644	12,518	-0,077501
2,507999	30,232935	12,569	-0,077227
2,509018	30,675088	12,619	-0,077035
2,510057	31,254500	12,669	-0,076783
2,511039	31,939669	12,720	-0,076486
2,512044	32,367197	12,770	-0,076300
2,513019	34,081806	12,820	-0,075556
2,514040	33,761161	12,870	-0,075695
2,515012	34,332697	12,920	-0,075447
2,516016	35,331761	12,970	-0,075014
2,517031	35,682784	13,020	-0,074861
2,518069	36,482710	13,070	-0,074514
2,519038	36,870860	13,121	-0,074346
2,520058	37,008119	13,173	-0,074286
2,521042	38,510090	13,223	-0,073634
2,522058	39,043374	13,273	-0,073403
2,523031	39,447275	13,324	-0,073228
2,524010	40,049188	13,374	-0,072966
2,525060	40,666853	13,424	-0,072698
2,526044	40,941370	13,474	-0,072579
2,527038	41,672667	13,524	-0,072262
2,528047	42,571600	13,574	-0,071872
2,529033	43,516660	13,624	-0,071461
2,530036	43,768676	13,675	-0,071352
2,531058	44,766615	13,725	-0,070919
2,532049	44,964628	13,775	-0,070833
2,533012	45,406781	13,826	-0,070641
2,534065	46,100950	13,876	-0,070340
2,535040	46,854749	13,926	-0,070013
2,536052	47,670426	13,976	-0,069659
2,537021	48,104704	14,027	-0,069470
2,538054	48,874253	14,077	-0,069136
2,539037	49,469416	14,127	-0,068878
2,540067	50,109582	14,177	-0,068600
2,541067	50,681119	14,228	-0,068352
2,542064	51,610428	14,278	-0,067949
2,543027	52,181965	14,328	-0,067701
2,544020	52,700623	14,378	-0,067476
2,545037	53,241782	14,428	-0,067241
2,546010	53,942702	14,478	-0,066937
2,547059	54,445610	14,528	-0,066718
2,548054	55,002520	14,578	-0,066477
2,549052	55,665188	14,628	-0,066189
2,550032	56,564120	14,678	-0,065799
2,551053	57,234663	14,728	-0,065508
2,552037	58,126845	14,778	-0,065121
2,553062	58,340609	14,828	-0,065028
2,554054	58,896394	14,879	-0,064787
2,555061	59,582688	14,930	-0,064489
2,556079	60,360113	14,980	-0,064151
2,557069	61,167915	15,030	-0,063801
2,558037	61,244420	15,080	-0,063768
2,559019	62,021844	15,130	-0,063430
2,560053	63,324678	15,180	-0,062865
2,561044	63,278550	15,230	-0,062885
2,562008	64,193233	15,280	-0,062488
2,563061	64,681515	15,330	-0,062276
2,564060	65,862840	15,380	-0,061763
2,565027	65,998974	15,430	-0,061704
2,566073	66,602013	15,480	-0,061442
2,567060	66,899032	15,531	-0,061313
2,568013	68,316622	15,581	-0,060698
2,569055	68,674395	15,631	-0,060543
2,570068	69,528325	15,681	-0,060172
2,571094	69,992980	15,731	-0,059971
2,572051	70,679273	15,782	-0,059673
2,573045	71,136053	15,832	-0,059475
2,574052	72,272375	15,883	-0,058981
2,575062	72,668401	15,933	-0,058810
2,576025	73,080177	15,983	-0,058631
2,577035	74,260378	16,033	-0,058119
2,578070	74,352634	16,083	-0,058079
2,579023	75,281943	16,133	-0,057675
2,580036	75,671218	16,183	-0,057506
2,581074	76,630904	16,233	-0,057090
2,582024	77,363326	16,283	-0,056772
2,583052	77,674971	16,333	-0,056637
2,584053	78,445646	16,385	-0,056302
2,585038	79,047559	16,435	-0,056041
2,586065	79,862111	16,485	-0,055688
2,587011	80,449399	16,536	-0,055433
2,588031	81,218948	16,587	-0,055099
2,589075	82,561159	16,638	-0,054516
2,590042	82,416025	16,688	-0,054579
2,591082	82,957184	16,743	-0,054344
2,592028	83,535471	16,793	-0,054093
2,593022	84,413027	16,843	-0,053712
2,593994	84,694295	16,893	-0,053590
2,595059	85,731612	16,943	-0,053140
2,596066	85,837369	16,993	-0,053094
2,597081	86,729551	17,043	-0,052707
2,598049	87,064822	17,093	-0,052562
2,599053	87,331464	17,143	-0,052446
2,600073	88,436285	17,193	-0,051966
2,601041	88,787307	17,243	-0,051814
2,602073	89,137205	17,293	-0,051662
2,603051	90,257776	17,343	-0,051176
2,604050	90,418662	17,393	-0,051106
2,605042	90,867566	17,443	-0,050911
2,606068	91,622489	17,494	-0,050583
2,607056	92,468543	17,544	-0,050216
2,608047	93,359600	17,595	-0,049830
2,609002	93,405728	17,645	-0,049810
2,609994	94,251782	17,695	-0,049442
2,611068	94,464421	17,745	-0,049350
2,612066	94,868322	17,796	-0,049175
2,613059	95,196843	17,846	-0,049032
2,614031	95,616494	17,896	-0,048850
2,615120	96,324165	17,946	-0,048543
2,616029	96,782069	17,996	-0,048344
2,617030	97,368232	18,047	-0,048090
2,618101	98,115279	18,098	-0,047766
2,619048	98,603561	18,149	-0,047554
2,620005	99,289855	18,201	-0,047256
2,621064	99,334857	18,252	-0,047236
2,622095	100,035777	18,302	-0,046932
2,623044	100,463305	18,352	-0,046747
2,624070	101,202477	18,402	-0,046426
2,625041	101,277857	18,452	-0,046393
2,626025	102,101409	18,502	-0,046036
2,627038	102,527812	18,552	-0,045851
2,628064	103,290611	18,603	-0,045520
2,629037	103,816019	18,654	-0,045292
2,630056	104,318926	18,705	-0,045073
2,630994	104,829709	18,756	-0,044852
2,632045	105,691514	18,806	-0,044478
2,633027	106,445313	18,856	-0,044150
2,634032	106,857089	18,907	-0,043972
2,634990	107,535507	18,957	-0,043677
2,636053	107,474753	19,008	-0,043704
2,636996	108,564948	19,059	-0,043230
2,638052	109,120734	19,109	-0,042989
2,639051	109,181488	19,159	-0,042963
2,640043	109,982539	19,209	-0,042615
2,641017	110,950101	19,259	-0,042195
2,642037	110,903973	19,309	-0,042215
2,643030	111,467634	19,359	-0,041971
2,644050	112,016669	19,409	-0,041732
2,645031	112,870599	19,460	-0,041362
2,646032	113,113614	19,510	-0,041256
2,647071	113,922541	19,560	-0,040905
2,648105	114,112678	19,611	-0,040823
2,649016	114,867602	19,662	-0,040495
2,650039	115,431263	19,713	-0,040250
2,651035	115,514518	19,763	-0,040214
2,652044	116,695844	19,813	-0,039702
2,653014	117,259505	19,863	-0,039457
2,654037	117,679156	19,913	-0,039275
2,655069	118,143811	19,963	-0,039073
2,656046	118,898735	20,013	-0,038746
2,657098	119,462396	20,063	-0,038501
2,658074	120,057559	20,113	-0,038243
2,659064	120,940740	20,164	-0,037859
2,660001	121,231009	20,214	-0,037733
2,661070	121,855424	20,264	-0,037462
2,662086	122,275076	20,314	-0,037280
2,663060	122,503465	20,364	-0,037181
2,664051	122,990621	20,414	-0,036970
2,665060	123,547532	20,465	-0,036728
2,666094	123,738794	20,515	-0,036645
2,666993	124,446465	20,566	-0,036338
2,668056	124,888618	20,617	-0,036146
2,669066	125,522033	20,668	-0,035871
2,670050	125,803301	20,719	-0,035749
2,671018	126,657231	20,770	-0,035378
2,672065	127,228768	20,821	-0,035130
2,672985	127,579790	20,871	-0,034978
2,674048	128,280710	20,922	-0,034674
2,675027	128,920876	20,973	-0,034396
2,676067	129,568917	21,023	-0,034115
2,677003	130,048198	21,074	-0,033907
2,678032	130,962882	21,124	-0,033510
2,679049	131,108016	21,175	-0,033447
2,680033	131,679552	21,225	-0,033199
2,681052	132,212837	21,275	-0,032967
2,682055	132,669616	21,325	-0,032769
2,683020	133,211901	21,375	-0,032534
2,684013	133,654054	21,425	-0,032342
2,685024	134,971513	21,475	-0,031770
2,686040	134,750999	21,525	-0,031866
2,687041	135,391165	21,575	-0,031588
2,688069	136,000954	21,626	-0,031323
2,688997	136,968516	21,677	-0,030903
2,690033	137,433171	21,727	-0,030702
2,691020	138,050835	21,777	-0,030434
2,692035	139,187158	21,827	-0,029940
2,693039	139,026273	21,877	-0,030010
2,694082	139,529180	21,927	-0,029792
2,695012	140,092841	21,978	-0,029547
2,696072	140,702630	22,028	-0,029283
2,697034	141,077279	22,078	-0,029120
2,698092	142,052716	22,128	-0,028697
2,699107	142,501620	22,178	-0,028502
2,700092	142,943773	22,228	-0,028310
2,701058	143,644693	22,278	-0,028006
2,702041	143,630067	22,329	-0,028012
2,703087	144,323112	22,379	-0,027711
2,703974	145,116287	22,429	-0,027367
2,705083	146,015220	22,480	-0,026977
2,706011	146,000594	22,531	-0,026983
2,707056	146,533878	22,581	-0,026752
2,708058	147,105415	22,631	-0,026504
2,709064	147,699453	22,681	-0,026246
2,710065	147,958219	22,731	-0,026134
2,711047	149,117043	22,781	-0,025631
2,712041	149,940596	22,832	-0,025273
2,713023	150,275868	22,882	-0,025128
2,714030	150,968912	22,933	-0,024827
2,715054	151,517947	22,983	-0,024589
2,715993	152,104110	23,033	-0,024334
2,717020	152,806155	23,083	-0,024030
2,718042	153,323688	23,133	-0,023805
2,719014	154,040359	23,183	-0,023494
2,720046	154,375630	23,233	-0,023349
2,721090	154,863911	23,283	-0,023137
2,722057	155,518703	23,333	-0,022853
2,723094	156,045237	23,383	-0,022624
2,724004	156,905917	23,433	-0,022250
2,725028	157,241188	23,483	-0,022105
2,726082	157,713719	23,534	-0,021900
2,727026	158,604776	23,584	-0,021513
2,728043	159,001926	23,634	-0,021341
2,729102	159,565587	23,684	-0,021096
2,730079	160,320511	23,734	-0,020769
2,731033	160,328386	23,784	-0,020765
2,732044	161,950740	23,834	-0,020061
2,733082	162,347890	23,885	-0,019889
2,734050	162,812545	23,937	-0,019687
2,735036	163,033059	23,988	-0,019591
2,736052	164,070376	24,038	-0,019141
2,737019	164,634037	24,088	-0,018896
2,738064	165,114442	24,139	-0,018688
2,739008	165,617350	24,189	-0,018470
2,740018	166,348646	24,239	-0,018152
2,741041	166,798675	24,289	-0,017957
2,742050	167,255454	24,340	-0,017759
2,743035	167,362336	24,391	-0,017712
2,744046	168,398528	24,442	-0,017263
2,744978	169,129824	24,492	-0,016945
2,746042	169,633857	24,543	-0,016727
2,747024	170,304399	24,593	-0,016436
2,748065	170,906313	24,643	-0,016174
2,749065	171,554354	24,693	-0,015893
2,750096	172,095514	24,743	-0,015658
2,751041	172,681677	24,793	-0,015404
2,752045	173,367971	24,843	-0,015106
2,753054	173,558108	24,893	-0,015023
2,754058	173,855127	24,943	-0,014895
2,755051	174,419913	24,993	-0,014649
2,756041	174,823814	25,043	-0,014474
2,757064	175,425727	25,093	-0,014213
2,758016	175,890382	25,143	-0,014011
2,759013	176,599177	25,194	-0,013704
2,760061	176,797190	25,244	-0,013618
2,760947	177,651120	25,294	-0,013247
2,762075	177,734375	25,345	-0,013211
2,762051	178,260909	25,395	-0,012982
2,762017	177,818755	25,445	-0,013174
2,762049	177,903136	25,495	-0,013138
2,762019	177,658995	25,545	-0,013244
2,761982	177,467733	25,596	-0,013327
2,762026	177,247219	25,647	-0,013422
2,762002	177,414855	25,698	-0,013350
2,761954	177,201091	25,749	-0,013442
2,762009	176,859069	25,799	-0,013591
2,762066	176,758938	25,850	-0,013634
2,762022	176,698184	25,900	-0,013661
2,762001	176,675682	25,950	-0,013670
2,761981	176,621679	26,001	-0,013694
2,762037	176,461919	26,051	-0,013763
2,762025	176,774689	26,102	-0,013627
2,762066	176,591302	26,152	-0,013707
2,762027	176,362912	26,202	-0,013806
2,762043	176,294283	26,252	-0,013836
2,762030	175,959011	26,302	-0,013981
2,762050	176,362912	26,352	-0,013806
2,761994	176,477670	26,403	-0,013756
2,761999	176,385414	26,454	-0,013796
2,762033	176,164900	26,504	-0,013892
2,762011	176,302158	26,554	-0,013833
2,762023	176,241404	26,604	-0,013859
2,762085	176,080519	26,654	-0,013929
2,762008	176,118772	26,704	-0,013912
2,762015	176,310034	26,754	-0,013829
2,762022	176,347161	26,804	-0,013813
2,762040	176,217778	26,854	-0,013869
2,762032	176,157024	26,905	-0,013896
2,762050	176,256030	26,955	-0,013853
2,762043	176,104146	27,006	-0,013918
2,761993	176,013015	27,057	-0,013958
2,761970	176,203152	27,107	-0,013875
2,762007	176,271781	27,158	-0,013846
2,762044	175,821753	27,208	-0,014041
2,762067	175,997264	27,259	-0,013965
2,762041	176,172775	27,310	-0,013889
2,761972	175,928634	27,361	-0,013995
2,762031	175,593363	27,413	-0,014140
2,762061	175,813877	27,463	-0,014044
2,762032	175,867881	27,513	-0,014021
2,761993	175,821753	27,564	-0,014041
2,762023	175,852130	27,614	-0,014028
2,762086	176,013015	27,664	-0,013958
2,762033	175,753123	27,714	-0,014071
2,761998	175,722746	27,764	-0,014084
2,762006	175,791376	27,814	-0,014054
2,762019	175,654117	27,864	-0,014114
2,762005	175,593363	27,915	-0,014140
2,762047	175,738497	27,965	-0,014077
2,762065	175,448229	28,015	-0,014203
2,762052	175,508983	28,065	-0,014177
2,761992	175,562986	28,115	-0,014153
2,761990	175,615864	28,165	-0,014130
2,762043	175,516858	28,216	-0,014173
2,762016	175,928634	28,266	-0,013995
2,762012	175,700245	28,316	-0,014094
2,762039	175,684494	28,366	-0,014101
2,762028	175,791376	28,416	-0,014054
2,762025	175,318845	28,466	-0,014259
2,762037	175,242341	28,516	-0,014292
2,762008	175,478606	28,566	-0,014190
2,762007	175,463980	28,616	-0,014196
2,762017	174,922820	28,667	-0,014431
2,762025	175,357098	28,717	-0,014243
2,762010	175,296344	28,768	-0,014269
2,761992	175,280593	28,819	-0,014276
2,761991	175,310970	28,869	-0,014263
2,762051	175,463980	28,919	-0,014196
2,762015	175,235590	28,969	-0,014295
2,762028	175,296344	29,020	-0,014269
2,762004	175,371724	29,070	-0,014236
2,762080	175,516858	29,120	-0,014173
2,762065	175,463980	29,171	-0,014196
2,762093	175,120833	29,221	-0,014345
2,762016	175,357098	29,271	-0,014243
2,762009	175,387475	29,321	-0,014229
2,762039	175,349222	29,372	-0,014246
2,762003	175,166961	29,422	-0,014325
2,761992	175,341347	29,473	-0,014250
2,762016	175,189462	29,523	-0,014315
2,761994	175,310970	29,574	-0,014263
2,762049	175,060079	29,624	-0,014372
2,762034	175,371724	29,674	-0,014236
2,762021	175,159085	29,724	-0,014329
2,762026	175,112957	29,775	-0,014349
2,761961	175,334596	29,825	-0,014252
2,762011	175,288468	29,876	-0,014272
2,762023	175,013951	29,926	-0,014392
2,762040	175,151210	29,977	-0,014332
2,762047	175,341347	30,027	-0,014250
2,762030	174,953197	30,077	-0,014418
2,762064	175,173711	30,127	-0,014322
2,762043	175,197338	30,177	-0,014312
2,761998	174,991449	30,227	-0,014401
2,762062	174,686555	30,277	-0,014534
2,762024	175,006075	30,327	-0,014395
2,762034	175,013951	30,378	-0,014392
2,761030	174,899194	30,429	-0,014441
2,760060	174,343408	30,479	-0,014683
2,759101	173,474852	30,530	-0,015060
2,758031	172,491539	30,580	-0,015486
2,757013	171,920003	30,630	-0,015734
2,755978	171,355217	30,681	-0,015979
2,755024	170,753303	30,732	-0,016241
2,754067	169,694610	30,782	-0,016700
2,753049	169,595604	30,833	-0,016743
2,752034	168,398528	30,884	-0,017263
2,751046	167,705483	30,935	-0,017563
2,750057	167,156448	30,985	-0,017802
2,748997	166,439777	31,035	-0,018113
2,748079	165,815362	31,085	-0,018384
2,747053	165,189822	31,136	-0,018655
2,746022	164,436024	31,187	-0,018982
2,745099	163,787982	31,238	-0,019264
2,743994	162,263510	31,289	-0,019925
2,743041	162,485149	31,339	-0,019829
2,742000	160,853795	31,389	-0,020537
2,741025	160,625405	31,440	-0,020636
2,740026	160,137124	31,491	-0,020848
2,739051	159,824354	31,541	-0,020984
2,738019	158,620527	31,592	-0,021506
2,737032	157,835226	31,643	-0,021847
2,736014	156,958795	31,693	-0,022228
2,735040	156,532393	31,743	-0,022413
2,734024	155,762844	31,793	-0,022747
2,733029	154,833534	31,843	-0,023150
2,732005	154,215870	31,893	-0,023418
2,731019	153,651084	31,944	-0,023663
2,730021	152,950164	31,994	-0,023967
2,729046	152,249244	32,044	-0,024271
2,728069	151,463944	32,094	-0,024612
2,727012	150,831653	32,144	-0,024887
2,726023	149,771835	32,194	-0,025347
2,725021	149,322932	32,244	-0,025542
2,723988	148,652389	32,295	-0,025833
2,723032	147,882840	32,345	-0,026167
2,722046	147,135792	32,395	-0,026491
2,721043	146,632885	32,445	-0,026709
2,720039	145,504437	32,495	-0,027199
2,719033	144,910399	32,546	-0,027457
2,718015	144,567252	32,596	-0,027605
2,717056	142,974150	32,647	-0,028297
2,716028	143,065281	32,698	-0,028257
2,715053	142,044841	32,748	-0,028700
2,714000	141,579061	32,798	-0,028902
2,713091	140,657627	32,849	-0,029302
2,712046	140,215474	32,900	-0,029494
2,711054	139,407672	32,950	-0,029845
2,710055	138,454736	33,001	-0,030258
2,709041	137,624433	33,052	-0,030619
2,708045	137,319538	33,102	-0,030751
2,707054	136,404855	33,152	-0,031148
2,706045	135,855820	33,202	-0,031386
2,705019	135,239280	33,253	-0,031654
2,704085	134,492233	33,303	-0,031978
2,703014	133,440290	33,353	-0,032435
2,702066	132,647114	33,404	-0,032779
2,701065	132,319718	33,454	-0,032921
2,700098	131,580546	33,505	-0,033242
2,698981	130,528604	33,556	-0,033698
2,698046	129,850185	33,606	-0,033993
2,697044	129,446285	33,657	-0,034168
2,696045	128,852247	33,707	-0,034426
2,695087	128,066946	33,757	-0,034767
2,694034	126,885621	33,807	-0,035279
2,693102	126,451343	33,857	-0,035468
2,692040	125,536659	33,908	-0,035865
2,691058	124,866116	33,958	-0,036156
2,690043	124,423963	34,008	-0,036348
2,689035	123,456401	34,058	-0,036768
2,688040	122,953494	34,108	-0,036986
2,687022	121,871175	34,158	-0,037456
2,686041	121,611283	34,208	-0,037568
2,685020	120,705600	34,258	-0,037961
2,683962	119,585028	34,308	-0,038448
2,683055	118,983115	34,358	-0,038709
2,682057	118,692846	34,409	-0,038835
2,681082	117,687032	34,460	-0,039271
2,680054	117,199876	34,510	-0,039483
2,679026	116,673342	34,561	-0,039711
2,678076	115,911668	34,612	-0,040042
2,677041	114,577333	34,662	-0,040621
2,676099	114,280314	34,712	-0,040750
2,675037	113,662649	34,762	-0,041018
2,674011	112,931353	34,813	-0,041335
2,673059	112,039171	34,864	-0,041723
2,671986	111,299998	34,914	-0,042043
2,671023	110,651957	34,964	-0,042325
2,670049	110,035417	35,015	-0,042592
2,669056	109,440254	35,065	-0,042851
2,668015	108,381561	35,115	-0,043310
2,667082	107,749271	35,165	-0,043584
2,666057	107,276741	35,216	-0,043790
2,665022	106,453188	35,266	-0,044147
2,664044	105,706140	35,317	-0,044471
2,663023	105,188607	35,368	-0,044696
2,662015	104,235671	35,418	-0,045109
2,661017	103,717013	35,468	-0,045334
2,660026	102,870959	35,519	-0,045702
2,659021	102,032780	35,570	-0,046065
2,658028	101,507371	35,621	-0,046293
2,657021	100,714196	35,671	-0,046638
2,655986	100,371049	35,722	-0,046787
2,655000	99,167222	35,773	-0,047309
2,654028	98,702567	35,823	-0,047511
2,653032	97,917267	35,873	-0,047852
2,652040	97,056587	35,923	-0,048225
2,651045	96,233034	35,973	-0,048583
2,650053	95,851635	36,024	-0,048748
2,649075	95,067459	36,074	-0,049088
2,648051	94,213530	36,125	-0,049459
2,647044	93,595865	36,175	-0,049727
2,646053	93,153712	36,225	-0,049919
2,645130	92,308783	36,275	-0,050286
2,644055	91,530233	36,325	-0,050624
2,643055	90,928319	36,375	-0,050885
2,642007	89,922505	36,425	-0,051321
2,641018	89,472476	36,475	-0,051517
2,640006	88,466662	36,525	-0,051953
2,639057	87,864748	36,575	-0,052214
2,638085	87,506975	36,625	-0,052370
2,637048	85,822743	36,684	-0,053101
2,636070	85,966752	36,751	-0,053038
2,635031	85,091446	36,802	-0,053418
2,634002	84,603165	36,852	-0,053630
2,633030	83,543347	36,902	-0,054090
2,631999	82,614037	36,952	-0,054493
2,631067	82,004248	37,003	-0,054758
2,630067	81,715105	37,053	-0,054883
2,629068	80,777920	37,104	-0,055290
2,628001	80,144504	37,154	-0,055565
2,627101	78,948553	37,204	-0,056084
2,626031	78,720163	37,255	-0,056183
2,625088	77,759352	37,305	-0,056600
2,623998	77,202441	37,356	-0,056842
2,623035	76,188751	37,407	-0,057282
2,621992	76,212378	37,458	-0,057271
2,621017	74,504518	37,509	-0,058013
2,620013	74,534895	37,561	-0,058000
2,619041	73,758596	37,611	-0,058336
2,618052	73,193809	37,662	-0,058582
2,617012	72,157618	37,712	-0,059031
2,616093	71,380193	37,763	-0,059369
2,614988	71,052797	37,813	-0,059511
2,614051	70,039108	37,863	-0,059951
2,613082	69,344938	37,913	-0,060252
2,612053	68,468507	37,963	-0,060632
2,611057	68,019603	38,013	-0,060827
2,610083	67,302932	38,063	-0,061138
2,609064	66,579511	38,113	-0,061452
2,608023	65,923594	38,163	-0,061737
2,607066	65,146169	38,214	-0,062074
2,606035	64,253987	38,264	-0,062461
2,605044	63,805084	38,314	-0,062656
2,604004	62,935403	38,364	-0,063034
2,603026	62,501125	38,415	-0,063222
2,602043	61,563940	38,465	-0,063629
2,600998	60,863020	38,515	-0,063933
2,600031	60,085595	38,565	-0,064271
2,599071	59,338548	38,615	-0,064595
2,598067	58,454241	38,665	-0,064979
2,597038	58,080717	38,715	-0,065141
2,596069	57,280791	38,765	-0,065488
2,595002	56,488740	38,815	-0,065832
2,594046	56,038711	38,865	-0,066027
2,593044	55,079025	38,916	-0,066443
2,592045	54,239721	38,967	-0,066808
2,591058	53,546677	39,017	-0,067108
2,590011	53,028019	39,067	-0,067333
2,589044	52,090834	39,117	-0,067740
2,588030	51,595802	39,168	-0,067955
2,587066	50,840879	39,219	-0,068283
2,586018	50,146709	39,269	-0,068584
2,585043	49,667429	39,319	-0,068792
2,584020	48,882128	39,370	-0,069133
2,583002	48,288090	39,421	-0,069391
2,581984	47,442036	39,471	-0,069758
2,581105	46,062698	39,522	-0,070356
2,580015	45,887187	39,573	-0,070433
2,579052	45,163765	39,623	-0,070747
2,577980	44,645107	39,674	-0,070972
2,577060	43,714673	39,724	-0,071375
2,576059	43,288270	39,774	-0,071561
2,575028	42,419715	39,825	-0,071938
2,574052	41,482530	39,875	-0,072344
2,573030	40,475590	39,925	-0,072781
2,572046	40,475590	39,975	-0,072781
2,571060	39,659913	40,027	-0,073135
2,570056	38,822860	40,078	-0,073499
2,568997	37,908176	40,128	-0,073896
2,568052	37,367016	40,178	-0,074130
2,567085	36,520962	40,228	-0,074498
2,566033	35,979803	40,278	-0,074732
2,565076	34,790602	40,328	-0,075249
2,564038	34,584713	40,378	-0,075338
2,563025	33,792663	40,428	-0,075682
2,562036	33,205375	40,478	-0,075937
2,561003	32,274941	40,529	-0,076340
2,560033	31,642650	40,579	-0,076615
2,559041	30,865225	40,629	-0,076952
2,558044	30,370194	40,679	-0,077167
2,557048	29,417258	40,729	-0,077581
2,556044	28,663459	40,788	-0,077908
2,554994	28,282060	40,838	-0,078073
2,554032	27,512511	40,888	-0,078407
2,553090	26,719335	40,938	-0,078751
2,552023	26,109546	40,988	-0,079016
2,551038	25,202738	41,040	-0,079410
2,550054	24,691955	41,091	-0,079631
2,549046	23,671515	41,141	-0,080074
2,548015	23,114604	41,201	-0,080316
2,546990	22,680327	41,251	-0,080504
2,546026	21,704889	41,302	-0,080928
2,545017	21,048972	41,352	-0,081212
2,544059	20,348052	41,402	-0,081517
2,543034	19,707886	41,453	-0,081794
2,542006	19,402992	41,503	-0,081927
2,541074	18,061906	41,553	-0,082509
2,539994	17,566874	41,604	-0,082724
2,539029	16,697194	41,654	-0,083101
2,538024	16,194286	41,704	-0,083319
2,536972	15,478741	41,755	-0,083630
2,536060	14,807073	41,806	-0,083921
2,535011	14,220910	41,856	-0,084176
2,534037	13,695502	41,907	-0,084404
2,533027	12,643559	41,959	-0,084860
2,532029	11,903262	42,009	-0,085182
2,531043	11,240594	42,059	-0,085469
2,529969	10,661182	42,109	-0,085721
2,529031	9,579988	42,160	-0,086190
2,528040	8,992701	42,210	-0,086445
2,527072	7,979011	42,260	-0,086885
2,525973	7,833876	42,311	-0,086948
2,525072	6,066388	42,361	-0,087715
2,524015	6,500666	42,412	-0,087526
2,523045	5,364343	42,462	-0,088020
2,522026	4,709551	42,512	-0,088304
2,521017	4,275274	42,563	-0,088492
2,519997	3,596855	42,613	-0,088787
2,519023	2,742926	42,664	-0,089157
2,518010	2,247894	42,714	-0,089372
2,517001	1,652731	42,765	-0,089630
2,516048	0,586163	42,815	-0,090093
2,515072	0,030377	42,865	-0,090334
2,514013	-0,496157	42,915	-0,090563
2,513005	-1,554850	42,966	-0,091022
2,512050	-2,111760	43,017	-0,091264
2,511014	-2,751926	43,068	-0,091542
2,510023	-4,390031	43,119	-0,092253
2,509044	-4,436159	43,169	-0,092273
2,508044	-5,038072	43,219	-0,092534
2,507005	-5,587108	43,269	-0,092772
2,506029	-6,257650	43,319	-0,093063
2,505003	-7,073328	43,371	-0,093417
2,504055	-7,988011	43,422	-0,093814
2,502997	-8,879068	43,473	-0,094201
2,502026	-9,694745	43,523	-0,094555
2,501027	-9,931011	43,573	-0,094658
2,500008	-10,944700	43,623	-0,095098
2,499035	-11,332850	43,673	-0,095266
2,498042	-12,255409	43,723	-0,095667
2,497057	-12,705438	43,773	-0,095862
2,496077	-13,283725	43,823	-0,096113
2,495061	-13,993646	43,873	-0,096421
2,494025	-14,763195	43,923	-0,096755
2,493032	-15,860140	43,973	-0,097231
2,492045	-16,782699	44,023	-0,097631
2,491018	-16,782699	44,073	-0,097631
2,490080	-17,697383	44,123	-0,098028
2,489035	-17,788513	44,173	-0,098068
2,488019	-17,903271	44,223	-0,098118
2,487044	-18,002277	44,273	-0,098161
2,486009	-17,917897	44,323	-0,098124
2,485069	-18,077657	44,373	-0,098193
2,484067	-18,085532	44,423	-0,098197
2,483071	-17,727760	44,473	-0,098042
2,482036	-18,085532	44,523	-0,098197
2,481024	-18,412928	44,573	-0,098339
2,480062	-18,558063	44,623	-0,098402
2,479098	-18,862957	44,673	-0,098534
2,478035	-18,992341	44,723	-0,098590
2,477104	-19,175727	44,774	-0,098670
2,476008	-19,365864	44,824	-0,098752
2,475062	-19,525625	44,874	-0,098822
2,473990	-20,028532	44,924	-0,099040
2,473037	-20,258047	44,974	-0,099140
2,472007	-20,173666	45,024	-0,099103
2,471032	-20,333426	45,074	-0,099172
2,470041	-20,310925	45,125	-0,099163
2,469049	-20,867836	45,175	-0,099404
2,468040	-20,974717	45,225	-0,099451
2,467062	-21,164855	45,275	-0,099533
2,466013	-21,362867	45,325	-0,099619
2,465049	-21,553004	45,375	-0,099702
2,464013	-22,079538	45,425	-0,099930
2,463078	-22,269675	45,475	-0,100013
2,462064	-22,300052	45,525	-0,100026
2,461004	-22,757957	45,575	-0,100225
2,460022	-23,000972	45,625	-0,100330
2,459064	-23,497129	45,675	-0,100545
2,457991	-23,641138	45,726	-0,100608
2,457103	-23,847026	45,777	-0,100697
2,456052	-23,604011	45,827	-0,100592
2,455055	-24,076541	45,877	-0,100797
2,454101	-23,854902	45,928	-0,100701
2,453016	-24,343183	45,978	-0,100913
2,452028	-24,518694	46,028	-0,100989
2,451044	-24,860716	46,078	-0,101137
2,450027	-25,249991	46,128	-0,101306
2,449035	-25,706770	46,178	-0,101504
2,448061	-25,607764	46,228	-0,101461
2,446969	-26,126422	46,278	-0,101687
2,446055	-25,638141	46,328	-0,101475
2,445014	-26,110671	46,378	-0,101680
2,444042	-26,629329	46,428	-0,101905
2,443035	-26,552824	46,478	-0,101872
2,442061	-27,025355	46,528	-0,102077
2,441078	-27,154738	46,579	-0,102133
2,440083	-27,101860	46,629	-0,102110
2,439047	-27,299872	46,679	-0,102196
2,438028	-27,086109	46,729	-0,102103
2,437018	-27,665521	46,780	-0,102354
2,436038	-27,780278	46,830	-0,102404
2,435057	-27,536137	46,880	-0,102298
2,434067	-27,437131	46,930	-0,102255
2,433028	-27,192990	46,980	-0,102149
2,432043	-27,101860	47,031	-0,102110
2,431025	-27,071483	47,081	-0,102097
2,429996	-27,475383	47,131	-0,102272
2,429061	-28,267434	47,182	-0,102616
2,428046	-28,008668	47,232	-0,102503
2,427031	-28,237057	47,283	-0,102603
2,426062	-28,473322	47,333	-0,102705
2,425041	-28,313562	47,385	-0,102636
2,424101	-28,305687	47,436	-0,102632
2,423056	-28,778217	47,487	-0,102837
2,422086	-28,725338	47,537	-0,102814
2,421065	-29,372255	47,587	-0,103095
2,420053	-29,434134	47,638	-0,103122
2,419036	-29,876287	47,688	-0,103314
2,418020	-29,989919	47,738	-0,103363
2,417050	-30,249811	47,788	-0,103476
2,416042	-30,470325	47,840	-0,103572
2,415042	-30,478201	47,890	-0,103575
2,414026	-30,325191	47,940	-0,103509
2,413094	-31,003609	47,991	-0,103803
2,412094	-30,950731	48,041	-0,103780
2,411079	-31,499766	48,091	-0,104019
2,410041	-31,293878	48,142	-0,103929
2,409045	-31,316379	48,192	-0,103939
2,408070	-31,880040	48,243	-0,104184
2,407093	-31,895791	48,293	-0,104190
2,406050	-32,025175	48,343	-0,104247
2,405031	-32,459452	48,393	-0,104435
2,404038	-32,162433	48,444	-0,104306
2,403015	-32,726094	48,494	-0,104551
2,402051	-32,550583	48,544	-0,104475
2,401031	-32,695718	48,594	-0,104538
2,400049	-33,099618	48,645	-0,104713
2,399001	-33,122120	48,695	-0,104723
2,397992	-33,655404	48,746	-0,104954
2,397055	-33,671155	48,797	-0,104961
2,395997	-33,915296	48,848	-0,105067
2,395010	-33,495644	48,898	-0,104885
2,394026	-33,549647	48,949	-0,104908
2,393026	-33,519270	48,999	-0,104895
2,392000	-33,778037	49,049	-0,105007
2,391032	-33,679030	49,099	-0,104964
2,390034	-33,640778	49,149	-0,104948
2,389013	-33,541772	49,199	-0,104905
2,388075	-33,419139	49,249	-0,104852
2,387045	-33,533896	49,299	-0,104901
2,386036	-33,564273	49,350	-0,104915
2,385029	-33,503519	49,400	-0,104888
2,383996	-33,389887	49,450	-0,104839
2,383044	-33,283005	49,500	-0,104792
2,382047	-33,198625	49,550	-0,104756
2,381023	-32,901606	49,600	-0,104627
2,380004	-33,236877	49,650	-0,104772
2,379053	-32,901606	49,701	-0,104627
2,377993	-33,190749	49,751	-0,104752
2,377058	-33,153622	49,801	-0,104736
2,376048	-32,817225	49,851	-0,104590
2,375004	-32,566334	49,901	-0,104481
2,374010	-32,146682	49,951	-0,104299
2,373047	-32,108430	50,001	-0,104283
2,372080	-32,330069	50,052	-0,104379
2,371073	-32,063427	50,103	-0,104263
2,370040	-32,283941	50,154	-0,104359
2,369054	-32,033050	50,204	-0,104250
2,368031	-32,116305	50,254	-0,104286
2,367029	-31,956545	50,304	-0,104217
2,366031	-32,116305	50,364	-0,104286
2,365091	-32,467328	50,414	-0,104438
2,364055	-31,918293	50,464	-0,104200
2,363075	-31,895791	50,514	-0,104190
2,362024	-31,865414	50,564	-0,104177
2,361030	-31,819286	50,614	-0,104157
2,360039	-32,116305	50,664	-0,104286
2,359049	-31,728156	50,715	-0,104118
2,358007	-31,369258	50,765	-0,103962
2,356953	-31,461514	50,817	-0,104002
2,356051	-31,361382	50,867	-0,103958
2,355039	-31,308504	50,917	-0,103936
2,354023	-31,392884	50,967	-0,103972
2,353054	-31,270251	51,017	-0,103919
2,352090	-31,041862	51,067	-0,103820
2,351076	-31,011485	51,117	-0,103807
2,350041	-31,072239	51,168	-0,103833
2,349070	-30,882101	51,218	-0,103750
2,348018	-30,821348	51,269	-0,103724
2,347056	-31,011485	51,319	-0,103807
2,346057	-30,729092	51,369	-0,103684
2,345041	-31,011485	51,419	-0,103807
2,344048	-30,767344	51,469	-0,103701
2,343007	-30,630085	51,519	-0,103641
2,341989	-30,538954	51,570	-0,103602
2,341071	-30,538954	51,620	-0,103602
2,340013	-30,492827	51,670	-0,103582
2,339094	-30,028172	51,721	-0,103380
2,338026	-30,698715	51,771	-0,103671
2,337031	-30,347692	51,822	-0,103519
2,336052	-30,294814	51,872	-0,103496
2,335065	-30,264437	51,922	-0,103482
2,334040	-30,096801	51,972	-0,103410
2,333124	-30,096801	52,022	-0,103410
2,332008	-30,013546	52,072	-0,103374
2,331085	-30,127178	52,122	-0,103423
2,330072	-30,013546	52,173	-0,103374
2,329039	-29,807658	52,223	-0,103284
2,328033	-29,807658	52,273	-0,103284
2,327056	-29,670399	52,323	-0,103225
2,326022	-29,654648	52,373	-0,103218
2,325007	-29,593894	52,423	-0,103191
2,323999	-29,501638	52,473	-0,103151
2,323049	-29,418383	52,523	-0,103115
2,321982	-29,319376	52,573	-0,103072
2,321028	-29,335127	52,623	-0,103079
2,320048	-29,212495	52,674	-0,103026
2,319006	-29,044859	52,724	-0,102953
2,318052	-26,576451	52,775	-0,101882
2,317095	-26,003789	52,825	-0,101633
2,316041	-26,522447	52,875	-0,101858
2,315028	-26,195051	52,925	-0,101716
2,314057	-26,072419	52,975	-0,101663
2,313037	-26,270431	53,025	-0,101749
2,312017	-26,080294	53,075	-0,101667
2,311051	-25,730397	53,125	-0,101515
2,310015	-25,630265	53,176	-0,101471
2,309035	-25,730397	53,227	-0,101515
2,308037	-25,646016	53,277	-0,101478
2,307047	-25,424377	53,327	-0,101382
2,306031	-25,417627	53,378	-0,101379
2,305069	-25,417627	53,429	-0,101379
2,304045	-25,249991	53,480	-0,101306
2,303014	-25,494132	53,531	-0,101412
2,302042	-25,211739	53,582	-0,101290
2,301042	-25,318620	53,632	-0,101336
2,300082	-25,219614	53,682	-0,101293
2,299073	-25,226364	53,732	-0,101296
2,298060	-25,181362	53,782	-0,101276
2,297081	-25,005850	53,837	-0,101200
2,296018	-25,074480	53,887	-0,101230
2,295050	-25,036227	53,938	-0,101213
2,294018	-24,860716	53,988	-0,101137
2,293098	-24,906844	54,038	-0,101157
2,292039	-24,906844	54,089	-0,101157
2,291041	-24,648077	54,141	-0,101045
2,290042	-24,891093	54,192	-0,101150
2,289036	-24,662703	54,243	-0,101051
2,288081	-24,662703	54,293	-0,101051
2,287062	-24,784211	54,343	-0,101104
2,286037	-24,464691	54,393	-0,100965
2,285064	-24,327432	54,443	-0,100906
2,284001	-24,502943	54,494	-0,100982
2,283087	-24,510819	54,544	-0,100985
2,282051	-24,212675	54,594	-0,100856
2,281027	-24,396061	54,644	-0,100936
2,280087	-24,357809	54,694	-0,100919
2,279064	-24,327432	54,745	-0,100906
2,278057	-24,388186	54,796	-0,100932
2,276992	-24,182298	54,846	-0,100843
2,276073	-24,114793	54,896	-0,100813
2,275051	-23,908905	54,946	-0,100724
2,274057	-24,174422	54,996	-0,100839
2,273032	-23,984285	55,047	-0,100757
2,272015	-24,106918	55,097	-0,100810
2,271059	-23,847026	55,148	-0,100697
2,270019	-24,052914	55,198	-0,100787
2,269054	-23,618637	55,249	-0,100598
2,268062	-23,763771	55,299	-0,100661
2,267039	-23,703017	55,349	-0,100635
2,266020	-23,778397	55,400	-0,100667
2,265042	-23,824525	55,450	-0,100687
2,263969	-23,763771	55,501	-0,100661
2,263051	-23,695141	55,551	-0,100631
2,262023	-23,557883	55,602	-0,100572