File: Nanoindentation Datenauswertung/data/labview program test/program test-7
Quasi static measurement routine
Tip parameters (shape,radius, material...)
06.07.2022

Piezo position[nm]	MEMS displ.[nm]	Time[ms]	Cap [pf]
eoh
2,361872	-31,819286	0,208	-0,104147
2,365904	-31,468264	0,408	-0,103995
2,369856	-31,536893	0,609	-0,104025
2,373847	-31,811411	0,809	-0,104144
2,377852	-31,445763	1,009	-0,103985
2,381893	-31,643775	1,209	-0,104071
2,385826	-32,177059	1,410	-0,104303
2,389869	-32,108430	1,610	-0,104273
2,393880	-32,756471	1,811	-0,104554
2,397885	-32,497705	2,012	-0,104442
2,401821	-32,146682	2,212	-0,104290
2,405843	-31,704529	2,413	-0,104098
2,409845	-29,935916	2,613	-0,103330
2,413843	-28,481198	2,813	-0,102699
2,417835	-26,453818	3,014	-0,101819
2,421828	-24,639077	3,215	-0,101031
2,425905	-22,581320	3,415	-0,100138
2,429861	-20,272672	3,615	-0,099136
2,433853	-18,664945	3,815	-0,098438
2,437877	-16,225788	4,015	-0,097380
2,441830	-13,360230	4,216	-0,096136
2,445883	-11,195592	4,417	-0,095197
2,449895	-8,010513	4,617	-0,093814
2,453825	-5,281088	4,817	-0,092630
2,457907	-2,796929	5,017	-0,091552
2,461870	0,046128	5,218	-0,090318
2,465865	2,637169	5,418	-0,089193
2,469865	5,335091	5,618	-0,088022
2,473865	7,887880	5,818	-0,086915
2,477893	10,082895	6,018	-0,085962
2,481895	12,681812	6,218	-0,084834
2,485845	14,610185	6,418	-0,083997
2,489865	17,574750	6,618	-0,082710
2,493909	20,470685	6,819	-0,081454
2,497866	23,045975	7,019	-0,080336
2,501851	25,341122	7,219	-0,079340
2,505853	30,271187	7,419	-0,077200
2,509891	29,867287	7,619	-0,077375
2,513876	32,322194	7,819	-0,076310
2,517868	34,729848	8,020	-0,075265
2,521892	36,810106	8,220	-0,074362
2,525836	41,200137	8,421	-0,072457
2,529924	41,749172	8,621	-0,072219
2,533875	44,561852	8,821	-0,070998
2,537928	48,989010	9,021	-0,069077
2,541914	49,713557	9,222	-0,068762
2,545929	52,144837	9,422	-0,067707
2,549832	53,889824	9,622	-0,066950
2,553885	59,156286	9,822	-0,064664
2,557896	58,866017	10,023	-0,064790
2,561887	64,003096	10,223	-0,062561
2,561879	64,406997	10,423	-0,062385
2,561821	64,071726	10,623	-0,062531
2,561871	63,751080	10,823	-0,062670
2,561847	63,591320	11,023	-0,062739
2,561870	63,538441	11,223	-0,062762
2,561869	63,454061	11,424	-0,062799
2,561879	63,629572	11,624	-0,062723
2,561842	63,110914	11,825	-0,062948
2,561872	63,249298	12,025	-0,062888
2,561849	63,110914	12,225	-0,062948
2,561875	63,142416	12,425	-0,062934
2,561808	63,187419	12,626	-0,062915
2,561842	63,096288	12,826	-0,062954
2,561829	62,860023	13,026	-0,063057
2,561869	63,027659	13,227	-0,062984
2,561847	63,134541	13,427	-0,062938
2,561851	62,845397	13,627	-0,063063
2,561854	62,860023	13,827	-0,063057
2,561860	63,050160	14,027	-0,062974
2,561857	62,920777	14,228	-0,063030
2,561888	62,791394	14,428	-0,063086
2,561869	62,738515	14,628	-0,063109
2,561814	62,669886	14,828	-0,063139
2,561857	62,997282	15,029	-0,062997
2,561848	62,615882	15,229	-0,063163
2,561831	62,615882	15,429	-0,063163
2,557789	62,585505	15,450	-0,063176
2,553899	59,948337	15,650	-0,064320
2,549846	57,274041	15,851	-0,065481
2,545897	54,118214	16,052	-0,066851
2,541854	51,412415	16,253	-0,068025
2,537858	48,722368	16,453	-0,069192
2,533806	45,529414	16,653	-0,070578
2,529845	42,541223	16,853	-0,071875
2,525870	39,950182	17,054	-0,073000
2,521827	36,932739	17,254	-0,074309
2,517838	33,776912	17,454	-0,075679
2,513832	31,201622	17,654	-0,076796
2,509816	28,183054	17,854	-0,078106
2,505857	25,577387	18,054	-0,079237
2,501854	22,604947	18,255	-0,080527
2,497831	19,739388	18,455	-0,081771
2,493831	16,751197	18,656	-0,083068
2,489788	13,992521	18,857	-0,084265
2,485842	10,273032	19,057	-0,085879
2,481831	7,567234	19,257	-0,087054
2,477929	5,540980	19,457	-0,087933
2,473815	3,025319	19,658	-0,089025
2,469880	0,304895	19,858	-0,090206
2,465848	-2,492034	20,058	-0,091419
2,461855	-6,227274	20,258	-0,093041
2,457874	-8,863317	20,458	-0,094185
2,453862	-11,454358	20,658	-0,095309
2,449819	-14,107278	20,858	-0,096460
2,445838	-18,497309	21,059	-0,098366
2,441842	-21,126602	21,259	-0,099507
2,437825	-22,116665	21,459	-0,099937
2,433840	-25,005850	21,659	-0,101190
2,429812	-26,796965	21,859	-0,101968
2,425863	-26,781214	22,059	-0,101961
2,421864	-27,825281	22,259	-0,102414
2,417880	-28,495824	22,459	-0,102705
2,413842	-29,509514	22,659	-0,103145
2,409865	-30,880976	22,859	-0,103740
2,405799	-30,942855	23,059	-0,103767
2,401846	-31,635900	23,260	-0,104068
2,397852	-32,764347	23,460	-0,104558
2,393846	-33,632903	23,661	-0,104935
2,389850	-33,556398	23,861	-0,104901
2,385905	-33,449516	24,061	-0,104855
2,381888	-33,289756	24,261	-0,104786
2,377815	-33,274005	24,462	-0,104779
2,373860	-32,710343	24,663	-0,104534
2,369836	-32,245689	24,864	-0,104333
2,365834	-32,039801	25,065	-0,104243
2,361858	-32,459452	25,265	-0,104425
2,361847	-31,674152	25,465	-0,104084
2,361878	-31,758533	25,665	-0,104121
2,361826	-31,377133	25,865	-0,103956
2,361860	-31,643775	26,065	-0,104071
2,361848	-31,688778	26,265	-0,104091
2,361869	-31,581896	26,465	-0,104044
2,361864	-31,514392	26,665	-0,104015
2,361858	-31,484015	26,866	-0,104002
2,361873	-31,734906	27,066	-0,104111
2,361863	-31,506516	27,266	-0,104012
2,361861	-31,468264	27,467	-0,103995
2,361905	-31,787784	27,667	-0,104134
2,361850	-31,833912	27,867	-0,104154
2,361824	-31,773158	28,068	-0,104127
2,361869	-31,544769	28,268	-0,104028
2,361901	-31,567270	28,469	-0,104038
2,361870	-31,658401	28,669	-0,104078
2,361857	-31,651651	28,869	-0,104075
2,361838	-31,918293	29,069	-0,104190
2,361873	-31,674152	29,269	-0,104084
2,361837	-31,666277	29,469	-0,104081
2,361885	-31,581896	29,669	-0,104044
2,361862	-31,635900	29,869	-0,104068
2,361877	-31,613398	30,069	-0,104058
2,361877	-31,720280	30,270	-0,104104
2,361860	-31,581896	30,471	-0,104044
2,365883	-31,552644	30,493	-0,104032
2,369873	-31,720280	30,693	-0,104104
2,373877	-31,758533	30,893	-0,104121
2,377872	-31,498641	31,093	-0,104008
2,381857	-31,460388	31,293	-0,103992
2,385863	-32,245689	31,493	-0,104333
2,389855	-31,696654	31,693	-0,104094
2,393890	-32,024050	31,894	-0,104236
2,397887	-32,558459	32,094	-0,104468
2,401847	-32,130931	32,294	-0,104283
2,405889	-31,872165	32,494	-0,104170
2,409840	-29,989919	32,694	-0,103354
2,413830	-28,412568	32,895	-0,102669
2,417860	-26,964601	33,095	-0,102041
2,421825	-24,578323	33,295	-0,101005
2,425896	-22,550943	33,496	-0,100125
2,429865	-20,791331	33,697	-0,099361
2,433857	-18,923711	33,897	-0,098551
2,437862	-16,591437	34,097	-0,097539
2,441889	-13,650499	34,297	-0,096262
2,445855	-10,868196	34,497	-0,095055
2,449899	-8,543797	34,697	-0,094046
2,453850	-5,837999	34,897	-0,092872
2,457886	-3,551852	35,097	-0,091879
2,461884	-0,464655	35,298	-0,090540
2,465918	2,453782	35,498	-0,089273
2,469915	7,095829	35,698	-0,087258
2,473825	6,623299	35,898	-0,087463
2,477882	9,297595	36,099	-0,086303
2,481863	11,484735	36,299	-0,085354
2,485861	13,634748	36,499	-0,084420
2,489855	15,935520	36,700	-0,083422
2,493847	18,412928	36,900	-0,082347
2,497872	20,721576	37,100	-0,081345
2,501871	22,718579	37,300	-0,080478
2,505877	25,347872	37,501	-0,079337
2,509873	27,893910	37,702	-0,078232
2,513860	30,180057	37,903	-0,077240
2,517840	33,830915	38,104	-0,075655
2,521877	36,246445	38,304	-0,074607
2,525842	37,976806	38,504	-0,073856
2,529852	40,103192	38,705	-0,072933
2,533899	42,968750	38,905	-0,071689
2,537862	46,519477	39,106	-0,070148
2,541921	48,265589	39,306	-0,069391
2,545836	50,848754	39,506	-0,068270
2,549843	53,623182	39,707	-0,067065
2,553835	56,129842	39,908	-0,065978
2,557874	58,348484	40,108	-0,065015
2,561945	61,160039	40,308	-0,063794
2,561871	63,797208	40,508	-0,062650
2,561850	63,538441	40,708	-0,062762
2,561825	63,675700	40,908	-0,062703
2,561827	63,599195	41,108	-0,062736
2,561870	63,621697	41,308	-0,062726
2,561841	63,385432	41,508	-0,062829
2,561829	63,614946	41,710	-0,062729
2,561849	63,659949	41,910	-0,062709
2,561794	63,751080	42,110	-0,062670
2,561848	63,514815	42,311	-0,062772
2,561857	63,164918	42,512	-0,062924
2,561854	63,774707	42,712	-0,062660
2,561869	63,340429	42,912	-0,062848
2,561870	63,203170	43,112	-0,062908
2,561868	63,447311	43,313	-0,062802
2,561845	63,599195	43,514	-0,062736
2,561817	63,461937	43,714	-0,062795
2,561878	63,538441	43,914	-0,062762
2,561908	63,461937	44,114	-0,062795
2,561827	63,134541	44,315	-0,062938
2,561929	63,607071	44,515	-0,062732
2,561843	63,271799	44,715	-0,062878
2,561877	63,447311	44,915	-0,062802
2,561885	63,423684	45,115	-0,062812
2,561886	63,447311	45,315	-0,062802
2,561898	63,104164	45,515	-0,062951
2,557875	63,294301	45,537	-0,062868
2,553835	60,390490	45,737	-0,064128
2,549822	57,700443	45,938	-0,065296
2,545862	53,623182	46,138	-0,067065
2,541880	52,060457	46,338	-0,067744
2,537846	49,126269	46,538	-0,069017
2,533855	46,192081	46,738	-0,070291
2,529810	43,502034	46,938	-0,071458
2,525870	38,875738	47,138	-0,073466
2,521849	37,579655	47,339	-0,074028
2,517884	34,919985	47,539	-0,075183
2,513864	32,443701	47,739	-0,076257
2,509817	29,227121	47,940	-0,077653
2,505885	26,102796	48,141	-0,079009
2,501863	23,039225	48,341	-0,080339
2,497881	19,784391	48,541	-0,081751
2,493857	17,467868	48,741	-0,082757
2,489850	14,929706	48,941	-0,083858
2,485857	11,995518	49,141	-0,085132
2,481843	8,885819	49,342	-0,086481
2,477869	5,593858	49,543	-0,087910
2,473883	2,195015	49,743	-0,089385
2,469821	0,678418	49,943	-0,090043
2,465867	-2,096009	50,143	-0,091248
2,461879	-4,939066	50,344	-0,092481
2,457886	-8,124145	50,544	-0,093864
2,453846	-10,936825	50,744	-0,095084
2,449823	-13,360230	50,944	-0,096136
2,445790	-16,294418	51,144	-0,097410
2,441900	-19,586379	51,344	-0,098838
2,437880	-22,041286	51,544	-0,099904
2,433868	-24,739208	51,744	-0,101075
2,429903	-27,017479	51,944	-0,102063
2,425838	-27,306623	52,144	-0,102189
2,421872	-28,069421	52,344	-0,102520
2,417844	-29,296875	52,545	-0,103053
2,413864	-29,913414	52,745	-0,103320
2,409835	-30,408446	52,945	-0,103535
2,405873	-31,369258	53,146	-0,103952
2,401806	-31,993673	53,346	-0,104223
2,397862	-32,421200	53,546	-0,104409
2,393861	-33,297631	53,746	-0,104789
2,389839	-33,350509	53,946	-0,104812
2,385883	-33,580024	54,146	-0,104912
2,381870	-33,472017	54,347	-0,104865
2,377834	-33,358385	54,547	-0,104815
2,373856	-33,099618	54,747	-0,104703
2,369813	-32,421200	54,948	-0,104409
2,365825	-32,124181	55,148	-0,104280
2,361851	-32,215312	55,348	-0,104319
2,361821	-31,734906	55,548	-0,104111
2,361806	-31,734906	55,748	-0,104111
2,361868	-31,597647	55,948	-0,104051
2,361910	-31,781034	56,148	-0,104131
2,361885	-31,712405	56,348	-0,104101
2,361842	-31,781034	56,548	-0,104131
2,361866	-31,758533	56,748	-0,104121
2,361891	-31,887916	56,948	-0,104177
2,361848	-31,643775	57,148	-0,104071
2,361838	-31,795660	57,348	-0,104137
2,361888	-31,803535	57,548	-0,104141
2,361867	-31,720280	57,748	-0,104104
2,361865	-31,734906	57,948	-0,104111
2,361871	-31,795660	58,149	-0,104137
2,361918	-31,620149	58,349	-0,104061
2,361879	-31,567270	58,549	-0,104038
2,361796	-31,399635	58,749	-0,103965
2,361878	-31,552644	58,949	-0,104032
2,361848	-31,674152	59,149	-0,104084
2,361866	-31,581896	59,350	-0,104044
2,361843	-31,628024	59,551	-0,104064
2,361892	-31,712405	59,751	-0,104101
2,361835	-31,613398	59,952	-0,104058
2,361884	-31,452513	60,153	-0,103988
2,361826	-31,682028	60,354	-0,104088
2,361878	-31,635900	60,554	-0,104068
2,365836	-31,666277	60,575	-0,104081
2,369893	-31,468264	60,775	-0,103995
2,373893	-31,589772	60,975	-0,104048
2,377891	-31,559395	61,175	-0,104035
2,381782	-31,468264	61,375	-0,103995
2,385901	-32,047676	61,575	-0,104247
2,389858	-31,926168	61,775	-0,104194
2,393882	-32,100554	61,975	-0,104270
2,397871	-32,092679	62,176	-0,104266
2,401871	-32,162433	62,376	-0,104296
2,405854	-31,910417	62,576	-0,104187
2,409937	-30,264437	62,776	-0,103473
2,413843	-28,541952	62,976	-0,102725
2,417861	-26,682208	63,177	-0,101918
2,421859	-24,838215	63,377	-0,101118
2,425902	-22,917717	63,577	-0,100284
2,429852	-20,981468	63,777	-0,099444
2,433883	-18,939462	63,977	-0,098558
2,437882	-16,538558	64,177	-0,097516
2,441849	-14,022897	64,377	-0,096424
2,445897	-11,371103	64,577	-0,095273
2,449863	-8,604551	64,778	-0,094072
2,453873	-6,120392	64,979	-0,092994
2,457867	-3,376341	65,180	-0,091803
2,461860	-0,678418	65,380	-0,090632
2,465867	1,387214	65,581	-0,089736
2,469904	4,420408	65,781	-0,088419
2,473869	6,104641	65,981	-0,087688
2,477842	8,893694	66,181	-0,086478
2,481875	10,997579	66,382	-0,085565
2,485872	13,420984	66,582	-0,084513
2,489889	15,592373	66,783	-0,083571
2,493854	18,306047	66,983	-0,082393
2,497872	20,280548	67,184	-0,081536
2,501810	22,977346	67,386	-0,080366
2,505872	27,672271	67,587	-0,078328
2,509844	28,328188	67,787	-0,078043
2,513843	30,630085	67,987	-0,077044
2,517831	32,817225	68,188	-0,076095
2,521838	35,156250	68,388	-0,075080
2,525881	38,227697	68,588	-0,073747
2,529847	40,719731	68,788	-0,072666
2,533861	43,304021	68,988	-0,071544
2,537862	45,749928	69,189	-0,070482
2,541855	49,354659	69,389	-0,068918
2,545874	51,961451	69,589	-0,067787
2,549821	54,232971	69,789	-0,066801
2,553871	56,472989	69,989	-0,065829
2,557820	59,102283	70,190	-0,064687
2,561870	61,922838	70,390	-0,063463
2,561825	64,491377	70,590	-0,062349
2,561850	64,041349	70,790	-0,062544
2,561822	63,812959	70,991	-0,062643
2,561849	64,315866	71,191	-0,062425
2,561821	63,911965	71,391	-0,062600
2,561818	63,881588	71,591	-0,062613
2,561814	63,950218	71,791	-0,062583
2,561877	63,934467	71,991	-0,062590
2,561894	64,307991	72,192	-0,062428
2,561847	64,247237	72,393	-0,062455
2,561845	63,964844	72,593	-0,062577
2,561871	63,758956	72,793	-0,062667
2,561833	64,208984	72,993	-0,062471
2,561887	63,683576	73,193	-0,062699
2,561833	63,956968	73,394	-0,062581
2,561856	63,728579	73,594	-0,062680
2,561894	63,950218	73,794	-0,062583
2,561812	63,653199	73,994	-0,062712
2,561809	63,599195	74,194	-0,062736
2,561769	63,492314	74,394	-0,062782
2,561807	63,827585	74,594	-0,062637
2,561810	63,843336	74,794	-0,062630
2,561844	64,255112	74,994	-0,062451
2,561865	63,851211	75,194	-0,062626
2,561842	63,683576	75,394	-0,062699
2,561854	63,751080	75,595	-0,062670
2,557863	64,178607	75,617	-0,062484
2,553845	60,939525	75,817	-0,063890
2,549857	56,046587	76,017	-0,066014
2,545838	54,903514	76,219	-0,066510
2,541822	50,879131	76,419	-0,068256
2,537802	49,469416	76,619	-0,068868
2,533830	46,642110	76,820	-0,070095
2,529816	43,631417	77,020	-0,071402
2,525785	40,910993	77,221	-0,072583
2,521798	37,892425	77,421	-0,073893
2,517848	35,012241	77,621	-0,075143
2,513804	31,628024	77,822	-0,076611
2,509822	29,021232	78,023	-0,077743
2,505818	26,453818	78,224	-0,078857
2,501825	23,998911	78,424	-0,079922
2,497817	20,836334	78,624	-0,081295
2,493807	18,259919	78,825	-0,082413
2,489828	15,585622	79,026	-0,083574
2,485789	12,423045	79,226	-0,084946
2,481819	9,800502	79,427	-0,086084
2,477842	6,623299	79,627	-0,087463
2,473826	3,940002	79,828	-0,088628
2,469822	0,990063	80,028	-0,089908
2,465805	-2,255769	80,228	-0,091317
2,461811	-7,370347	80,428	-0,093537
2,457824	-7,461478	80,629	-0,093576
2,453879	-12,514176	80,830	-0,095769
2,449820	-12,994582	81,030	-0,095978
2,445826	-15,806137	81,230	-0,097198
2,441784	-18,580564	81,430	-0,098402
2,437857	-21,439372	81,630	-0,099643
2,433802	-24,174422	81,830	-0,100830
2,429824	-27,177239	82,030	-0,102133
2,425846	-28,610581	82,231	-0,102755
2,421838	-28,183054	82,431	-0,102569
2,417858	-28,984105	82,632	-0,102917
2,413807	-29,768280	82,832	-0,103257
2,409790	-31,529018	83,032	-0,104021
2,405795	-30,820222	83,232	-0,103714
2,401812	-31,651651	83,432	-0,104075
2,397858	-32,596711	83,632	-0,104485
2,393820	-33,594650	83,832	-0,104918
2,389829	-33,366260	84,033	-0,104819
2,385812	-33,556398	84,233	-0,104901
2,381848	-33,251503	84,434	-0,104769
2,377758	-33,281880	84,634	-0,104782
2,373814	-33,000612	84,834	-0,104660
2,369872	-32,427950	85,034	-0,104412
2,365798	-32,162433	85,234	-0,104296
2,361800	-32,199561	85,434	-0,104313