File: Nanoindentation Datenauswertung/data/labview program test/program test-5
Quasi static measurement routine
Tip parameters (shape,radius, material...)
06.07.2022

Piezo position[nm]	MEMS displ.[nm]	Time[ms]	Cap [pf]
eoh
2,534017	0,373524	0,082	-0,072265
2,535983	0,220514	0,122	-0,072332
2,536983	2,035255	0,162	-0,071544
2,539017	2,956689	0,229	-0,071144
2,539991	3,802743	0,278	-0,070777
2,542022	4,527290	0,334	-0,070462
2,544038	5,906628	0,411	-0,069864
2,544996	7,530107	0,452	-0,069159
2,547009	8,132020	0,492	-0,068898
2,547985	9,335847	0,532	-0,068375
2,550008	10,121148	0,572	-0,068035
2,552009	11,950515	0,613	-0,067241
2,553051	13,207220	0,653	-0,066695
2,555040	13,626872	0,693	-0,066513
2,556020	15,082715	0,733	-0,065881
2,558004	15,814012	0,808	-0,065564
2,560022	15,967022	0,848	-0,065498
2,561017	18,725698	0,888	-0,064300
2,562997	18,572689	0,928	-0,064367
2,564009	19,822644	0,968	-0,063824
2,565995	20,219794	1,008	-0,063652
2,568005	21,324615	1,049	-0,063172
2,568962	22,604947	1,089	-0,062617
2,571003	23,123605	1,129	-0,062392
2,571972	24,640202	1,169	-0,061733
2,574015	24,640202	1,252	-0,061733
2,575992	26,133173	1,292	-0,061085
2,576974	26,979227	1,334	-0,060718
2,579042	27,886035	1,381	-0,060325
2,580040	29,281124	1,421	-0,059719
2,581989	29,997795	1,462	-0,059408
2,583984	31,423261	1,502	-0,058790
2,584975	31,841788	1,542	-0,058608
2,586960	32,039801	1,614	-0,058522
2,588050	33,419139	1,654	-0,057923
2,589972	33,869168	1,694	-0,057728
2,591999	34,860356	1,734	-0,057298
2,592996	35,965177	1,775	-0,056818
2,595036	36,346576	1,816	-0,056653
2,596017	37,336640	1,857	-0,056223
2,598019	37,938553	1,898	-0,055962
2,599973	38,899365	1,939	-0,055545
2,601010	40,934620	2,011	-0,054662
2,603011	40,842364	2,052	-0,054702
2,603992	42,146322	2,092	-0,054136
2,606031	42,938373	2,133	-0,053792
2,607946	43,754050	2,173	-0,053438
2,608999	45,064759	2,214	-0,052869
2,611005	45,232395	2,254	-0,052796
2,612003	46,642110	2,295	-0,052185
2,614039	46,787244	2,335	-0,052122
2,616025	48,013573	2,375	-0,051589
2,617024	49,499793	2,444	-0,050944
2,619001	50,026327	2,484	-0,050716
2,620031	51,550799	2,524	-0,050054
2,621981	52,037955	2,565	-0,049843
2,624037	52,800754	2,605	-0,049512
2,625013	54,675124	2,646	-0,048698
2,627017	54,751629	2,687	-0,048665
2,627974	56,878015	2,727	-0,047742
2,630018	56,732881	2,822	-0,047805
2,632025	57,853453	2,862	-0,047319
2,633055	59,049404	2,903	-0,046800
2,634985	59,956212	2,943	-0,046406
2,636039	61,062158	2,983	-0,045926
2,638016	61,373803	3,023	-0,045791
2,639997	62,883650	3,063	-0,045136
2,641025	63,873713	3,103	-0,044706
2,642977	65,420687	3,143	-0,044035
2,643992	65,299179	3,219	-0,044087
2,646000	65,695204	3,259	-0,043916
2,647998	67,067792	3,299	-0,043320
2,649007	68,401003	3,340	-0,042741
2,651045	69,376440	3,380	-0,042318
2,652002	69,864721	3,421	-0,042106
2,653950	70,139239	3,462	-0,041987
2,656009	71,632209	3,502	-0,041339
2,656980	72,973295	3,542	-0,040757
2,659002	73,110554	3,608	-0,040697
2,659975	74,154621	3,648	-0,040244
2,662035	74,970298	3,688	-0,039890
2,664013	76,380013	3,729	-0,039278
2,665012	77,530962	3,769	-0,038779
2,666991	77,858358	3,809	-0,038637
2,668015	78,978930	3,849	-0,038150
2,670015	79,673099	3,889	-0,037849
2,672012	80,564156	3,929	-0,037462
2,673036	81,775859	3,969	-0,036937
2,675042	82,119006	4,038	-0,036788
2,675993	83,818989	4,078	-0,036050
2,677993	84,168887	4,120	-0,035898
2,680041	85,563976	4,160	-0,035292
2,681029	86,737426	4,201	-0,034783
2,682981	87,233583	4,241	-0,034568
2,684024	88,231522	4,282	-0,034135
2,686000	88,871688	4,322	-0,033857
2,687958	89,770620	4,362	-0,033467
2,688985	91,135333	4,437	-0,032875
2,690993	92,088269	4,477	-0,032461
2,692016	92,690182	4,517	-0,032200
2,694010	93,352850	4,557	-0,031912
2,695995	94,618556	4,597	-0,031363
2,696966	95,220469	4,637	-0,031102
2,698943	96,242034	4,677	-0,030658
2,700006	97,034085	4,718	-0,030314
2,701980	97,575245	4,758	-0,030080
2,704029	98,199660	4,841	-0,029809
2,705009	100,013276	4,881	-0,029021
2,707052	100,440803	4,921	-0,028836
2,708014	101,903397	4,961	-0,028201
2,710011	102,056407	5,002	-0,028135
2,711970	103,359240	5,042	-0,027569
2,713006	104,716077	5,082	-0,026980
2,715011	105,432748	5,122	-0,026669
2,715994	106,324930	5,163	-0,026282
2,718042	106,767083	5,242	-0,026090
2,720016	107,963035	5,283	-0,025571
2,720963	109,388501	5,323	-0,024953
2,722992	110,180552	5,363	-0,024609
2,724017	111,049107	5,403	-0,024232
2,726035	111,903037	5,444	-0,023861
2,728030	113,168743	5,484	-0,023312
2,728991	114,730343	5,524	-0,022634
2,731038	114,760720	5,565	-0,022621
2,732009	116,246940	5,638	-0,021976
2,734011	117,115495	5,679	-0,021599
2,733961	118,403703	5,719	-0,021040
2,733959	118,175313	5,759	-0,021139
2,733971	118,175313	5,800	-0,021139
2,733979	117,779288	5,841	-0,021311
2,733981	118,030179	5,882	-0,021202
2,734013	117,923297	5,922	-0,021249
2,733970	117,946924	5,962	-0,021238
2,733985	117,985176	6,052	-0,021222
2,733979	117,977301	6,092	-0,021225
2,733969	118,023428	6,132	-0,021205
2,733970	118,007677	6,172	-0,021212
2,733965	117,847917	6,213	-0,021281
2,733972	118,106684	6,253	-0,021169
2,734016	117,886170	6,293	-0,021265
2,733956	117,939048	6,334	-0,021242
2,733999	117,809665	6,418	-0,021298
2,734000	117,855793	6,458	-0,021278
2,733964	117,894045	6,499	-0,021261
2,733942	117,649905	6,540	-0,021367
2,733969	118,068431	6,580	-0,021186
2,734005	117,908671	6,620	-0,021255
2,733971	117,694907	6,660	-0,021348
2,734021	117,999802	6,700	-0,021215
2,734020	117,793914	6,740	-0,021305
2,734027	117,923297	6,821	-0,021249
2,734064	117,809665	6,861	-0,021298
2,733971	117,725284	6,901	-0,021334
2,733957	117,763537	6,941	-0,021318
2,733954	117,619528	6,981	-0,021380
2,734014	117,886170	7,022	-0,021265
2,733947	117,611652	7,063	-0,021384
2,733951	117,787163	7,103	-0,021308
2,734007	117,779288	7,143	-0,021311
2,734029	117,939048	7,218	-0,021242
2,734003	117,931173	7,259	-0,021245
2,733988	117,847917	7,299	-0,021281
2,734014	117,717409	7,340	-0,021338
2,733931	117,801789	7,381	-0,021301
2,733943	117,733160	7,422	-0,021331
2,733962	117,634154	7,462	-0,021374
2,733987	117,763537	7,502	-0,021318
2,733977	117,535147	7,542	-0,021417
2,734003	117,139122	7,620	-0,021589
2,734011	117,793914	7,660	-0,021305
2,733971	117,672406	7,700	-0,021357
2,733961	117,748911	7,742	-0,021324
2,733972	117,923297	7,782	-0,021249
2,734000	117,688157	7,823	-0,021351
2,733969	117,702783	7,863	-0,021344
2,734006	117,755661	7,904	-0,021321
2,733985	117,512646	7,944	-0,021427
2,733987	117,611652	8,024	-0,021384
2,734060	117,702783	8,064	-0,021344
2,733970	117,436141	8,104	-0,021460
2,733984	117,840042	8,144	-0,021285
2,733946	117,779288	8,185	-0,021311
2,734012	117,611652	8,225	-0,021384
2,733950	117,543023	8,265	-0,021414
2,734031	117,725284	8,305	-0,021334
2,734013	117,490144	8,345	-0,021437
2,734010	117,657780	8,423	-0,021364
2,733962	117,725284	8,464	-0,021334
2,734003	117,634154	8,504	-0,021374
2,733961	117,496895	8,544	-0,021434
2,734003	117,634154	8,585	-0,021374
2,733959	117,961550	8,625	-0,021232
2,734005	117,642029	8,665	-0,021371
2,733988	117,862543	8,705	-0,021275
2,733975	117,504770	8,745	-0,021430
2,733952	117,626278	8,815	-0,021377
2,733975	117,649905	8,855	-0,021367
2,733998	117,490144	8,896	-0,021437
2,733932	117,787163	8,936	-0,021308
2,733957	117,573400	8,976	-0,021400
2,734015	117,634154	9,017	-0,021374
2,733957	117,557649	9,058	-0,021407
2,733978	117,626278	9,098	-0,021377
2,734028	117,702783	9,138	-0,021344
2,734012	117,611652	9,217	-0,021384
2,733968	117,657780	9,257	-0,021364
2,733986	117,588026	9,297	-0,021394
2,733984	117,642029	9,338	-0,021371
2,733944	117,405764	9,379	-0,021473
2,733940	117,755661	9,419	-0,021321
2,734019	117,428265	9,459	-0,021463
2,733958	117,733160	9,499	-0,021331
2,733959	117,657780	9,539	-0,021364
2,734046	117,672406	9,615	-0,021357
2,734005	117,565524	9,655	-0,021404
2,734022	117,519396	9,695	-0,021424
2,733993	117,793914	9,735	-0,021305
2,733978	117,771412	9,776	-0,021314
2,734028	117,474393	9,817	-0,021443
2,734000	117,619528	9,857	-0,021380
2,733937	117,680282	9,897	-0,021354
2,733966	117,748911	9,938	-0,021324
2,733997	117,490144	10,016	-0,021437
2,733963	117,847917	10,057	-0,021281
2,733986	117,672406	10,098	-0,021357
2,733957	117,991926	10,138	-0,021219
2,733945	117,512646	10,178	-0,021427
2,733952	117,870419	10,218	-0,021271
2,733987	117,573400	10,258	-0,021400
2,734011	117,657780	10,298	-0,021364
2,733991	117,474393	10,338	-0,021443
2,734010	117,527272	10,428	-0,021420
2,733981	117,390013	10,468	-0,021480
2,733988	117,329259	10,508	-0,021506
2,733971	117,367512	10,548	-0,021490
2,733986	117,588026	10,588	-0,021394
2,733960	117,215627	10,628	-0,021556
2,733983	117,573400	10,668	-0,021400
2,734003	117,817540	10,709	-0,021294
2,734012	117,496895	10,749	-0,021434
2,733996	117,672406	10,828	-0,021357
2,733999	117,512646	10,868	-0,021427
2,733945	117,581275	10,909	-0,021397
2,733966	117,397888	10,949	-0,021477
2,733957	117,375387	10,989	-0,021486
2,733977	117,573400	11,029	-0,021400
2,733952	117,367512	11,069	-0,021490
2,733999	117,359636	11,109	-0,021493
2,734027	117,535147	11,149	-0,021417
2,734001	117,657780	11,222	-0,021364
2,733971	117,284256	11,262	-0,021526
2,731939	117,504770	11,302	-0,021430
2,730985	115,988173	11,343	-0,022088
2,728959	115,630400	11,383	-0,022244
2,727987	113,900040	11,423	-0,022995
2,725976	113,199120	11,463	-0,023299
2,724024	111,682523	11,503	-0,023957
2,722960	110,218804	11,543	-0,024592
2,721011	109,762025	11,611	-0,024791
2,719977	108,237552	11,651	-0,025452
2,717957	107,779648	11,691	-0,025651
2,715954	106,286677	11,731	-0,026299
2,714986	104,434809	11,771	-0,027103
2,712976	103,908275	11,812	-0,027331
2,711960	102,666196	11,852	-0,027870
2,709984	101,911272	11,893	-0,028198
2,707962	100,432928	11,934	-0,028839
2,706949	98,984960	11,974	-0,029468
2,704994	98,794823	12,056	-0,029550
2,703988	96,942954	12,097	-0,030354
2,701943	95,913513	12,137	-0,030801
2,699987	94,648933	12,177	-0,031350
2,698983	93,269594	12,217	-0,031948
2,697011	92,460667	12,257	-0,032299
2,695974	91,112831	12,297	-0,032884
2,693971	90,555921	12,338	-0,033126
2,691969	88,787307	12,378	-0,033894
2,690942	87,621733	12,450	-0,034399
2,689010	85,678733	12,491	-0,035243
2,687943	85,418842	12,532	-0,035355
2,685953	84,542411	12,572	-0,035736
2,684023	83,368961	12,612	-0,036245
2,682985	81,967121	12,652	-0,036854
2,681014	81,235824	12,692	-0,037171
2,679955	79,764230	12,732	-0,037810
2,677990	79,245572	12,772	-0,038035
2,675977	77,889860	12,851	-0,038623
2,674962	76,601653	12,892	-0,039182
2,672985	75,739847	12,932	-0,039556
2,671945	73,583084	12,972	-0,040492
2,669972	73,362570	13,012	-0,040588
2,668010	71,785219	13,052	-0,041272
2,666990	70,527389	13,092	-0,041818
2,665014	69,780341	13,132	-0,042143
2,663973	68,583264	13,172	-0,042662
2,661982	67,593201	13,250	-0,043092
2,659974	66,351121	13,290	-0,043631
2,659019	64,812023	13,330	-0,044299
2,657014	64,071726	13,370	-0,044620
2,655975	62,379617	13,410	-0,045354
2,654007	62,273861	13,450	-0,045400
2,651971	60,810142	13,490	-0,046036
2,650970	58,974024	13,530	-0,046833
2,648960	58,127970	13,570	-0,047200
2,647988	57,213287	13,650	-0,047597
2,645998	56,153469	13,690	-0,048057
2,643992	54,796632	13,730	-0,048646
2,642990	53,806569	13,770	-0,049075
2,640961	52,358601	13,810	-0,049704
2,639995	51,329160	13,850	-0,050150
2,638009	50,642866	13,890	-0,050448
2,635952	49,332157	13,930	-0,051017
2,634982	47,831311	14,056	-0,051668
2,632997	46,954880	14,096	-0,052049
2,632006	45,521538	14,136	-0,052671
2,629975	45,050133	14,176	-0,052875
2,627926	43,532411	14,217	-0,053534
2,626978	42,229578	14,258	-0,054100
2,624998	41,520782	14,298	-0,054407
2,623985	40,217949	14,339	-0,054973
2,621961	39,265013	14,379	-0,055386
2,619942	38,830735	14,454	-0,055575
2,619029	36,376953	14,495	-0,056640
2,616995	35,416142	14,535	-0,057057
2,615943	34,196564	14,575	-0,057586
2,613983	33,320132	14,615	-0,057966
2,611953	31,583021	14,655	-0,058720
2,610988	30,515328	14,695	-0,059184
2,608957	29,692900	14,735	-0,059541
2,607943	28,549827	14,775	-0,060037
2,606001	27,901786	14,848	-0,060318
2,603974	26,559575	14,888	-0,060900
2,602973	25,135234	14,928	-0,061519
2,601026	24,563697	14,968	-0,061767
2,600007	24,563697	15,009	-0,061767
2,598012	24,563697	15,049	-0,061767
2,596007	20,258047	15,090	-0,063635
2,594968	19,319736	15,130	-0,064042
2,592988	18,366800	15,170	-0,064456
2,591956	17,162973	15,262	-0,064979
2,590003	16,561060	15,302	-0,065240
2,588014	15,120968	15,342	-0,065865
2,586952	13,665125	15,382	-0,066497
2,584984	13,109339	15,422	-0,066738
2,584014	11,439732	15,462	-0,067462
2,582008	10,577927	15,502	-0,067836
2,580010	9,335847	15,542	-0,068375
2,578961	7,865378	15,582	-0,069014
2,576940	7,537982	15,653	-0,069156
2,575971	5,892002	15,693	-0,069870
2,573992	5,159580	15,734	-0,070188
2,571964	3,666610	15,774	-0,070836
2,570983	2,218642	15,814	-0,071464
2,569002	1,433342	15,854	-0,071805
2,567999	-0,113632	15,895	-0,072477
2,565993	-0,997939	15,935	-0,072860
2,563990	-1,904747	15,975	-0,073254
2,562970	-3,322338	16,051	-0,073869
2,561001	-4,008632	16,091	-0,074167
2,560005	-5,929129	16,131	-0,075000
2,557973	-6,401660	16,171	-0,075206
2,556001	-7,956509	16,211	-0,075880
2,554984	-9,122084	16,251	-0,076386
2,552947	-10,143649	16,291	-0,076830
2,551969	-11,470109	16,331	-0,077405
2,549995	-11,973016	16,371	-0,077624
2,548014	-12,460172	16,454	-0,077835
2,546966	-14,967958	16,494	-0,078923
2,544970	-15,493367	16,535	-0,079151
2,544015	-17,041466	16,575	-0,079823
2,541949	-17,764887	16,615	-0,080137
2,539938	-18,023654	16,655	-0,080250
2,539006	-20,363803	16,696	-0,081265
2,536940	-21,201982	16,736	-0,081629
2,535942	-22,520566	16,776	-0,082201
2,534037	-23,176483	16,849	-0,082486