File: Nanoindentation Datenauswertung/data/labview program test/program test-18
Quasi static measurement routine
Tip parameters (shape,radius, material...)
06.07.2022

Piezo position[nm]	MEMS displ.[nm]	Time[ms]	Cap [pf]
eoh
2,252057	0,091131	0,196	-0,100701
2,253985	-0,183387	0,247	-0,100820
2,256036	-0,153010	0,297	-0,100807
2,258027	-0,397150	0,348	-0,100913
2,260054	-0,472530	0,398	-0,100945
2,262052	-0,205888	0,448	-0,100830
2,264041	-0,160885	0,499	-0,100810
2,266071	-0,252016	0,549	-0,100850
2,268056	-0,304895	0,599	-0,100873
2,270020	-0,579412	0,649	-0,100992
2,272016	-0,419652	0,701	-0,100922
2,274037	-0,419652	0,751	-0,100922
2,276069	-0,838179	0,801	-0,101104
2,278086	-0,785300	0,851	-0,101081
2,280020	-1,051942	0,901	-0,101197
2,282079	-1,098070	0,951	-0,101217
2,284052	-1,144198	1,001	-0,101237
2,285996	-1,067693	1,051	-0,101204
2,287995	-1,144198	1,102	-0,101237
2,290030	-1,441217	1,152	-0,101366
2,292055	-1,257831	1,203	-0,101286
2,293995	-1,524473	1,253	-0,101402
2,296014	-1,471594	1,303	-0,101379
2,298011	-1,730361	1,353	-0,101491
2,300039	-1,608853	1,403	-0,101438
2,302052	-2,027380	1,453	-0,101620
2,304066	-2,004878	1,507	-0,101610
2,306030	-2,012754	1,557	-0,101614
2,308079	-2,195015	1,607	-0,101693
2,309988	-2,454907	1,658	-0,101806
2,312027	-2,584290	1,708	-0,101862
2,313988	-2,705798	1,758	-0,101915
2,316051	-2,721549	1,808	-0,101921
2,318061	-2,988191	1,876	-0,102037
2,320064	-3,125450	1,926	-0,102097
2,321985	-3,186204	1,977	-0,102123
2,324026	-3,232332	2,027	-0,102143
2,326010	-3,460721	2,077	-0,102242
2,328064	-3,505724	2,127	-0,102262
2,330007	-3,505724	2,178	-0,102262
2,332081	-3,216581	2,228	-0,102136
2,334013	-3,711613	2,279	-0,102351
2,335996	-3,772366	2,329	-0,102377
2,338034	-4,093012	2,379	-0,102517
2,340015	-4,588044	2,430	-0,102731
2,342098	-4,535165	2,480	-0,102708
2,344022	-7,095829	2,530	-0,103820
2,346010	-6,661551	2,580	-0,103631
2,348021	-6,600797	2,632	-0,103605
2,350020	-6,783059	2,682	-0,103684
2,352054	-6,501791	2,732	-0,103562
2,354019	-6,501791	2,782	-0,103562
2,356021	-6,661551	2,832	-0,103631
2,358070	-6,645800	2,882	-0,103625
2,360026	-6,607548	2,933	-0,103608
2,362038	-6,631174	2,983	-0,103618
2,364026	-6,889941	3,033	-0,103730
2,366056	-6,615423	3,083	-0,103611
2,368089	-7,362471	3,133	-0,103936
2,369985	-7,545858	3,183	-0,104015
2,372061	-7,584110	3,233	-0,104032
2,374023	-7,553733	3,283	-0,104019
2,376038	-7,209461	3,333	-0,103869
2,378040	-7,370347	3,383	-0,103939
2,380028	-7,613362	3,433	-0,104044
2,382029	-7,309593	3,483	-0,103913
2,384085	-7,263465	3,533	-0,103893
2,386033	-7,865378	3,583	-0,104154
2,388042	-7,164459	3,633	-0,103850
2,390020	-7,827126	3,684	-0,104137
2,392020	-8,216401	3,734	-0,104306
2,394000	-8,216401	3,784	-0,104306
2,396026	-9,664369	3,840	-0,104935
2,397992	-9,496733	3,891	-0,104862
2,400078	-8,582049	3,941	-0,104465
2,402047	-7,186960	3,991	-0,103859
2,404076	-6,067513	4,042	-0,103374
2,406033	-5,663612	4,093	-0,103198
2,408028	-4,032258	4,144	-0,102490
2,410037	-3,010693	4,194	-0,102047
2,412053	-2,111760	4,244	-0,101657
2,414006	-0,869681	4,294	-0,101118
2,415985	-0,930435	4,344	-0,101144
2,418020	0,365648	4,394	-0,100582
2,420015	0,807802	4,445	-0,100390
2,421953	2,940938	4,496	-0,099464
2,424062	2,575290	4,546	-0,099623
2,426019	4,602670	4,596	-0,098743
2,428043	4,572293	4,650	-0,098756
2,430034	6,149644	4,701	-0,098071
2,432000	6,981072	4,751	-0,097710
2,434055	8,413288	4,802	-0,097089
2,436013	8,413288	4,852	-0,097089
2,438000	12,308288	4,902	-0,095398
2,440031	12,688562	4,953	-0,095233
2,442065	14,655188	5,004	-0,094380
2,444026	15,989523	5,055	-0,093801
2,446039	16,309044	5,106	-0,093662
2,448035	18,122660	5,156	-0,092875
2,450091	18,595190	5,206	-0,092670
2,452044	20,371679	5,256	-0,091899
2,454016	21,476499	5,307	-0,091419
2,456036	22,939093	5,357	-0,090785
2,458012	25,202738	5,407	-0,089802
2,460013	25,294994	5,457	-0,089762
2,462039	26,444817	5,507	-0,089263
2,464056	28,594830	5,557	-0,088330
2,466013	29,257497	5,609	-0,088042
2,467989	30,454574	5,660	-0,087523
2,470043	31,468264	5,710	-0,087083
2,472049	33,350509	5,760	-0,086266
2,473998	35,224879	5,810	-0,085453
2,476021	36,527713	5,860	-0,084887
2,478027	37,633659	5,910	-0,084407
2,480018	37,976806	5,960	-0,084258
2,482040	40,361958	6,010	-0,083223
2,484000	39,972683	6,060	-0,083392
2,486040	42,678481	6,111	-0,082218
2,487983	41,977562	6,161	-0,082522
2,490023	44,744114	6,211	-0,081321
2,492003	45,887187	6,272	-0,080825
2,494055	46,138078	6,322	-0,080716
2,495997	47,930318	6,372	-0,079938
2,497977	49,027263	6,423	-0,079462
2,500032	50,521358	6,473	-0,078814
2,502035	50,330096	6,523	-0,078897
2,504023	52,929012	6,573	-0,077769
2,506038	52,647744	6,623	-0,077891
2,508029	55,147654	6,692	-0,076806
2,510011	55,176906	6,743	-0,076793
2,511967	56,632749	6,793	-0,076162
2,514056	58,835640	6,844	-0,075206
2,516014	60,230730	6,894	-0,074600
2,518019	59,407177	6,945	-0,074958
2,520005	62,264860	6,995	-0,073717
2,522004	61,990342	7,046	-0,073836
2,524023	63,949093	7,097	-0,072986
2,526010	64,025598	7,149	-0,072953
2,528018	66,045102	7,199	-0,072077
2,530014	65,816712	7,249	-0,072176
2,532048	67,089169	7,299	-0,071624
2,534051	68,605766	7,350	-0,070965
2,536000	70,717526	7,400	-0,070049
2,538018	70,313625	7,462	-0,070224
2,540037	72,440011	7,513	-0,069301
2,542038	72,698778	7,563	-0,069189
2,544024	73,331068	7,613	-0,068915
2,546020	74,253627	7,663	-0,068514
2,548083	75,671218	7,713	-0,067899
2,549997	77,012304	7,763	-0,067317
2,552050	79,161191	7,814	-0,066384
2,554073	79,252322	7,864	-0,066345
2,556029	81,577846	7,914	-0,065335
2,558018	83,292456	7,964	-0,064591
2,560007	84,488407	8,014	-0,064072
2,562037	85,685484	8,065	-0,063553
2,564014	85,479596	8,115	-0,063642
2,566066	88,116764	8,165	-0,062498
2,567993	88,764806	8,215	-0,062216
2,570026	88,535291	8,265	-0,062316
2,571961	90,090141	8,319	-0,061641
2,573997	90,936195	8,369	-0,061274
2,576010	92,147897	8,419	-0,060748
2,578011	93,169463	8,469	-0,060305
2,579982	94,229281	8,520	-0,059845
2,582051	96,293788	8,570	-0,058949
2,583994	96,035021	8,621	-0,059061
2,586041	97,232098	8,671	-0,058542
2,588007	98,672190	8,722	-0,057917
2,589994	99,914270	8,773	-0,057377
2,591977	100,798576	8,823	-0,056994
2,594025	102,117160	8,873	-0,056421
2,596015	103,191604	8,923	-0,055955
2,598023	104,128789	8,973	-0,055548
2,600030	106,499316	9,024	-0,054520
2,601966	106,948220	9,087	-0,054325
2,604038	108,404063	9,137	-0,053693
2,605995	108,563823	9,187	-0,053624
2,607994	110,164801	9,237	-0,052929
2,610004	110,903973	9,287	-0,052608
2,612013	112,230433	9,338	-0,052032
2,613986	112,763717	9,388	-0,051801
2,616032	114,158806	9,438	-0,051195
2,618036	115,423387	9,488	-0,050646
2,619971	116,376323	9,538	-0,050233
2,621968	118,304697	9,589	-0,049396
2,624038	119,630031	9,639	-0,048821
2,626004	120,338827	9,691	-0,048513
2,628072	122,069187	9,742	-0,047762
2,630092	122,983871	9,792	-0,047365
2,632000	123,472152	9,853	-0,047153
2,634027	124,462216	9,903	-0,046724
2,636015	126,199327	9,954	-0,045970
2,638031	126,748362	10,005	-0,045731
2,640105	128,066946	10,055	-0,045159
2,642011	129,286524	10,105	-0,044630
2,644007	130,932505	10,155	-0,043916
2,646008	132,731495	10,206	-0,043135
2,648007	133,074642	10,256	-0,042986
2,650018	135,330411	10,306	-0,042007
2,652015	135,345037	10,356	-0,042000
2,653999	137,646934	10,406	-0,041001
2,656049	138,965519	10,456	-0,040429
2,658032	140,322356	10,507	-0,039840
2,660023	140,154720	10,557	-0,039913
2,662021	142,463368	10,608	-0,038911
2,664019	143,630067	10,658	-0,038405
2,665985	144,811393	10,708	-0,037892
2,668014	145,161290	10,758	-0,037740
2,670044	147,584695	10,808	-0,036688
2,671998	147,127916	10,858	-0,036887
2,674055	149,399437	10,908	-0,035901
2,675997	149,268928	10,958	-0,035958
2,678003	151,441442	11,008	-0,035015
2,680048	152,584515	11,058	-0,034519
2,681983	153,963854	11,108	-0,033920
2,683964	155,450074	11,158	-0,033275
2,686040	156,356882	11,208	-0,032881
2,688074	156,144243	11,259	-0,032974
2,690006	157,935358	11,310	-0,032196
2,692039	158,133371	11,360	-0,032110
2,694028	161,013555	11,410	-0,030860
2,696001	160,983178	11,460	-0,030874
2,698009	162,073373	11,510	-0,030400
2,699990	164,557532	11,561	-0,029322
2,702007	164,961433	11,611	-0,029147
2,704021	165,898618	11,662	-0,028740
2,706018	167,140697	11,712	-0,028201
2,707971	168,558288	11,762	-0,027586
2,710022	171,195457	11,813	-0,026441
2,712049	171,165080	11,863	-0,026455
2,714048	172,857188	11,913	-0,025720
2,716022	173,962009	11,963	-0,025241
2,718017	174,472791	12,013	-0,025019
2,719983	177,163963	12,063	-0,023851
2,721978	178,146151	12,113	-0,023425
2,723983	178,703062	12,164	-0,023183
2,726073	180,363668	12,214	-0,022462
2,727987	182,574435	12,265	-0,021503
2,730000	182,536182	12,316	-0,021520
2,732027	185,157600	12,367	-0,020382
2,734039	185,387115	12,417	-0,020282
2,735977	187,734015	12,467	-0,019264
2,738040	187,481999	12,517	-0,019373
2,740018	189,769270	12,567	-0,018380
2,742033	189,967283	12,617	-0,018294
2,744052	192,329934	12,667	-0,017269
2,746005	192,451442	12,717	-0,017216
2,747998	194,577828	12,768	-0,016293
2,750013	194,761215	12,818	-0,016214
2,751989	197,115990	12,869	-0,015192
2,751970	197,459137	12,919	-0,015043
2,751982	197,214997	12,972	-0,015149
2,751980	196,986607	13,023	-0,015248
2,751980	197,055237	13,074	-0,015218
2,752004	196,986607	13,124	-0,015248
2,751979	197,123866	13,174	-0,015188
2,751987	197,061987	13,224	-0,015215
2,751966	197,146367	13,274	-0,015179
2,752014	196,940479	13,325	-0,015268
2,752041	196,651336	13,376	-0,015394
2,752001	196,811096	13,428	-0,015324
2,752034	196,955105	13,478	-0,015262
2,752012	196,643460	13,528	-0,015397
2,752010	196,589457	13,578	-0,015420
2,751984	196,955105	13,629	-0,015262
2,751945	196,818971	13,685	-0,015321
2,751963	196,681713	13,736	-0,015380
2,752000	196,528703	13,786	-0,015447
2,751970	196,757092	13,836	-0,015348
2,752037	196,917978	13,886	-0,015278
2,751997	196,749217	13,936	-0,015351
2,751942	196,871850	13,987	-0,015298
2,751944	196,704214	14,038	-0,015371
2,751966	196,559080	14,091	-0,015434
2,752002	196,627709	14,141	-0,015404
2,752006	196,589457	14,192	-0,015420
2,751999	196,589457	14,242	-0,015420
2,752038	196,483700	14,292	-0,015466
2,752075	196,467949	14,342	-0,015473
2,751976	196,551204	14,392	-0,015437
2,751978	196,651336	14,442	-0,015394
2,752026	196,605208	14,492	-0,015414
2,751990	196,856099	14,542	-0,015305
2,752037	196,582706	14,592	-0,015423
2,752014	196,483700	14,642	-0,015466
2,751981	196,742467	14,692	-0,015354
2,751989	196,673837	14,742	-0,015384
2,752007	196,124802	14,792	-0,015622
2,752034	196,163054	14,842	-0,015605
2,752064	196,514077	14,893	-0,015453
2,751995	196,597332	14,943	-0,015417
2,751988	196,619834	14,993	-0,015407
2,752007	196,536578	15,044	-0,015443
2,752055	196,193431	15,094	-0,015592
2,752031	196,559080	15,145	-0,015434
2,752044	196,712090	15,195	-0,015367
2,751959	196,330690	15,245	-0,015533
2,752009	196,566955	15,296	-0,015430
2,752006	196,582706	15,346	-0,015423
2,752013	196,619834	15,396	-0,015407
2,752014	196,460073	15,447	-0,015477
2,752066	196,597332	15,498	-0,015417
2,752005	196,415071	15,548	-0,015496
2,752035	196,490450	15,598	-0,015463
2,752046	196,665962	15,648	-0,015387
2,752024	196,514077	15,698	-0,015453
2,752007	196,277812	15,758	-0,015556
2,752005	196,559080	15,808	-0,015434
2,752020	196,415071	15,859	-0,015496
2,752025	196,658086	15,909	-0,015391
2,752024	196,483700	15,959	-0,015466
2,751994	196,726716	16,009	-0,015361
2,752026	196,483700	16,059	-0,015466
2,751997	196,437572	16,109	-0,015486
2,752018	196,566955	16,159	-0,015430
2,752001	196,475824	16,209	-0,015470
2,751984	196,421821	16,260	-0,015493
2,752039	196,415071	16,311	-0,015496
2,751954	196,605208	16,362	-0,015414
2,751958	196,696339	16,412	-0,015374
2,752044	196,734591	16,462	-0,015357
2,751991	196,421821	16,512	-0,015493
2,751969	196,483700	16,563	-0,015466
2,752028	196,140553	16,614	-0,015615
2,752009	196,574831	16,664	-0,015427
2,751987	196,704214	16,715	-0,015371
2,752021	196,643460	16,765	-0,015397
2,752027	196,627709	16,816	-0,015404
2,752024	196,811096	16,867	-0,015324
2,752026	196,681713	16,918	-0,015380
2,752012	196,316064	16,968	-0,015539
2,752004	196,619834	17,018	-0,015407
2,752016	196,521952	17,069	-0,015450
2,752023	196,696339	17,119	-0,015374
2,751993	196,498326	17,169	-0,015460
2,752035	196,345316	17,220	-0,015526
2,752001	196,704214	17,270	-0,015371
2,752004	196,421821	17,320	-0,015493
2,751987	196,536578	17,371	-0,015443
2,751974	196,300313	17,421	-0,015546
2,751975	196,863974	17,472	-0,015301
2,751968	196,764968	17,522	-0,015344
2,751991	196,833597	17,572	-0,015314
2,752030	196,749217	17,622	-0,015351
2,751996	196,574831	17,672	-0,015427
2,752044	196,399320	17,722	-0,015503
2,752016	196,445448	17,773	-0,015483
2,752011	196,582706	17,823	-0,015423
2,751997	196,292438	17,874	-0,015549
2,752011	196,651336	17,924	-0,015394
2,749998	196,201307	17,974	-0,015589
2,748014	194,920975	18,024	-0,016145
2,746003	193,434755	18,075	-0,016790
2,743997	192,070042	18,126	-0,017382
2,741989	189,563382	18,176	-0,018470
2,739986	188,793833	18,226	-0,018804
2,738018	186,201667	18,276	-0,019929
2,735960	186,621319	18,326	-0,019747
2,733983	183,808639	18,376	-0,020967
2,731989	182,734195	18,426	-0,021434
2,730043	182,360671	18,477	-0,021596
2,727971	180,021646	18,527	-0,022611
2,726043	178,299161	18,577	-0,023358
2,724009	176,987327	18,627	-0,023928
2,722042	176,690308	18,677	-0,024057
2,720014	174,450290	18,728	-0,025029
2,718021	173,810124	18,779	-0,025307
2,715988	171,607233	18,829	-0,026263
2,714063	170,692549	18,879	-0,026660
2,711953	167,911371	18,930	-0,027867
2,709977	167,980001	18,980	-0,027837
2,707971	166,478030	19,030	-0,028489
2,706034	165,456464	19,081	-0,028932
2,704009	163,719353	19,131	-0,029686
2,702003	161,280197	19,182	-0,030745
2,699984	160,815542	19,232	-0,030946
2,697994	159,543086	19,282	-0,031499
2,695986	158,140121	19,333	-0,032107
2,693996	156,144243	19,383	-0,032974
2,692010	153,705087	19,434	-0,034032
2,689966	153,598205	19,485	-0,034079
2,687990	150,908158	19,536	-0,035246
2,685978	150,740522	19,586	-0,035319
2,684022	149,444439	19,636	-0,035881
2,682010	148,034724	19,686	-0,036493
2,680011	146,487750	19,736	-0,037165
2,678020	144,613380	19,786	-0,037978
2,676010	142,685007	19,836	-0,038815
2,674010	141,655566	19,887	-0,039262
2,672000	141,107656	19,937	-0,039500
2,669978	138,050835	19,987	-0,040826
2,668035	136,748002	20,038	-0,041392
2,666022	137,052896	20,089	-0,041259
2,664019	134,118709	20,139	-0,042533
2,662032	133,440290	20,190	-0,042827
2,660013	132,495230	20,248	-0,043237
2,658026	129,613920	20,298	-0,044488
2,656033	129,545291	20,349	-0,044518
2,654004	128,143451	20,399	-0,045126
2,652016	126,505346	20,449	-0,045837
2,649989	125,399401	20,499	-0,046317
2,647991	123,197635	20,550	-0,047272
2,646020	122,457337	20,600	-0,047594
2,643982	120,903613	20,650	-0,048268
2,642015	119,668284	20,747	-0,048804
2,640060	118,304697	20,798	-0,049396
2,638024	115,340132	20,849	-0,050683
2,636010	115,278253	20,899	-0,050709
2,634066	113,609771	20,949	-0,051434
2,632024	112,404819	21,000	-0,051957
2,630015	109,508884	21,050	-0,053213
2,628038	109,791277	21,100	-0,053091
2,625995	106,941469	21,150	-0,054328
2,624001	105,607134	21,200	-0,054907
2,622025	105,629635	21,250	-0,054897
2,619978	102,627943	21,301	-0,056200
2,618017	102,147537	21,362	-0,056408
2,616031	99,617251	21,413	-0,057506
2,614067	99,037838	21,464	-0,057758
2,612015	96,766318	21,514	-0,058744
2,610023	96,392794	21,564	-0,058906
2,607988	94,098772	21,614	-0,059901
2,606005	93,557613	21,665	-0,060136
2,604035	91,279342	21,716	-0,061125
2,602064	91,027326	21,766	-0,061234
2,599998	88,161767	21,816	-0,062478
2,598003	88,108889	21,866	-0,062501
2,596001	85,556101	21,916	-0,063609
2,594033	85,075695	21,967	-0,063817
2,592027	82,705168	22,018	-0,064846
2,590039	82,423900	22,068	-0,064968
2,587985	79,992620	22,118	-0,066023
2,586044	79,732728	22,178	-0,066136
2,584026	78,025994	22,229	-0,066877
2,582020	76,699534	22,280	-0,067453
2,580060	75,481081	22,330	-0,067981
2,578032	73,041925	22,380	-0,069040
2,575967	72,477139	22,430	-0,069285
2,574018	72,477139	22,480	-0,069285
2,572011	69,802842	22,530	-0,070446
2,570017	66,944034	22,581	-0,071687
2,568041	65,869591	22,631	-0,072153
2,566013	64,399122	22,681	-0,072791
2,564076	64,201109	22,731	-0,072877
2,562022	61,670822	22,781	-0,073975
2,560027	61,464934	22,831	-0,074064
2,558004	58,805264	22,882	-0,075219
2,556060	58,294481	22,933	-0,075440
2,554039	55,901453	22,983	-0,076479
2,552003	55,451424	23,034	-0,076674
2,550032	53,165278	23,084	-0,077667
2,548013	52,441856	23,134	-0,077980
2,546025	51,123272	23,184	-0,078553
2,544018	49,713557	23,234	-0,079165
2,542033	48,348844	23,284	-0,079757
2,540005	46,527353	23,334	-0,080547
2,538067	45,551915	23,385	-0,080971
2,536050	43,653919	23,436	-0,081794
2,534045	42,137322	23,487	-0,082453
2,532058	39,866926	23,537	-0,083438
2,530087	39,683540	23,587	-0,083518
2,528044	36,947365	23,637	-0,084705
2,526029	37,076748	23,687	-0,084649
2,524034	34,158311	23,737	-0,085916
2,522048	33,647528	23,788	-0,086137
2,520005	32,458327	23,838	-0,086653
2,518024	30,972107	23,888	-0,087298
2,516030	29,974168	23,938	-0,087731
2,514028	28,160552	23,988	-0,088519
2,512054	27,245869	24,038	-0,088916
2,510024	25,469380	24,088	-0,089687
2,508080	22,954844	24,138	-0,090778
2,506041	21,072599	24,188	-0,091595
2,504056	20,111787	24,238	-0,092012
2,502010	20,424557	24,288	-0,091876
2,500052	17,025715	24,339	-0,093351
2,498028	16,781574	24,389	-0,093457
2,495987	14,457175	24,439	-0,094466
2,494024	14,265913	24,489	-0,094549
2,492031	11,393604	24,541	-0,095795
2,489979	11,233844	24,591	-0,095865
2,488046	9,533860	24,642	-0,096603
2,486009	8,238902	24,693	-0,097165
2,484010	6,439912	24,743	-0,097945
2,482027	5,951631	24,793	-0,098157
2,480032	3,734114	24,843	-0,099120
2,478012	3,954628	24,894	-0,099024
2,476011	4,374280	24,947	-0,098842
2,474032	3,978255	24,998	-0,099014
2,472013	4,198769	25,062	-0,098918
2,470069	3,734114	25,112	-0,099120
2,467971	3,093948	25,162	-0,099397
2,466036	2,537037	25,212	-0,099639
2,464014	2,057757	25,263	-0,099847
2,462040	1,234204	25,322	-0,100205
2,460033	1,393964	25,372	-0,100135
2,458051	-0,153010	25,422	-0,100807
2,455988	-0,815677	25,472	-0,101094
2,453994	-0,815677	25,523	-0,101094
2,451960	-1,776489	25,573	-0,101511
2,450062	-1,249955	25,623	-0,101283
2,448003	-2,324399	25,673	-0,101749
2,445987	-2,301897	25,724	-0,101739
2,443960	-3,186204	25,776	-0,102123
2,441971	-2,782303	25,826	-0,101948
2,440026	-4,549791	25,876	-0,102715
2,437975	-4,337153	25,927	-0,102623
2,436033	-5,457724	25,978	-0,103109
2,434015	-4,618421	26,028	-0,102745
2,432003	-6,447788	26,078	-0,103539
2,429963	-5,389095	26,129	-0,103079
2,428015	-5,312590	26,179	-0,103046
2,426019	-6,082139	26,253	-0,103380
2,424007	-5,647861	26,304	-0,103191
2,422001	-6,387034	26,354	-0,103512
2,420024	-6,303778	26,405	-0,103476
2,418023	-7,423225	26,456	-0,103962
2,416008	-6,653676	26,507	-0,103628
2,414020	-7,705618	26,559	-0,104084
2,412087	-7,453602	26,619	-0,103975
2,410058	-8,139896	26,669	-0,104273
2,408055	-9,084956	26,719	-0,104683
2,406012	-8,802563	26,769	-0,104561
2,404031	-9,145710	26,820	-0,104709
2,402022	-9,473106	26,871	-0,104852
2,400090	-10,167276	26,922	-0,105153
2,398046	-10,685934	26,972	-0,105378
2,395993	-10,982953	27,022	-0,105507
2,393998	-11,195592	27,087	-0,105599
2,391997	-11,835757	27,138	-0,105877
2,389988	-11,394729	27,188	-0,105686
2,388033	-11,463359	27,238	-0,105715
2,386011	-11,295723	27,289	-0,105643
2,384053	-11,195592	27,340	-0,105599
2,382046	-11,524113	27,390	-0,105742
2,380050	-11,561240	27,466	-0,105758
2,378009	-11,272096	27,516	-0,105632
2,376051	-11,074084	27,567	-0,105546
2,374009	-10,845694	27,617	-0,105447
2,372039	-9,999640	27,668	-0,105080
2,370025	-10,068269	27,718	-0,105110
2,368035	-10,319160	27,769	-0,105219
2,366035	-9,549611	27,819	-0,104885
2,363975	-9,587864	27,872	-0,104901
2,362028	-9,305471	27,922	-0,104779
2,360041	-9,145710	27,972	-0,104709
2,358029	-9,176087	28,022	-0,104723
2,355988	-8,955573	28,072	-0,104627
2,354034	-8,856567	28,122	-0,104584
2,351979	-8,871193	28,173	-0,104590
2,349982	-8,727184	28,223	-0,104528
2,348044	-8,765436	28,274	-0,104544
2,346026	-8,665305	28,324	-0,104501
2,344043	-8,376161	28,375	-0,104375
2,342077	-8,223151	28,425	-0,104309
2,339994	-8,087018	28,475	-0,104250
2,338066	-7,789999	28,525	-0,104121
2,336025	-7,491854	28,576	-0,103992
2,333994	-7,186960	28,626	-0,103859
2,332035	-7,073328	28,676	-0,103810
2,330002	-7,057577	28,726	-0,103803
2,328008	-6,676177	28,776	-0,103638
2,325960	-6,463539	28,826	-0,103545
2,324045	-6,439912	28,876	-0,103535
2,322040	-6,478165	28,927	-0,103552
2,319981	-6,280152	28,977	-0,103466
2,317977	-5,754743	29,027	-0,103238
2,316047	-5,861625	29,077	-0,103284
2,314073	-6,097890	29,127	-0,103387
2,312016	-6,173270	29,177	-0,103419
2,310012	-5,502727	29,227	-0,103128
2,308026	-5,686114	29,278	-0,103208
2,306033	-5,335091	29,328	-0,103056
2,304054	-5,320466	29,378	-0,103049
2,302080	-5,282213	29,428	-0,103033
2,300054	-3,513600	29,478	-0,102265
2,297991	-3,079322	29,528	-0,102077
2,296031	-3,140076	29,578	-0,102103
2,294047	-2,798054	29,628	-0,101955
2,292022	-2,820556	29,680	-0,101964
2,289994	-2,645044	29,730	-0,101888
2,288019	-2,454907	29,780	-0,101806
2,285985	-2,576415	29,849	-0,101858
2,284057	-2,180390	29,899	-0,101687
2,282019	-2,188265	29,949	-0,101690
2,280048	-1,722485	29,999	-0,101488
2,278050	-1,578476	30,050	-0,101425
2,276019	-2,096009	30,101	-0,101650
2,274026	-1,387214	30,151	-0,101342
2,272028	-1,364712	30,202	-0,101333
2,270020	-1,653856	30,252	-0,101458
2,268034	-1,144198	30,302	-0,101237
2,266045	-1,235329	30,356	-0,101276
2,264041	-1,082319	30,406	-0,101210
2,262010	-0,952936	30,456	-0,101154
2,260056	-0,724546	30,506	-0,101055
2,258038	-0,488281	30,578	-0,100952
2,256009	-0,587288	30,628	-0,100995
2,254067	-0,655917	30,678	-0,101025
2,252044	-0,465780	30,729	-0,100942