File: Nanoindentation Datenauswertung/data/PDMS/AR-PDMS-125-10-125-2,5um-diff_LF-5x5-1
Quasi static measurement routine
Tip parameters (shape,radius, material...)
26.08.2022

Piezo position[nm]	MEMS displ.[nm]	Time[ms]	Cap [pf]	Temp [°C]	Rh [%]
eoh

X-Pos [um]	Y-Pos [um]
0,000000	0,000000

POC
2,279980
1,581955	0,290760	0,241	-0,135298	22,650000	54,920000
1,585989	0,555757	0,441	-0,135193	22,650000	54,920000
1,590006	0,306709	0,643	-0,135292	22,650000	54,920000
1,593932	0,257636	0,845	-0,135312	22,650000	54,920000
1,597985	0,282173	1,046	-0,135302	22,650000	54,920000
1,602004	0,407310	1,247	-0,135252	22,650000	54,920000
1,605991	0,407310	1,447	-0,135252	22,650000	54,920000
1,609965	0,273585	1,647	-0,135305	22,650000	54,920000
1,613903	0,249048	1,847	-0,135315	22,650000	54,920000
1,617985	0,473559	2,047	-0,135226	22,650000	54,920000
1,621995	0,123911	2,247	-0,135365	22,650000	54,920000
1,625986	0,323885	2,447	-0,135285	22,650000	54,920000
1,629979	0,423259	2,647	-0,135246	22,650000	54,920000
1,633951	0,240460	2,847	-0,135318	22,650000	54,920000
1,638014	0,198748	3,047	-0,135335	22,650000	54,920000
1,641974	0,141086	3,247	-0,135358	22,650000	54,920000
1,645998	0,323885	3,448	-0,135285	22,650000	54,920000
1,649975	0,298121	3,649	-0,135295	22,650000	54,920000
1,653940	0,381546	3,849	-0,135262	22,670000	54,920000
1,657957	0,190160	4,049	-0,135338	22,670000	54,920000
1,661967	0,290760	4,249	-0,135298	22,670000	54,920000
1,666073	0,224511	4,450	-0,135325	22,670000	54,920000
1,669997	0,000000	4,650	-0,135414	22,670000	54,920000
1,673984	0,306709	4,851	-0,135292	22,670000	54,920000
1,677941	0,282173	5,051	-0,135302	22,670000	54,920000
1,681988	0,306709	5,252	-0,135292	22,670000	54,920000
1,685963	0,282173	5,453	-0,135302	22,670000	54,920000
1,690020	0,057661	5,653	-0,135391	22,670000	54,920000
1,693984	0,323885	5,854	-0,135285	22,670000	54,880000
1,697968	0,107962	6,056	-0,135371	22,670000	54,880000
1,701966	-0,182799	6,257	-0,135487	22,670000	54,880000
1,706008	0,099374	6,457	-0,135375	22,670000	54,880000
1,709949	0,007361	6,657	-0,135411	22,670000	54,880000
1,713964	0,190160	6,857	-0,135338	22,670000	54,880000
1,717992	0,306709	7,058	-0,135292	22,670000	54,880000
1,721954	0,082198	7,259	-0,135381	22,670000	54,880000
1,725994	0,207336	7,460	-0,135332	22,670000	54,880000
1,729958	0,141086	7,660	-0,135358	22,670000	54,880000
1,733976	0,249048	7,860	-0,135315	22,670000	54,880000
1,737975	0,000000	8,060	-0,135414	22,670000	54,880000
1,741911	0,157035	8,260	-0,135352	22,670000	54,880000
1,745984	0,115323	8,460	-0,135368	22,670000	54,880000
1,749934	0,115323	8,660	-0,135368	22,670000	54,880000
1,754001	0,231872	8,860	-0,135322	22,670000	54,880000
1,757959	0,198748	9,060	-0,135335	22,670000	54,880000
1,761957	0,266224	9,261	-0,135308	22,670000	54,880000
1,765996	0,090786	9,461	-0,135378	22,670000	54,880000
1,769939	0,240460	9,663	-0,135318	22,670000	54,880000
1,773953	0,190160	9,863	-0,135338	22,650000	54,890000
1,777943	0,082198	10,063	-0,135381	22,650000	54,890000
1,781977	0,107962	10,263	-0,135371	22,650000	54,890000
1,785988	0,007361	10,464	-0,135411	22,650000	54,890000
1,789998	0,066249	10,665	-0,135388	22,650000	54,890000
1,793924	0,141086	10,866	-0,135358	22,650000	54,890000
1,797927	0,066249	11,066	-0,135388	22,650000	54,890000
1,801957	0,066249	11,268	-0,135388	22,650000	54,890000
1,805967	0,115323	11,468	-0,135368	22,650000	54,890000
1,809949	0,141086	11,668	-0,135358	22,650000	54,890000
1,813928	0,190160	11,868	-0,135338	22,650000	54,890000
1,817907	0,024537	12,068	-0,135404	22,650000	54,890000
1,821970	0,398722	12,268	-0,135255	22,650000	54,890000
1,825951	0,231872	12,468	-0,135322	22,650000	54,890000
1,829976	0,007361	12,669	-0,135411	22,650000	54,890000
1,833915	-0,033125	12,869	-0,135427	22,650000	54,890000
1,837988	-0,100601	13,069	-0,135454	22,650000	54,890000
1,841953	-0,166850	13,269	-0,135480	22,650000	54,890000
1,845993	0,372959	13,470	-0,135266	22,650000	54,890000
1,849960	0,257636	13,670	-0,135312	22,650000	54,890000
1,853961	0,157035	13,870	-0,135352	22,660000	54,920000
1,857969	-0,142313	14,071	-0,135471	22,660000	54,920000
1,861930	0,024537	14,271	-0,135404	22,660000	54,920000
1,865948	0,073610	14,472	-0,135385	22,660000	54,920000
1,869986	0,000000	14,673	-0,135414	22,660000	54,920000
1,874006	-0,033125	14,873	-0,135427	22,660000	54,920000
1,877960	-0,116550	15,074	-0,135460	22,660000	54,920000
1,881980	-0,125137	15,275	-0,135464	22,660000	54,920000
1,885913	-0,349649	15,476	-0,135553	22,660000	54,920000
1,889929	-0,092013	15,676	-0,135451	22,660000	54,920000
1,893895	0,024537	15,876	-0,135404	22,660000	54,920000
1,897991	-0,133725	16,076	-0,135467	22,660000	54,920000
1,901917	-0,274812	16,276	-0,135523	22,660000	54,920000
1,905933	-0,149674	16,476	-0,135474	22,660000	54,920000
1,909933	-0,008588	16,677	-0,135417	22,660000	54,920000
1,913968	-0,257636	16,878	-0,135517	22,660000	54,920000
1,917985	-0,175438	17,078	-0,135484	22,660000	54,920000
1,921992	-0,149674	17,279	-0,135474	22,660000	54,920000
1,925881	-0,149674	17,479	-0,135474	22,660000	54,920000
1,929944	-0,166850	17,681	-0,135480	22,660000	54,920000
1,933947	-0,415898	17,882	-0,135580	22,660000	54,905000
1,937934	-0,250275	18,083	-0,135514	22,660000	54,905000
1,941938	-0,175438	18,283	-0,135484	22,660000	54,905000
1,945956	-0,182799	18,483	-0,135487	22,660000	54,905000
1,949969	-0,175438	18,684	-0,135484	22,660000	54,905000
1,953937	-0,116550	18,886	-0,135460	22,660000	54,905000
1,957976	-0,083425	19,086	-0,135447	22,660000	54,905000
1,961926	-0,233099	19,286	-0,135507	22,660000	54,905000
1,965971	-0,182799	19,487	-0,135487	22,660000	54,905000
1,969945	-0,283399	19,687	-0,135527	22,660000	54,905000
1,974040	-0,033125	19,888	-0,135427	22,660000	54,920000
1,977947	-0,507911	20,088	-0,135616	22,660000	54,920000
1,981932	-0,067476	20,288	-0,135441	22,660000	54,920000
1,985990	-0,274812	20,490	-0,135523	22,660000	54,920000
1,989968	-0,391361	20,690	-0,135570	22,660000	54,920000
1,993982	-0,482147	20,891	-0,135606	22,660000	54,920000
1,997960	-0,307936	21,091	-0,135537	22,660000	54,920000
2,001960	-0,332473	21,291	-0,135546	22,660000	54,920000
2,005911	-0,440435	21,493	-0,135589	22,660000	54,920000
2,009937	-0,532447	21,693	-0,135626	22,660000	54,920000
2,013952	-0,798671	21,894	-0,135732	22,660000	54,920000
2,017953	-0,732422	22,095	-0,135706	22,660000	54,920000
2,021977	-0,433074	22,296	-0,135586	22,660000	54,920000
2,025953	-0,623233	22,496	-0,135662	22,660000	54,920000
2,029927	-0,449022	22,697	-0,135593	22,660000	54,920000
2,033956	-0,664946	22,897	-0,135679	22,660000	54,920000
2,037938	-0,582748	23,098	-0,135646	22,660000	54,920000
2,041969	-0,457610	23,298	-0,135596	22,660000	54,920000
2,045978	-0,466198	23,498	-0,135600	22,660000	54,920000
2,049921	-0,648997	23,699	-0,135672	22,660000	54,920000
2,053877	-0,715246	23,900	-0,135699	22,660000	54,920000
2,057971	-0,598697	24,101	-0,135652	22,660000	54,920000
2,061893	-0,814620	24,302	-0,135738	22,660000	54,920000
2,065946	-0,698070	24,502	-0,135692	22,660000	54,920000
2,069931	-0,706658	24,703	-0,135695	22,660000	54,920000
2,073939	-0,990058	24,903	-0,135808	22,660000	54,920000
2,077943	-0,906633	25,103	-0,135775	22,660000	54,920000
2,081953	-0,790083	25,303	-0,135729	22,660000	54,920000
2,085956	-1,263642	25,503	-0,135917	22,660000	54,920000
2,089927	-0,922582	25,703	-0,135781	22,660000	54,920000
2,093956	-70,025420	25,903	-0,163284	22,660000	54,930000
2,097927	-69,120014	26,104	-0,162924	22,660000	54,930000
2,101966	-67,823247	26,305	-0,162408	22,660000	54,930000
2,106008	-66,535068	26,505	-0,161895	22,660000	54,930000
2,109914	-65,138927	26,705	-0,161339	22,660000	54,930000
2,113918	-63,718249	26,906	-0,160774	22,660000	54,930000
2,117974	-61,690287	27,106	-0,159967	22,660000	54,930000
2,121941	-60,027923	27,307	-0,159305	22,660000	54,930000
2,125925	-59,288140	27,507	-0,159011	22,660000	54,930000
2,129930	-57,900587	27,708	-0,158458	22,660000	54,930000
2,133951	-56,629583	27,909	-0,157953	22,650000	54,930000
2,137956	-55,623577	28,109	-0,157552	22,650000	54,930000
2,141976	-54,683819	28,309	-0,157178	22,650000	54,930000
2,145989	-53,155180	28,509	-0,156570	22,650000	54,930000
2,149939	-51,858413	28,709	-0,156054	22,650000	54,930000
2,153916	-50,030426	28,909	-0,155326	22,650000	54,930000
2,157879	-48,451486	29,109	-0,154698	22,650000	54,930000
2,161925	-47,312981	29,310	-0,154245	22,650000	54,930000
2,165927	-45,118169	29,510	-0,153371	22,650000	54,930000
2,169929	-43,946539	29,710	-0,152905	22,650000	54,930000
2,173907	-41,429069	29,911	-0,151903	22,660000	54,975000
2,177909	-40,539612	30,111	-0,151549	22,660000	54,975000
2,181946	-39,458768	30,311	-0,151119	22,660000	54,975000
2,185875	-37,157222	30,512	-0,150203	22,660000	54,975000
2,189959	-36,276352	30,713	-0,149852	22,660000	54,975000
2,193937	-34,331815	30,913	-0,149078	22,660000	54,975000
2,197935	-32,878013	31,114	-0,148500	22,660000	54,975000
2,201936	-31,223010	31,315	-0,147841	22,660000	54,975000
2,205958	-29,553284	31,515	-0,147176	22,660000	54,975000
2,209907	-28,049181	31,716	-0,146578	22,660000	54,975000
2,213937	-25,123174	31,916	-0,145413	22,670000	54,945000
2,217924	-24,940376	32,116	-0,145340	22,670000	54,945000
2,221916	-22,837577	32,316	-0,144503	22,670000	54,945000
2,225987	-20,743365	32,517	-0,143670	22,670000	54,945000
2,229955	-18,558368	32,717	-0,142800	22,670000	54,945000
2,233944	-17,494700	32,919	-0,142377	22,670000	54,945000
2,237932	-16,023722	33,120	-0,141792	22,670000	54,945000
2,241919	-15,175978	33,321	-0,141454	22,670000	54,945000
2,245926	-13,696412	33,521	-0,140865	22,670000	54,945000
2,249976	-12,009510	33,721	-0,140194	22,670000	54,945000
2,253932	-9,457689	33,923	-0,139178	22,650000	54,945000
2,257874	-7,380653	34,125	-0,138352	22,650000	54,945000
2,261958	-6,757420	34,325	-0,138104	22,650000	54,945000
2,266000	-4,388397	34,526	-0,137161	22,650000	54,945000
2,269955	-3,175055	34,727	-0,136678	22,650000	54,945000
2,273922	-1,396141	34,929	-0,135970	22,650000	54,945000
2,277934	0,482147	35,130	-0,135222	22,650000	54,945000
2,281958	3,356627	35,331	-0,134078	22,650000	54,945000
2,285964	3,930787	35,531	-0,133850	22,650000	54,945000
2,289904	5,600512	35,731	-0,133185	22,650000	54,945000
2,293882	7,354890	35,931	-0,132487	22,660000	54,945000
2,297936	9,282251	36,132	-0,131720	22,660000	54,945000
2,301879	11,177715	36,334	-0,130965	22,660000	54,945000
2,305979	13,437549	36,535	-0,130066	22,660000	54,945000
2,309960	15,848284	36,736	-0,129106	22,660000	54,945000
2,313926	16,438393	36,936	-0,128872	22,660000	54,945000
2,317962	18,266381	37,136	-0,128144	22,660000	54,945000
2,321936	21,316298	37,338	-0,126930	22,660000	54,945000
2,325973	23,011787	37,538	-0,126255	22,660000	54,945000
2,329916	25,039750	37,738	-0,125448	22,660000	54,945000
2,334003	26,801488	37,938	-0,124747	22,660000	54,945000
2,337922	27,365833	38,138	-0,124522	22,660000	54,945000
2,341958	29,444095	38,338	-0,123695	22,660000	54,945000
2,345943	31,762818	38,538	-0,122772	22,660000	54,945000
2,349898	34,057004	38,739	-0,121859	22,660000	54,945000
2,353932	35,660480	38,940	-0,121221	22,660000	54,945000
2,357952	36,633362	39,142	-0,120834	22,660000	54,945000
2,361945	38,219663	39,342	-0,120203	22,660000	54,945000
2,365950	40,696647	39,543	-0,119217	22,660000	54,945000
2,369942	41,851101	39,743	-0,118757	22,660000	54,945000
2,373923	43,796865	39,944	-0,117983	22,680000	54,935000
2,377939	45,774527	40,145	-0,117196	22,680000	54,935000
2,381901	47,236917	40,345	-0,116614	22,680000	54,935000
2,385984	49,414553	40,545	-0,115747	22,680000	54,935000
2,389981	51,092867	40,746	-0,115079	22,680000	54,935000
2,393931	53,037404	40,946	-0,114305	22,680000	54,935000
2,397935	54,649468	41,146	-0,113664	22,680000	54,935000
2,401959	56,012484	41,347	-0,113121	22,680000	54,935000
2,405921	57,991373	41,547	-0,112333	22,680000	54,935000
2,409956	60,940690	41,748	-0,111160	22,680000	54,935000
2,413933	61,497674	41,949	-0,110938	22,660000	54,920000
2,417900	63,375962	42,149	-0,110190	22,660000	54,920000
2,421935	64,980665	42,351	-0,109552	22,660000	54,920000
2,425884	67,332512	42,551	-0,108616	22,660000	54,920000
2,429947	69,077075	42,751	-0,107921	22,660000	54,920000
2,433991	70,572590	42,951	-0,107326	22,660000	54,920000
2,437956	72,376040	43,153	-0,106608	22,660000	54,920000
2,441982	75,302047	43,353	-0,105444	22,660000	54,920000
2,445911	49,198630	43,555	-0,115833	22,660000	54,920000
2,449961	49,098029	43,756	-0,115873	22,660000	54,920000
2,453919	50,784931	43,957	-0,115202	22,650000	54,930000
2,457929	50,993493	44,157	-0,115119	22,650000	54,930000
2,461940	46,530259	44,357	-0,116895	22,650000	54,930000
2,465901	46,439473	44,557	-0,116931	22,650000	54,930000
2,469963	47,968112	44,757	-0,116323	22,650000	54,930000
2,473930	49,247703	44,958	-0,115813	22,650000	54,930000
2,477957	51,233953	45,158	-0,115023	22,650000	54,930000
2,479931	51,757813	45,360	-0,114814	22,650000	54,930000
2,479943	50,784931	45,560	-0,115202	22,650000	54,930000
2,479961	50,577595	45,761	-0,115284	22,650000	54,930000
2,479955	49,614528	45,961	-0,115667	22,650000	54,930000
2,479962	49,007243	46,161	-0,115909	22,650000	54,930000
2,479884	48,799908	46,361	-0,115992	22,650000	54,930000
2,479872	47,710476	46,562	-0,116425	22,650000	54,930000
2,479888	47,811077	46,764	-0,116385	22,650000	54,930000
2,479948	47,494553	46,965	-0,116511	22,650000	54,930000
2,479952	47,270042	47,166	-0,116601	22,650000	54,930000
2,479894	46,987869	47,366	-0,116713	22,650000	54,930000
2,479918	46,589147	47,566	-0,116872	22,650000	54,930000
2,479892	46,705696	47,766	-0,116825	22,650000	54,930000
2,479883	46,272623	47,966	-0,116998	22,670000	54,905000
2,479932	46,297160	48,167	-0,116988	22,670000	54,905000
2,479950	46,289799	48,367	-0,116991	22,670000	54,905000
2,479941	45,824827	48,567	-0,117176	22,670000	54,905000
2,479967	46,164661	48,767	-0,117041	22,670000	54,905000
2,479895	46,331511	48,967	-0,116974	22,670000	54,905000
2,479924	45,915613	49,168	-0,117140	22,670000	54,905000
2,479858	45,499715	49,369	-0,117305	22,670000	54,905000
2,479895	45,550016	49,569	-0,117285	22,670000	54,905000
2,479947	45,375805	49,769	-0,117354	22,670000	54,905000
2,479893	45,233492	49,969	-0,117411	22,670000	54,905000
2,479915	45,466591	50,169	-0,117318	22,670000	54,905000
2,479954	45,316917	50,369	-0,117378	22,670000	54,905000
2,479904	44,851945	50,569	-0,117563	22,670000	54,905000
2,479874	45,017568	50,769	-0,117497	22,670000	54,905000
2,479935	44,759932	50,969	-0,117600	22,670000	54,905000
2,479910	45,275204	51,170	-0,117395	22,670000	54,905000
2,479867	44,818821	51,370	-0,117576	22,670000	54,905000
2,479944	44,594309	51,570	-0,117666	22,670000	54,905000
2,479946	44,827409	51,771	-0,117573	22,670000	54,905000
2,479940	44,428686	51,971	-0,117731	22,660000	54,880000
2,479973	44,510885	52,171	-0,117699	22,660000	54,880000
2,479927	44,726808	52,371	-0,117613	22,660000	54,880000
2,479913	44,768520	52,571	-0,117596	22,660000	54,880000
2,479939	44,402923	52,771	-0,117742	22,660000	54,880000
2,479961	44,336674	52,971	-0,117768	22,660000	54,880000
2,479951	44,129338	53,172	-0,117851	22,660000	54,880000
2,479913	44,245888	53,372	-0,117804	22,660000	54,880000
2,479886	44,361210	53,573	-0,117758	22,660000	54,880000
2,479863	44,319498	53,774	-0,117775	22,660000	54,880000
2,479928	44,037325	53,974	-0,117887	22,660000	54,930000
2,479921	44,294961	54,174	-0,117785	22,660000	54,930000
2,479937	44,195587	54,375	-0,117824	22,660000	54,930000
2,479913	43,854527	54,576	-0,117960	22,660000	54,930000
2,479943	43,779689	54,777	-0,117990	22,660000	54,930000
2,479935	43,962488	54,977	-0,117917	22,660000	54,930000
2,479904	43,688904	55,177	-0,118026	22,660000	54,930000
2,477912	43,788277	55,378	-0,117986	22,660000	54,930000
2,473935	41,170207	55,578	-0,119028	22,660000	54,930000
2,469873	37,605017	55,778	-0,120447	22,660000	54,930000
2,465882	35,876404	55,979	-0,121135	22,660000	54,930000
2,461886	33,033821	56,179	-0,122267	22,660000	54,930000
2,457916	29,019610	56,381	-0,123864	22,660000	54,930000
2,453945	26,735239	56,581	-0,124773	22,660000	54,930000
2,449943	24,042331	56,782	-0,125845	22,660000	54,930000
2,445927	22,745564	56,983	-0,126361	22,660000	54,930000
2,441904	20,376541	57,183	-0,127304	22,660000	54,930000
2,437915	17,584259	57,383	-0,128416	22,660000	54,930000
2,433953	15,524399	57,583	-0,129235	22,660000	54,930000
2,429892	12,913690	57,785	-0,130274	22,660000	54,930000
2,425891	8,941190	57,986	-0,131855	22,670000	54,920000
2,421888	6,780730	58,187	-0,132715	22,670000	54,920000
2,417949	4,487771	58,387	-0,133628	22,670000	54,920000
2,413913	2,285598	58,588	-0,134504	22,670000	54,920000
2,409888	0,588882	58,788	-0,135180	22,670000	54,920000
2,405915	-1,895464	58,989	-0,136168	22,670000	54,920000
2,401909	-4,205598	59,190	-0,137088	22,670000	54,920000
2,397885	-6,905867	59,390	-0,138163	22,670000	54,920000
2,393960	-9,782801	59,592	-0,139308	22,670000	54,920000
2,389940	-11,494239	59,793	-0,139989	22,670000	54,920000
2,385873	-13,255977	59,993	-0,140690	22,650000	54,930000
2,381908	-15,948885	60,193	-0,141762	22,650000	54,930000
2,377912	-18,607442	60,393	-0,142820	22,650000	54,930000
2,373882	-20,461193	60,594	-0,143558	22,650000	54,930000
2,369925	-23,511110	60,795	-0,144771	22,650000	54,930000
2,365858	-24,973500	60,996	-0,145354	22,650000	54,930000
2,361999	-28,573041	61,197	-0,146786	22,650000	54,930000
2,357881	-31,024262	61,397	-0,147762	22,650000	54,930000
2,353936	-33,052224	61,597	-0,148569	22,650000	54,930000
2,349952	-35,653119	61,797	-0,149604	22,650000	54,930000
2,345935	-36,334014	61,999	-0,149875	22,650000	54,930000
2,341903	-38,478525	62,200	-0,150729	22,650000	54,930000
2,337929	-40,664750	62,401	-0,151599	22,650000	54,930000
2,333857	-43,373606	62,603	-0,152677	22,650000	54,930000
2,329917	-46,315562	62,803	-0,153848	22,650000	54,930000
2,325940	-48,634285	63,003	-0,154771	22,650000	54,930000
2,321863	-50,886758	63,203	-0,155667	22,650000	54,930000
2,317891	-51,783576	63,403	-0,156024	22,650000	54,930000
2,313936	-53,828714	63,603	-0,156838	22,650000	54,930000
2,309913	-56,138849	63,803	-0,157757	22,650000	54,930000
2,305872	-58,781456	64,004	-0,158809	22,660000	54,890000
2,301915	-60,186185	64,204	-0,159368	22,660000	54,890000
2,297883	-63,467975	64,404	-0,160674	22,660000	54,890000
2,293967	-65,513112	64,606	-0,161488	22,660000	54,890000
2,289978	-67,582787	64,806	-0,162312	22,660000	54,890000
2,285922	-68,812078	65,006	-0,162801	22,660000	54,890000
2,281934	-71,637484	65,206	-0,163926	22,660000	54,890000
2,277914	-72,958788	65,406	-0,164452	22,660000	54,890000
2,273919	-76,333818	65,606	-0,165795	22,660000	54,890000
2,269965	-78,252591	65,806	-0,166559	22,660000	54,890000
2,265918	-80,231480	66,006	-0,167346	22,660000	54,890000
2,261916	-82,026343	66,206	-0,168061	22,660000	54,890000
2,257970	-83,339059	66,406	-0,168583	22,660000	54,890000
2,253892	-86,164465	66,606	-0,169708	22,660000	54,890000
2,249952	-87,361858	66,807	-0,170184	22,660000	54,890000
2,245941	-89,962753	67,007	-0,171219	22,660000	54,890000
2,241946	-91,642293	67,208	-0,171888	22,660000	54,890000
2,237874	-93,204057	67,408	-0,172509	22,660000	54,890000
2,233966	-95,597617	67,608	-0,173462	22,660000	54,890000
2,229947	-97,035470	67,808	-0,174034	22,660000	54,890000
2,225935	-98,755496	68,008	-0,174719	22,660000	54,880000
2,221876	-100,127100	68,210	-0,175265	22,660000	54,880000
2,217923	-101,888839	68,410	-0,175966	22,660000	54,880000
2,213892	-103,085005	68,611	-0,176442	22,660000	54,880000
2,209938	-104,531446	68,813	-0,177018	22,660000	54,880000
2,205895	-106,617070	69,014	-0,177848	22,660000	54,880000
2,201900	-106,933594	69,215	-0,177974	22,660000	54,880000
2,197892	-107,356853	69,416	-0,178142	22,660000	54,880000
2,193972	-106,874706	69,616	-0,177950	22,660000	54,880000
2,189913	-108,021798	69,816	-0,178407	22,660000	54,880000
2,185913	-109,252316	70,016	-0,178896	22,660000	54,920000
2,181910	-112,493620	70,216	-0,180187	22,660000	54,920000
2,177904	-114,213646	70,416	-0,180871	22,660000	54,920000
2,173957	-115,909136	70,617	-0,181546	22,660000	54,920000
2,169928	-117,578861	70,817	-0,182210	22,660000	54,920000
2,165948	-119,141852	71,017	-0,182833	22,660000	54,920000
2,161925	-119,747909	71,217	-0,183074	22,660000	54,920000
2,157931	-121,559948	71,417	-0,183795	22,660000	54,920000
2,153867	-123,529022	71,618	-0,184579	22,660000	54,920000
2,149923	-126,396141	71,818	-0,185720	22,650000	54,930000
2,145935	-128,498940	72,018	-0,186557	22,650000	54,930000
2,141950	-129,928205	72,219	-0,187125	22,650000	54,930000
2,137952	-131,541497	72,420	-0,187768	22,650000	54,930000
2,133924	-134,008666	72,620	-0,188750	22,650000	54,930000
2,129917	-134,873587	72,821	-0,189094	22,650000	54,930000
2,125914	-136,577664	73,021	-0,189772	22,650000	54,930000
2,121939	-138,954048	73,221	-0,190718	22,650000	54,930000
2,117975	-140,075377	73,422	-0,191164	22,650000	54,930000
2,113893	-141,937716	73,623	-0,191905	22,650000	54,930000
2,109936	-144,463774	73,824	-0,192911	22,660000	54,905000
2,105905	-146,209563	74,024	-0,193605	22,660000	54,905000
2,101908	-147,654778	74,225	-0,194181	22,660000	54,905000
2,097903	-150,572197	74,426	-0,195342	22,660000	54,905000
2,093980	-151,253092	74,626	-0,195613	22,660000	54,905000
2,089920	-152,741245	74,826	-0,196205	22,660000	54,905000
2,085936	-154,412198	75,026	-0,196870	22,660000	54,905000
2,081904	-156,090511	75,229	-0,197538	22,660000	54,905000
2,077908	-157,960211	75,429	-0,198282	22,660000	54,905000
2,073950	-159,855675	75,629	-0,199037	22,660000	54,905000
2,069923	-161,450563	75,830	-0,199671	22,660000	54,920000
2,065924	-164,592494	76,030	-0,200922	22,660000	54,920000
2,061901	-166,794667	76,232	-0,201798	22,660000	54,920000
2,057960	-167,858335	76,433	-0,202222	22,660000	54,920000
2,053910	-169,395562	76,634	-0,202833	22,660000	54,920000
2,049933	-170,251894	76,834	-0,203174	22,660000	54,920000
2,045904	-171,822246	77,034	-0,203799	22,660000	54,920000
2,041909	-174,572815	77,236	-0,204894	22,660000	54,920000
2,037915	-174,947001	77,436	-0,205043	22,660000	54,920000
2,033927	-176,543116	77,636	-0,205678	22,660000	54,920000
2,029918	-178,487653	77,838	-0,206452	22,660000	54,920000
2,025947	-179,310861	78,038	-0,206780	22,660000	54,920000
2,021876	-181,088548	78,238	-0,207487	22,660000	54,920000
2,017942	-182,285941	78,438	-0,207964	22,660000	54,920000
2,013920	-182,876050	78,638	-0,208199	22,660000	54,920000
2,009907	-185,027923	78,838	-0,209055	22,660000	54,920000
2,005942	-185,061047	79,039	-0,209068	22,660000	54,920000
2,001934	-184,886837	79,240	-0,208999	22,660000	54,920000
1,997911	-163,128877	79,440	-0,200339	22,660000	54,920000
1,993905	-140,034891	79,640	-0,191148	22,660000	54,920000
1,989910	-136,252552	79,841	-0,189643	22,650000	54,920000
1,985934	-134,673612	80,041	-0,189014	22,650000	54,920000
1,981873	-133,501983	80,241	-0,188548	22,650000	54,920000
1,977951	-133,235759	80,441	-0,188442	22,650000	54,920000
1,973969	-133,535107	80,641	-0,188561	22,650000	54,920000
1,969914	-133,717906	80,841	-0,188634	22,650000	54,920000
1,965931	-134,184104	81,041	-0,188819	22,650000	54,920000
1,961948	-134,864999	81,242	-0,189090	22,650000	54,920000
1,957970	-135,188884	81,442	-0,189219	22,650000	54,920000
1,953914	-136,626737	81,643	-0,189792	22,650000	54,920000
1,949947	-137,274507	81,843	-0,190049	22,670000	54,960000
1,945885	-138,181140	82,044	-0,190410	22,670000	54,960000
1,941910	-140,083965	82,245	-0,191167	22,670000	54,960000
1,937932	-141,173396	82,448	-0,191601	22,670000	54,960000
1,933964	-142,019914	82,648	-0,191938	22,670000	54,960000
1,929915	-141,986789	82,848	-0,191925	22,670000	54,960000
1,925954	-142,710623	83,049	-0,192213	22,670000	54,960000
1,921937	-143,400106	83,249	-0,192487	22,670000	54,960000
1,917937	-144,837959	83,449	-0,193060	22,670000	54,960000
1,914057	-145,918803	83,650	-0,193490	22,670000	54,960000
1,909963	-146,907634	83,851	-0,193883	22,670000	54,960000
1,905930	-147,114969	84,051	-0,193966	22,670000	54,960000
1,901969	-148,619072	84,251	-0,194564	22,670000	54,960000
1,897962	-148,827634	84,452	-0,194647	22,670000	54,960000
1,893937	-149,898663	84,652	-0,195074	22,670000	54,960000
1,889930	-150,805296	84,853	-0,195435	22,670000	54,960000
1,885976	-151,137769	85,053	-0,195567	22,670000	54,960000
1,881971	-151,835839	85,253	-0,195845	22,670000	54,960000
1,877962	-152,624696	85,453	-0,196159	22,670000	54,960000
1,873927	-153,014830	85,653	-0,196314	22,670000	54,960000
1,869915	-153,963175	85,853	-0,196691	22,660000	54,905000
1,865940	-154,029424	86,053	-0,196718	22,660000	54,905000
1,861911	-154,370485	86,254	-0,196854	22,660000	54,905000
1,857919	-153,813501	86,456	-0,196632	22,660000	54,905000
1,853935	-153,588990	86,657	-0,196542	22,660000	54,905000
1,849971	-153,862575	86,859	-0,196651	22,660000	54,905000
1,845927	-154,137386	87,059	-0,196761	22,660000	54,905000
1,841927	-153,580402	87,259	-0,196539	22,660000	54,905000
1,837960	-154,154562	87,460	-0,196768	22,660000	54,905000
1,833930	-154,203635	87,662	-0,196787	22,660000	54,905000
1,829994	-153,098255	87,863	-0,196347	22,660000	54,930000
1,825960	-152,692172	88,063	-0,196186	22,660000	54,930000
1,821928	-149,990676	88,263	-0,195110	22,660000	54,930000
1,817965	-147,979890	88,465	-0,194310	22,660000	54,930000
1,813979	-146,018177	88,666	-0,193529	22,660000	54,930000
1,809983	-143,025921	88,867	-0,192338	22,660000	54,930000
1,805949	-133,585408	89,067	-0,188581	22,660000	54,930000
1,802001	-119,049839	89,268	-0,182796	22,660000	54,930000
1,797968	-0,158262	89,468	-0,135477	22,660000	54,930000
1,793908	-0,025764	89,668	-0,135424	22,660000	54,930000
1,789961	-0,291987	89,870	-0,135530	22,670000	54,930000
1,785986	-0,175438	90,070	-0,135484	22,670000	54,930000
1,781926	-0,166850	90,270	-0,135480	22,670000	54,930000
1,777964	-0,291987	90,470	-0,135530	22,670000	54,930000
1,773934	-0,266224	90,670	-0,135520	22,670000	54,930000
1,769911	-0,283399	90,870	-0,135527	22,670000	54,930000
1,765990	-0,133725	91,070	-0,135467	22,670000	54,930000
1,761965	-0,017176	91,270	-0,135421	22,670000	54,930000
1,757959	-0,175438	91,470	-0,135484	22,670000	54,930000
1,753963	-0,017176	91,670	-0,135421	22,670000	54,930000
1,749913	-0,142313	91,870	-0,135471	22,670000	54,905000
1,745943	0,107962	92,070	-0,135371	22,670000	54,905000
1,741987	-0,116550	92,270	-0,135460	22,670000	54,905000
1,737994	0,273585	92,471	-0,135305	22,670000	54,905000
1,733973	-0,033125	92,671	-0,135427	22,670000	54,905000
1,729947	0,123911	92,871	-0,135365	22,670000	54,905000
1,725994	-0,208562	93,073	-0,135497	22,670000	54,905000
1,721974	-0,050300	93,273	-0,135434	22,670000	54,905000
1,717978	0,099374	93,474	-0,135375	22,670000	54,905000
1,713920	0,132498	93,674	-0,135361	22,670000	54,905000
1,709892	0,090786	93,876	-0,135378	22,660000	54,930000
1,705949	-0,215923	94,077	-0,135500	22,660000	54,930000
1,701984	0,000000	94,278	-0,135414	22,660000	54,930000
1,697975	-0,100601	94,478	-0,135454	22,660000	54,930000
1,694010	0,024537	94,680	-0,135404	22,660000	54,930000
1,689981	-0,017176	94,881	-0,135421	22,660000	54,930000
1,685970	-0,407310	95,081	-0,135576	22,660000	54,930000
1,681924	-0,158262	95,281	-0,135477	22,660000	54,930000
1,677977	0,000000	95,481	-0,135414	22,660000	54,930000
1,673959	0,132498	95,683	-0,135361	22,660000	54,930000
1,669901	0,024537	95,883	-0,135404	22,660000	54,905000
1,665928	0,231872	96,083	-0,135322	22,660000	54,905000
1,662034	-0,125137	96,283	-0,135464	22,660000	54,905000
1,657957	0,141086	96,483	-0,135358	22,660000	54,905000
1,653969	0,000000	96,683	-0,135414	22,660000	54,905000
1,649933	0,057661	96,883	-0,135391	22,660000	54,905000
1,646021	0,141086	97,083	-0,135358	22,660000	54,905000
1,641999	0,115323	97,284	-0,135368	22,660000	54,905000
1,637963	0,082198	97,484	-0,135381	22,660000	54,905000
1,633968	0,141086	97,684	-0,135358	22,660000	54,905000
1,629989	0,090786	97,884	-0,135378	22,660000	54,880000
1,625955	0,273585	98,085	-0,135305	22,660000	54,880000
1,621921	0,165623	98,286	-0,135348	22,660000	54,880000
1,617997	-0,083425	98,487	-0,135447	22,660000	54,880000
1,613959	0,273585	98,687	-0,135305	22,660000	54,880000
1,609911	-0,041712	98,887	-0,135431	22,660000	54,880000
1,606005	-0,074837	99,088	-0,135444	22,660000	54,880000
1,601946	0,082198	99,288	-0,135381	22,660000	54,880000
1,597925	0,257636	99,489	-0,135312	22,660000	54,880000
1,593975	-0,008588	99,689	-0,135417	22,660000	54,880000
1,589922	0,157035	99,891	-0,135352	22,660000	54,920000
1,585954	0,165623	100,092	-0,135348	22,660000	54,920000
1,581932	0,198748	100,293	-0,135335	22,660000	54,920000
1,579964	-0,083425	100,394	-0,135447	22,660000	54,920000

X-Pos [um]	Y-Pos [um]
0,000265	5,001037

POC
2,267832
1,569784	-0,332473	0,240	-0,135328	22,660000	54,905000
1,573830	-0,399949	0,441	-0,135355	22,660000	54,905000
1,577787	-0,407310	0,642	-0,135358	22,660000	54,905000
1,581775	-0,541035	0,842	-0,135411	22,660000	54,905000
1,585788	-0,290760	1,042	-0,135312	22,660000	54,905000
1,589791	-0,224511	1,242	-0,135285	22,660000	54,905000
1,593810	-0,482147	1,442	-0,135388	22,660000	54,905000
1,597800	-0,482147	1,642	-0,135388	22,660000	54,905000
1,601761	-0,365598	1,843	-0,135341	22,660000	54,905000
1,605868	-0,341061	2,043	-0,135332	22,660000	54,905000
1,609832	-0,407310	2,244	-0,135358	22,660000	54,905000
1,613840	-0,233099	2,444	-0,135289	22,660000	54,905000
1,617808	-0,374185	2,645	-0,135345	22,660000	54,905000
1,621772	-0,382773	2,846	-0,135348	22,660000	54,905000
1,625788	-0,374185	3,046	-0,135345	22,660000	54,905000
1,629789	-0,266224	3,246	-0,135302	22,660000	54,905000
1,633804	-0,466198	3,446	-0,135381	22,660000	54,905000
1,637815	-0,382773	3,646	-0,135348	22,660000	54,905000
1,641772	-0,407310	3,847	-0,135358	22,660000	54,905000
1,645776	-0,415898	4,048	-0,135361	22,660000	54,880000
1,649840	-0,424486	4,249	-0,135365	22,660000	54,880000
1,653791	-0,191387	4,450	-0,135272	22,660000	54,880000
1,657811	-0,365598	4,650	-0,135341	22,660000	54,880000
1,661808	-0,391361	4,852	-0,135352	22,660000	54,880000
1,665810	-0,440435	5,052	-0,135371	22,660000	54,880000
1,669841	-0,424486	5,252	-0,135365	22,660000	54,880000
1,673812	-0,466198	5,452	-0,135381	22,660000	54,880000
1,677824	-0,241687	5,652	-0,135292	22,660000	54,880000
1,681811	-0,449022	5,852	-0,135375	22,660000	54,880000
1,685824	-0,290760	6,054	-0,135312	22,670000	54,930000
1,689833	-0,515272	6,255	-0,135401	22,670000	54,930000
1,693769	-0,433074	6,456	-0,135368	22,670000	54,930000
1,697800	-0,299348	6,656	-0,135315	22,670000	54,930000
1,701823	-0,250275	6,858	-0,135295	22,670000	54,930000
1,705786	-0,424486	7,060	-0,135365	22,670000	54,930000
1,709776	-0,574160	7,261	-0,135424	22,670000	54,930000
1,713826	-0,532447	7,461	-0,135408	22,670000	54,930000
1,717778	-0,523860	7,661	-0,135404	22,670000	54,930000
1,721818	-0,506684	7,862	-0,135397	22,670000	54,930000
1,725758	-0,506684	8,062	-0,135397	22,670000	54,890000
1,729788	-0,382773	8,263	-0,135348	22,670000	54,890000
1,733738	-0,457610	8,463	-0,135378	22,670000	54,890000
1,737759	-0,565572	8,663	-0,135421	22,670000	54,890000
1,741802	-0,274812	8,863	-0,135305	22,670000	54,890000
1,745832	-0,316524	9,063	-0,135322	22,670000	54,890000
1,749798	-0,274812	9,263	-0,135305	22,670000	54,890000
1,753748	-0,623233	9,464	-0,135444	22,670000	54,890000
1,757805	-0,490735	9,664	-0,135391	22,670000	54,890000
1,761821	-0,482147	9,864	-0,135388	22,670000	54,890000
1,765827	-0,407310	10,064	-0,135358	22,660000	54,905000
1,769822	-0,590109	10,264	-0,135431	22,660000	54,905000
1,773803	-0,449022	10,464	-0,135375	22,660000	54,905000
1,777811	-0,323885	10,664	-0,135325	22,660000	54,905000
1,781761	-0,598697	10,864	-0,135434	22,660000	54,905000
1,785734	-0,574160	11,066	-0,135424	22,660000	54,905000
1,789848	-0,574160	11,267	-0,135424	22,660000	54,905000
1,793781	-0,590109	11,467	-0,135431	22,660000	54,905000
1,797819	-0,698070	11,667	-0,135474	22,660000	54,905000
1,801839	-0,490735	11,867	-0,135391	22,660000	54,905000
1,805831	-0,523860	12,068	-0,135404	22,660000	54,890000
1,809754	-0,523860	12,270	-0,135404	22,660000	54,890000
1,813816	-0,623233	12,470	-0,135444	22,660000	54,890000
1,817776	-0,556984	12,670	-0,135417	22,660000	54,890000
1,821759	-0,490735	12,871	-0,135391	22,660000	54,890000
1,825760	-0,706658	13,071	-0,135477	22,660000	54,890000
1,829785	-0,523860	13,271	-0,135404	22,660000	54,890000
1,833821	-0,581521	13,471	-0,135427	22,660000	54,890000
1,837780	-0,532447	13,672	-0,135408	22,660000	54,890000
1,841750	-0,731195	13,872	-0,135487	22,660000	54,890000
1,845816	-0,631821	14,073	-0,135447	22,660000	54,890000
1,849766	-0,640409	14,273	-0,135451	22,660000	54,890000
1,853804	-0,598697	14,475	-0,135434	22,660000	54,890000
1,857774	-0,574160	14,675	-0,135424	22,660000	54,890000
1,861787	-0,506684	14,875	-0,135397	22,660000	54,890000
1,865757	-0,739783	15,076	-0,135490	22,660000	54,890000
1,869774	-0,299348	15,279	-0,135315	22,660000	54,890000
1,873770	-0,806032	15,480	-0,135517	22,660000	54,890000
1,877811	-0,590109	15,681	-0,135431	22,660000	54,890000
1,881793	-0,640409	15,882	-0,135451	22,660000	54,890000
1,885764	-0,657585	16,083	-0,135458	22,660000	54,930000
1,889798	-0,623233	16,283	-0,135444	22,660000	54,930000
1,893746	-0,598697	16,483	-0,135434	22,660000	54,930000
1,897746	-0,474786	16,684	-0,135385	22,660000	54,930000
1,901834	-0,873508	16,885	-0,135543	22,660000	54,930000
1,905755	-0,657585	17,086	-0,135458	22,660000	54,930000
1,909769	-0,814620	17,289	-0,135520	22,660000	54,930000
1,913759	-0,515272	17,489	-0,135401	22,660000	54,930000
1,917798	-0,790083	17,690	-0,135510	22,660000	54,930000
1,921728	-0,565572	17,890	-0,135421	22,660000	54,930000
1,925772	-0,631821	18,091	-0,135447	22,660000	54,930000
1,929768	-0,922582	18,291	-0,135563	22,660000	54,930000
1,933799	-0,772908	18,491	-0,135503	22,660000	54,930000
1,937804	-0,856332	18,691	-0,135537	22,660000	54,930000
1,941751	-0,955706	18,891	-0,135576	22,660000	54,930000
1,945752	-0,840384	19,091	-0,135530	22,660000	54,930000
1,949747	-0,947118	19,291	-0,135573	22,660000	54,930000
1,953817	-0,856332	19,491	-0,135537	22,660000	54,930000
1,957784	-0,764320	19,691	-0,135500	22,660000	54,930000
1,961747	-0,798671	19,891	-0,135514	22,660000	54,930000
1,965765	-0,915221	20,091	-0,135560	22,660000	54,920000
1,969781	-0,981470	20,291	-0,135586	22,660000	54,920000
1,973732	-0,764320	20,491	-0,135500	22,660000	54,920000
1,977704	-0,997419	20,691	-0,135593	22,660000	54,920000
1,981741	-0,823208	20,891	-0,135523	22,660000	54,920000
1,985847	-0,955706	21,091	-0,135576	22,660000	54,920000
1,989734	-1,056307	21,292	-0,135616	22,660000	54,920000
1,993809	-1,105380	21,494	-0,135636	22,660000	54,920000
1,997748	-1,147093	21,695	-0,135652	22,660000	54,920000
2,001758	-1,014594	21,896	-0,135600	22,660000	54,920000
2,005755	-1,047719	22,097	-0,135613	22,650000	54,945000
2,009792	-1,021955	22,298	-0,135603	22,650000	54,945000
2,013715	-0,997419	22,501	-0,135593	22,650000	54,945000
2,017790	-0,915221	22,701	-0,135560	22,650000	54,945000
2,021757	-1,056307	22,901	-0,135616	22,650000	54,945000
2,025767	-1,063668	23,101	-0,135619	22,650000	54,945000
2,029836	-1,288179	23,301	-0,135708	22,650000	54,945000
2,033793	-1,147093	23,501	-0,135652	22,650000	54,945000
2,037764	-1,105380	23,701	-0,135636	22,650000	54,945000
2,041779	-0,715246	23,901	-0,135480	22,650000	54,945000
2,045825	-0,640409	24,101	-0,135451	22,650000	54,905000
2,049837	-0,856332	24,302	-0,135537	22,650000	54,905000
2,053834	-1,131144	24,503	-0,135646	22,650000	54,905000
2,057759	-1,263642	24,704	-0,135699	22,650000	54,905000
2,061780	-1,313943	24,904	-0,135719	22,650000	54,905000
2,065747	-1,554403	25,104	-0,135814	22,650000	54,905000
2,069855	-1,387553	25,304	-0,135748	22,650000	54,905000
2,073776	-1,296767	25,505	-0,135712	22,650000	54,905000
2,077733	-70,083081	25,706	-0,163089	22,650000	54,905000
2,081795	-71,055963	25,906	-0,163476	22,650000	54,905000
2,085719	-69,269688	26,106	-0,162765	22,660000	54,890000
2,089783	-67,574199	26,306	-0,162090	22,660000	54,890000
2,093740	-66,144934	26,507	-0,161521	22,660000	54,890000
2,097746	-65,022378	26,707	-0,161075	22,660000	54,890000
2,101780	-63,344064	26,907	-0,160407	22,660000	54,890000
2,105737	-62,512268	27,107	-0,160076	22,660000	54,890000
2,109806	-60,983629	27,307	-0,159467	22,660000	54,890000
2,113722	-59,239066	27,508	-0,158773	22,660000	54,890000
2,117751	-58,100561	27,709	-0,158320	22,660000	54,890000
2,121768	-56,321647	27,910	-0,157612	22,660000	54,890000
2,125735	-54,883794	28,110	-0,157040	22,660000	54,920000
2,129761	-52,880369	28,310	-0,156242	22,660000	54,920000
2,133738	-51,717327	28,510	-0,155779	22,660000	54,920000
2,137758	-50,570234	28,711	-0,155323	22,660000	54,920000
2,141784	-49,182681	28,911	-0,154771	22,660000	54,920000
2,145745	-47,628278	29,113	-0,154152	22,660000	54,920000
2,149795	-46,224776	29,313	-0,153593	22,660000	54,920000
2,153702	-44,886297	29,513	-0,153061	22,660000	54,920000
2,157767	-43,564993	29,714	-0,152535	22,660000	54,920000
2,161718	-40,739587	29,915	-0,151410	22,660000	54,920000
2,165760	-39,300506	30,116	-0,150837	22,660000	54,890000
2,169699	-38,993797	30,316	-0,150715	22,660000	54,890000
2,173758	-37,514231	30,516	-0,150126	22,660000	54,890000
2,177780	-34,847087	30,717	-0,149065	22,660000	54,890000
2,181757	-34,431189	30,918	-0,148899	22,660000	54,890000
2,185737	-31,746869	31,119	-0,147831	22,660000	54,890000
2,189757	-30,284479	31,320	-0,147249	22,660000	54,890000
2,193785	-28,754613	31,520	-0,146640	22,660000	54,890000
2,197757	-27,109424	31,721	-0,145985	22,660000	54,890000
2,201775	-25,314561	31,922	-0,145271	22,660000	54,890000
2,205747	-25,189424	32,122	-0,145221	22,650000	54,890000
2,209690	-22,389781	32,322	-0,144107	22,650000	54,890000
2,213748	-21,450024	32,522	-0,143733	22,650000	54,890000
2,217796	-19,164426	32,722	-0,142823	22,650000	54,890000
2,221734	-17,618611	32,923	-0,142208	22,650000	54,890000
2,225683	-15,907173	33,124	-0,141527	22,650000	54,890000
2,229735	-14,286520	33,324	-0,140882	22,650000	54,890000
2,233760	-13,912335	33,525	-0,140733	22,650000	54,890000
2,237725	-12,075760	33,725	-0,140002	22,650000	54,890000
2,241713	-9,424564	33,926	-0,138947	22,650000	54,890000
2,245779	-8,160922	34,126	-0,138444	22,660000	54,920000
2,249781	-6,224973	34,326	-0,137673	22,660000	54,920000
2,253723	-5,185841	34,526	-0,137260	22,660000	54,920000
2,257748	-3,565189	34,726	-0,136615	22,660000	54,920000
2,261766	-2,277010	34,926	-0,136102	22,660000	54,920000
2,265756	0,057661	35,127	-0,135173	22,660000	54,920000
2,269705	1,594889	35,327	-0,134561	22,660000	54,920000
2,273719	2,875707	35,528	-0,134051	22,660000	54,920000
2,277737	4,362633	35,730	-0,133459	22,660000	54,920000
2,281692	7,188040	35,930	-0,132335	22,660000	54,920000
2,285793	8,751031	36,131	-0,131713	22,650000	54,985000
2,289740	9,365676	36,331	-0,131468	22,650000	54,985000
2,293705	10,744641	36,531	-0,130919	22,650000	54,985000
2,297753	12,664642	36,731	-0,130155	22,650000	54,985000
2,301708	14,501217	36,932	-0,129424	22,650000	54,985000
2,305746	16,238419	37,133	-0,128733	22,650000	54,985000
2,309751	17,892195	37,333	-0,128075	22,650000	54,985000
2,313747	20,094368	37,535	-0,127198	22,650000	54,985000
2,317811	22,795864	37,736	-0,126123	22,650000	54,985000
2,321754	24,632440	37,936	-0,125392	22,650000	54,985000
2,325752	25,189424	38,137	-0,125170	22,660000	54,920000
2,329720	27,275047	38,337	-0,124340	22,660000	54,920000
2,333753	30,175291	38,538	-0,123186	22,660000	54,920000
2,337726	30,274664	38,738	-0,123146	22,660000	54,920000
2,341739	33,108659	38,938	-0,122019	22,660000	54,920000
2,345744	35,136621	39,138	-0,121211	22,660000	54,920000
2,349766	35,685017	39,339	-0,120993	22,660000	54,920000
2,353757	38,635561	39,539	-0,119819	22,660000	54,920000
2,357696	40,572737	39,739	-0,119048	22,660000	54,920000
2,361741	41,643766	39,940	-0,118622	22,660000	54,920000
2,365749	42,965069	40,140	-0,118096	22,660000	54,920000
2,369767	45,708278	40,340	-0,117004	22,660000	54,920000
2,373746	46,239498	40,541	-0,116792	22,660000	54,920000
2,377772	49,355665	40,742	-0,115552	22,660000	54,920000
2,381752	51,167704	40,943	-0,114831	22,660000	54,920000
2,385732	51,933250	41,145	-0,114526	22,660000	54,920000
2,389765	53,918273	41,345	-0,113736	22,660000	54,920000
[...]
3,607850	633,302008	156,834	0,116928	22,660000	55,000000
3,601863	628,955323	157,135	0,115198	22,660000	55,000000
3,595868	624,260217	157,437	0,113329	22,660000	55,000000
3,589862	620,695028	157,738	0,111910	22,660000	55,000000
3,583851	616,913915	158,040	0,110405	22,660000	55,000000
3,577802	611,096253	158,341	0,108090	22,660000	55,000000
3,571886	607,722450	158,642	0,106747	22,660000	55,000000
3,565912	602,103535	158,942	0,104511	22,660000	55,000000
3,559872	598,348186	159,242	0,103016	22,660000	55,000000
3,553859	592,779572	159,542	0,100800	22,660000	55,000000
3,547871	587,618267	159,842	0,098746	22,660000	54,985000
3,541886	584,502100	160,142	0,097505	22,660000	54,985000
3,535862	579,873243	160,443	0,095663	22,660000	54,985000
3,529870	575,252974	160,743	0,093824	22,660000	54,985000
3,523896	570,582404	161,043	0,091965	22,660000	54,985000
3,517884	566,451643	161,343	0,090321	22,660000	54,985000
3,511855	562,279169	161,645	0,088661	22,670000	54,945000
3,505909	557,584063	161,946	0,086792	22,670000	54,945000
3,499882	551,467052	162,247	0,084357	22,670000	54,945000
3,493886	546,830834	162,549	0,082512	22,670000	54,945000
3,487916	543,206756	162,851	0,081070	22,670000	54,945000
3,481882	537,630781	163,151	0,078851	22,670000	54,945000
3,475933	533,050997	163,452	0,077028	22,670000	54,945000
3,469965	530,932249	163,752	0,076185	22,670000	55,015000
3,463937	526,136542	164,052	0,074276	22,670000	55,015000
3,457852	519,728771	164,352	0,071726	22,670000	55,015000
3,451917	515,009128	164,653	0,069847	22,670000	55,015000
3,445883	512,457306	164,954	0,068832	22,670000	55,015000
3,439887	508,011248	165,255	0,067062	22,670000	55,015000
3,433936	502,426684	165,555	0,064839	22,670000	55,015000
3,427856	497,465354	165,855	0,062865	22,670000	54,975000
3,421891	492,968995	166,155	0,061075	22,670000	54,975000
3,415897	489,586605	166,457	0,059729	22,670000	54,975000
3,409912	485,206796	166,759	0,057986	22,670000	54,975000
3,403907	480,452801	167,061	0,056094	22,670000	54,975000
3,397917	476,396877	167,361	0,054479	22,670000	54,975000
3,391930	472,317643	167,661	0,052856	22,670000	54,975000
3,385936	467,687559	167,962	0,051013	22,670000	54,975000
3,379908	461,538650	168,264	0,048566	22,670000	54,975000
3,373942	458,962292	168,566	0,047541	22,670000	54,975000
3,367960	452,796208	168,866	0,045086	22,670000	54,975000
3,361928	448,091287	169,168	0,043214	22,670000	54,975000
3,355922	445,514928	169,469	0,042188	22,670000	54,975000
3,349911	439,116972	169,770	0,039642	22,680000	55,005000
3,343960	434,803412	170,071	0,037925	22,680000	55,005000
3,337950	430,456727	170,371	0,036195	22,680000	55,005000
3,331990	426,759039	170,672	0,034724	22,680000	55,005000
3,325976	423,035588	170,973	0,033242	22,680000	55,005000
3,319952	417,433849	171,274	0,031012	22,680000	55,005000
3,313967	413,626973	171,576	0,029497	22,680000	55,005000
3,307916	410,070371	171,876	0,028082	22,670000	54,975000
3,301954	405,566652	172,177	0,026289	22,670000	54,975000
3,295960	399,507302	172,477	0,023877	22,670000	54,975000
3,289945	395,210918	172,780	0,022167	22,670000	54,975000
3,283950	390,823748	173,080	0,020421	22,670000	54,975000
3,277940	388,371300	173,381	0,019445	22,670000	54,975000
3,271977	383,717906	173,681	0,017593	22,670000	54,975000
3,265942	379,287796	173,981	0,015830	22,670000	54,975000
3,259967	375,290760	174,281	0,014239	22,670000	54,975000
3,253986	370,412855	174,582	0,012298	22,670000	54,975000
3,247903	366,115244	174,883	0,010587	22,670000	54,975000
3,241935	361,063128	175,183	0,008577	22,670000	54,975000
3,235898	355,170629	175,484	0,006231	22,670000	54,975000
3,229964	351,406692	175,784	0,004733	22,670000	55,000000
3,223940	348,780033	176,085	0,003688	22,670000	55,000000
3,217946	342,845821	176,386	0,001326	22,670000	55,000000
3,211982	340,053539	176,688	0,000215	22,670000	55,000000
3,205931	334,385551	176,988	-0,002041	22,670000	55,000000
3,200009	331,436234	177,288	-0,003215	22,670000	55,000000
3,193943	327,056425	177,590	-0,004958	22,670000	55,000000
3,187937	322,344143	177,891	-0,006833	22,650000	55,000000
3,181999	317,141126	178,191	-0,008904	22,650000	55,000000
3,175925	312,428843	178,492	-0,010780	22,650000	55,000000
3,169955	309,429226	178,792	-0,011974	22,650000	55,000000
3,163957	305,107078	179,092	-0,013694	22,650000	55,000000
3,158012	300,669608	179,393	-0,015460	22,650000	55,000000
3,151985	295,201594	179,695	-0,017636	22,660000	55,000000
3,145956	292,466974	179,997	-0,018725	22,660000	55,000000
3,139995	286,924123	180,300	-0,020931	22,660000	55,000000
3,133969	284,264339	180,602	-0,021989	22,660000	55,000000
3,128000	278,422140	180,904	-0,024314	22,660000	55,000000
3,121964	275,422523	181,206	-0,025508	22,660000	55,000000
3,115974	270,426841	181,507	-0,027497	22,660000	55,000000
3,109897	267,077575	181,809	-0,028830	22,660000	55,000000
3,103988	261,369101	182,110	-0,031102	22,660000	55,000000
3,097971	258,376845	182,412	-0,032292	22,660000	55,000000
3,091984	254,080461	182,712	-0,034002	22,660000	55,000000
3,085955	249,800026	183,014	-0,035706	22,660000	55,000000
3,079976	245,936715	183,315	-0,037244	22,660000	55,000000
3,073995	240,815896	183,616	-0,039282	22,670000	55,015000
3,068015	235,455844	183,917	-0,041415	22,670000	55,015000
3,061973	233,270846	184,219	-0,042285	22,670000	55,015000
3,055962	227,893618	184,519	-0,044425	22,670000	55,015000
3,049979	224,594653	184,819	-0,045738	22,670000	55,015000
3,044032	218,818703	185,119	-0,048037	22,670000	55,015000
3,038008	216,733079	185,420	-0,048867	22,670000	55,015000
3,032044	211,056503	185,720	-0,051126	22,670000	54,985000
3,025953	206,734355	186,021	-0,052846	22,670000	54,985000
3,019971	203,003543	186,322	-0,054331	22,670000	54,985000
3,013961	198,889958	186,623	-0,055968	22,670000	54,985000
3,007998	196,138162	186,923	-0,057063	22,670000	54,985000
3,001966	191,385394	187,223	-0,058955	22,670000	54,985000
2,995975	185,933329	187,524	-0,061125	22,670000	54,985000
2,989989	183,041673	187,825	-0,062276	22,670000	54,985000
2,983952	178,944037	188,126	-0,063907	22,670000	54,985000
2,978053	174,913876	188,427	-0,065511	22,670000	54,985000
2,972016	170,957326	188,728	-0,067085	22,670000	54,985000
2,965995	166,944341	189,028	-0,068683	22,670000	54,985000
2,960007	161,616186	189,330	-0,070803	22,670000	54,985000
2,954008	158,857029	189,631	-0,071901	22,660000	54,960000
2,947947	153,147328	189,932	-0,074174	22,660000	54,960000
2,941971	150,920619	190,234	-0,075060	22,660000	54,960000
2,935993	146,557985	190,536	-0,076796	22,660000	54,960000
2,930024	142,958445	190,836	-0,078229	22,660000	54,960000
2,924009	137,756654	191,138	-0,080299	22,660000	54,960000
2,917992	134,092091	191,438	-0,081758	22,660000	54,960000
2,912022	130,493777	191,740	-0,083190	22,660000	54,960000
2,906015	125,814620	192,040	-0,085052	22,660000	54,960000
2,900011	123,146249	192,340	-0,086114	22,660000	54,960000
2,894013	118,184919	192,640	-0,088089	22,660000	54,960000
2,888017	114,870004	192,940	-0,089408	22,660000	54,960000
2,881997	111,087665	193,240	-0,090914	22,660000	54,960000
2,876009	106,491932	193,540	-0,092743	22,660000	54,960000
2,869981	103,034705	193,840	-0,094119	22,670000	55,015000
2,863994	99,918538	194,142	-0,095359	22,670000	55,015000
2,858017	96,062588	194,442	-0,096894	22,670000	55,015000
2,852032	92,039789	194,742	-0,098495	22,670000	55,015000
2,846047	88,016989	195,043	-0,100096	22,670000	55,015000
2,840003	83,978241	195,345	-0,101703	22,670000	55,015000
2,833984	80,621614	195,646	-0,103039	22,650000	55,000000
2,828015	75,517971	195,946	-0,105070	22,650000	55,000000
2,822048	73,225012	196,247	-0,105983	22,650000	55,000000
2,815996	68,246506	196,547	-0,107964	22,650000	55,000000
2,810003	64,507106	196,850	-0,109453	22,650000	55,000000
2,804045	61,182377	197,151	-0,110776	22,650000	55,000000
2,798016	57,808574	197,452	-0,112119	22,650000	55,000000
2,792025	55,481264	197,753	-0,113045	22,650000	55,000000
2,786014	52,257135	198,054	-0,114328	22,650000	55,000000
2,780010	47,927626	198,355	-0,116051	22,650000	55,000000
2,774064	45,459230	198,656	-0,117034	22,650000	55,000000
2,768003	41,660941	198,958	-0,118545	22,650000	55,000000
2,762099	38,328851	199,259	-0,119872	22,650000	55,000000
2,756031	35,028659	199,560	-0,121185	22,650000	55,000000
2,750000	30,209642	199,860	-0,123103	22,660000	55,000000
2,743983	25,962331	200,160	-0,124793	22,660000	55,000000
2,737994	23,876708	200,462	-0,125624	22,660000	55,000000
2,731994	18,840541	200,763	-0,127628	22,660000	55,000000
2,726023	16,845703	201,065	-0,128422	22,660000	55,000000
2,720062	13,538150	201,367	-0,129738	22,660000	55,000000
2,714025	8,634481	201,667	-0,131690	22,660000	55,000000
2,707986	5,077880	201,968	-0,133105	22,660000	55,000000
2,701993	2,085623	202,269	-0,134296	22,660000	55,000000
2,695995	-0,107962	202,570	-0,135169	22,660000	55,000000
2,690078	-3,914838	202,870	-0,136685	22,660000	55,000000
2,684036	-5,609100	203,171	-0,137359	22,660000	55,000000
2,678038	-9,790162	203,472	-0,139023	22,660000	55,000000
2,672011	-12,382469	203,773	-0,140055	22,670000	55,000000
2,666045	-14,260757	204,073	-0,140802	22,670000	55,000000
2,659976	-17,153639	204,373	-0,141954	22,670000	55,000000
2,653988	-19,371761	204,674	-0,142836	22,670000	55,000000
2,647999	-21,416899	204,974	-0,143650	22,670000	55,000000
2,642022	-23,311136	205,274	-0,144404	22,670000	55,000000
2,636051	-25,123174	205,575	-0,145125	22,670000	55,000000
2,629993	-26,702114	205,875	-0,145754	22,650000	55,015000
2,624006	-28,538690	206,176	-0,146485	22,650000	55,015000
2,618077	-31,064748	206,476	-0,147490	22,650000	55,015000
2,611967	-31,788582	206,776	-0,147778	22,650000	55,015000
2,606077	-32,453527	207,076	-0,148043	22,650000	55,015000
2,600018	-32,519777	207,377	-0,148069	22,650000	55,015000
2,594040	-31,489233	207,678	-0,147659	22,650000	55,040000
2,588041	-28,505565	207,979	-0,146472	22,650000	55,040000
2,582000	-9,200053	208,280	-0,138788	22,650000	55,040000
2,576007	80,862074	208,583	-0,102943	22,650000	55,040000
2,569957	82,997998	208,883	-0,102093	22,650000	55,040000
2,564061	83,097372	209,184	-0,102054	22,650000	55,040000
2,558033	80,546777	209,485	-0,103069	22,650000	55,040000
2,552040	78,028080	209,785	-0,104071	22,680000	55,005000
2,546037	75,618571	210,086	-0,105030	22,680000	55,005000
2,539989	74,337753	210,388	-0,105540	22,680000	55,005000
2,534046	71,363900	210,690	-0,106724	22,680000	55,005000
2,528005	68,612103	210,990	-0,107819	22,680000	55,005000
2,522023	65,911835	211,292	-0,108894	22,680000	55,005000
2,516074	62,795668	211,592	-0,110134	22,680000	55,005000
2,510015	59,561725	211,892	-0,111421	22,680000	55,005000
2,504089	56,279935	212,192	-0,112727	22,680000	55,005000
2,498051	53,602976	212,492	-0,113792	22,680000	55,005000
2,491974	50,279474	212,793	-0,115115	22,680000	55,005000
2,486070	47,478604	213,095	-0,116230	22,680000	55,005000
2,480016	43,913415	213,395	-0,117649	22,680000	55,005000
2,474046	41,162845	213,695	-0,118744	22,670000	54,985000
2,468003	38,269963	213,997	-0,119895	22,670000	54,985000
2,462029	33,907330	214,299	-0,121631	22,670000	54,985000
2,456016	31,115048	214,599	-0,122743	22,670000	54,985000
2,449991	28,289642	214,900	-0,123867	22,670000	54,985000
2,444076	25,380810	215,201	-0,125025	22,670000	54,985000
2,437990	21,864695	215,502	-0,126424	22,670000	54,985000
2,432073	19,422061	215,803	-0,127396	22,670000	54,985000
2,426012	17,086163	216,104	-0,128326	22,670000	54,985000
2,420075	14,203096	216,407	-0,129474	22,670000	54,985000
2,414026	9,125216	216,711	-0,131495	22,670000	54,985000
2,408009	7,645650	217,011	-0,132083	22,670000	54,985000
2,402044	2,941956	217,311	-0,133956	22,670000	54,985000
2,396019	0,864920	217,612	-0,134782	22,670000	54,985000
2,390026	-2,094211	217,912	-0,135960	22,660000	54,975000
2,384028	-5,418940	218,213	-0,137283	22,660000	54,975000
2,378084	-9,798750	218,514	-0,139026	22,660000	54,975000
2,372027	-13,031466	218,815	-0,140313	22,660000	54,975000
2,366021	-15,066789	219,116	-0,141123	22,660000	54,975000
2,360032	-19,413474	219,418	-0,142853	22,660000	54,975000
2,354031	-22,721027	219,721	-0,144169	22,660000	54,975000
2,348036	-25,264261	220,022	-0,145182	22,660000	54,975000
2,341986	-28,073718	220,322	-0,146300	22,660000	54,975000
2,336030	-31,364096	220,622	-0,147609	22,660000	54,975000
2,330044	-35,844506	220,923	-0,149393	22,660000	54,975000
2,324058	-39,126296	221,225	-0,150699	22,660000	54,975000
2,318089	-41,220507	221,525	-0,151532	22,660000	54,975000
2,312044	-43,589530	221,827	-0,152475	22,660000	54,985000
2,305990	-47,652815	222,127	-0,154092	22,660000	54,985000
2,300000	-51,667027	222,428	-0,155690	22,660000	54,985000
2,294024	-53,935449	222,730	-0,156593	22,660000	54,985000
2,288045	-58,233060	223,030	-0,158303	22,660000	54,985000
2,282069	-61,008166	223,331	-0,159408	22,660000	54,985000
2,276074	-63,119553	223,631	-0,160248	22,680000	54,980000
2,269975	-67,739822	223,932	-0,162087	22,680000	54,980000
2,263982	-69,692947	224,233	-0,162864	22,680000	54,980000
2,257989	-73,009088	224,533	-0,164184	22,680000	54,980000
2,252065	-77,322648	224,834	-0,165901	22,680000	54,980000
2,246054	-80,397103	225,136	-0,167125	22,680000	54,980000
2,240041	-83,280170	225,437	-0,168272	22,680000	54,980000
2,234024	-86,289602	225,738	-0,169470	22,660000	55,000000
2,228055	-89,240146	226,039	-0,170644	22,660000	55,000000
2,222032	-91,931827	226,341	-0,171715	22,660000	55,000000
2,216046	-95,430767	226,642	-0,173108	22,660000	55,000000
2,210095	-98,123675	226,943	-0,174180	22,660000	55,000000
2,204068	-101,215305	227,243	-0,175410	22,660000	55,000000
2,198005	-104,472558	227,543	-0,176707	22,660000	55,000000
2,192048	-107,447639	227,843	-0,177891	22,670000	55,000000
2,186052	-111,113428	228,144	-0,179350	22,670000	55,000000
2,180061	-114,868777	228,447	-0,180844	22,670000	55,000000
2,174071	-118,043832	228,749	-0,182108	22,670000	55,000000
2,167981	-120,952664	229,050	-0,183266	22,670000	55,000000
2,162056	-122,315680	229,350	-0,183808	22,670000	55,000000
2,156046	-124,892038	229,652	-0,184833	22,670000	55,000000
2,150023	-128,049918	229,952	-0,186090	22,670000	55,000000
2,144048	-131,224973	230,253	-0,187354	22,670000	55,000000
2,138038	-134,906711	230,555	-0,188819	22,670000	55,000000
2,132067	-137,067172	230,856	-0,189679	22,670000	55,000000
2,126027	-140,848284	231,158	-0,191184	22,670000	55,000000
2,120065	-142,169588	231,459	-0,191710	22,670000	55,000000
2,114086	-144,662522	231,759	-0,192702	22,670000	54,960000
2,108008	-147,181219	232,059	-0,193705	22,670000	54,960000
2,102077	-149,881488	232,359	-0,194779	22,670000	54,960000
2,096065	-153,672415	232,660	-0,196288	22,670000	54,960000
2,090051	-154,544696	232,960	-0,196635	22,670000	54,960000
2,084042	-157,777412	233,261	-0,197922	22,670000	54,960000
2,078036	-160,328007	233,562	-0,198937	22,670000	54,960000
2,072053	-160,768442	233,862	-0,199112	22,670000	55,000000
2,065988	-163,769286	234,162	-0,200307	22,670000	55,000000
2,060062	-164,949503	234,463	-0,200776	22,670000	55,000000
2,054030	-166,570155	234,763	-0,201421	22,670000	55,000000
2,048062	-168,398143	235,065	-0,202149	22,670000	55,000000
2,042016	-168,706079	235,365	-0,202271	22,670000	55,000000
2,036068	-170,375805	235,665	-0,202936	22,670000	55,000000
2,030077	-171,282438	235,965	-0,203297	22,670000	55,000000
2,024023	-175,270886	236,265	-0,204884	22,670000	55,000000
2,018018	-176,841237	236,567	-0,205509	22,670000	55,000000
2,012015	-178,994337	236,871	-0,206366	22,670000	55,000000
2,005970	-182,568114	237,171	-0,207789	22,670000	55,000000
2,000078	-184,262376	237,472	-0,208463	22,670000	55,000000
1,994017	-187,163847	237,772	-0,209618	22,670000	54,985000
1,988030	-188,809035	238,074	-0,210272	22,670000	54,985000
1,982034	-191,427106	238,374	-0,211314	22,670000	54,985000
1,976094	-193,363056	238,674	-0,212085	22,670000	54,985000
1,970040	-195,474443	238,974	-0,212925	22,670000	54,985000
1,964030	-197,526941	239,275	-0,213742	22,670000	54,985000
1,958044	-199,671453	239,575	-0,214596	22,670000	54,985000
1,952036	-202,098137	239,875	-0,215562	22,670000	54,985000
1,946054	-203,926125	240,175	-0,216289	22,670000	54,985000
1,940060	-205,696451	240,475	-0,216994	22,670000	54,985000
1,934038	-206,227672	240,776	-0,217205	22,670000	54,985000
1,928074	-205,846125	241,077	-0,217053	22,670000	54,985000
1,922068	-156,788582	241,377	-0,197528	22,670000	54,985000
1,916027	-148,843583	241,678	-0,194366	22,660000	54,975000
1,910043	-144,887033	241,978	-0,192792	22,660000	54,975000
1,904035	-144,206138	242,279	-0,192521	22,660000	54,975000
1,898031	-143,565729	242,579	-0,192266	22,660000	54,975000
1,891978	-144,397525	242,881	-0,192597	22,660000	54,975000
1,886061	-143,915378	243,181	-0,192405	22,660000	54,975000
1,880030	-145,285755	243,481	-0,192950	22,660000	54,975000
1,874049	-145,802253	243,782	-0,193156	22,660000	54,975000
1,868079	-145,194969	244,082	-0,192914	22,660000	54,975000
1,862036	-145,618228	244,384	-0,193083	22,660000	54,975000
1,856068	-146,582522	244,684	-0,193466	22,660000	54,975000
1,850029	-147,164043	244,987	-0,193698	22,660000	54,975000
1,844085	-148,028963	245,288	-0,194042	22,660000	54,975000
1,838058	-148,585947	245,590	-0,194264	22,660000	54,975000
1,832038	-149,441053	245,890	-0,194604	22,680000	55,030000
1,826044	-149,533066	246,191	-0,194641	22,680000	55,030000
1,820021	-149,982088	246,492	-0,194819	22,680000	55,030000
1,814075	-150,056925	246,792	-0,194849	22,680000	55,030000
1,808009	-150,431111	247,092	-0,194998	22,680000	55,030000
1,802057	-148,992030	247,392	-0,194425	22,680000	55,030000
1,796086	-146,566573	247,693	-0,193460	22,680000	54,965000
1,790076	-142,136464	247,994	-0,191697	22,680000	54,965000
1,783986	-129,320921	248,295	-0,186596	22,680000	54,965000
1,778052	-112,393020	248,597	-0,179859	22,680000	54,965000
1,772072	-0,240460	248,898	-0,135222	22,680000	54,965000
1,766087	-0,523860	249,199	-0,135335	22,680000	54,965000
1,760061	-0,240460	249,499	-0,135222	22,680000	54,965000
1,754029	-0,133725	249,800	-0,135180	22,670000	54,985000
1,748062	-0,166850	250,102	-0,135193	22,670000	54,985000
1,742069	0,057661	250,402	-0,135104	22,670000	54,985000
1,736085	-0,215923	250,703	-0,135212	22,670000	54,985000
1,730096	-0,074837	251,004	-0,135156	22,670000	54,985000
1,724051	0,000000	251,304	-0,135126	22,670000	54,985000
1,718077	0,017176	251,605	-0,135120	22,670000	54,985000
1,712042	-0,365598	251,906	-0,135272	22,660000	55,000000
1,706070	0,008588	252,208	-0,135123	22,660000	55,000000
1,700092	-0,074837	252,508	-0,135156	22,660000	55,000000
1,694052	0,049073	252,809	-0,135107	22,660000	55,000000
1,688077	-0,074837	253,111	-0,135156	22,660000	55,000000
1,682061	0,158262	253,412	-0,135063	22,660000	55,000000
1,676067	0,090786	253,713	-0,135090	22,660000	55,000000
1,670043	0,066249	254,013	-0,135100	22,660000	55,000000
1,664050	0,165623	254,314	-0,135061	22,660000	55,000000
1,658061	0,241687	254,614	-0,135030	22,660000	55,000000
1,652085	-0,050300	254,915	-0,135146	22,660000	55,000000
1,646037	-0,323885	255,215	-0,135255	22,660000	55,000000
1,640078	-0,057661	255,515	-0,135149	22,660000	55,000000
1,634061	-0,083425	255,816	-0,135160	22,660000	55,000000
1,628083	-0,074837	256,118	-0,135156	22,660000	55,000000
1,622071	-0,282173	256,418	-0,135239	22,660000	55,000000
1,616061	0,008588	256,721	-0,135123	22,660000	55,000000
1,610107	-0,015949	257,022	-0,135133	22,660000	55,000000
1,604054	-0,008588	257,322	-0,135130	22,660000	55,000000
1,598128	0,241687	257,622	-0,135030	22,660000	55,000000
1,592067	-0,041712	257,923	-0,135143	22,660000	55,025000
1,586063	0,049073	258,224	-0,135107	22,660000	55,025000
1,580066	0,057661	258,525	-0,135104	22,660000	55,025000
1,574055	0,107962	258,825	-0,135083	22,660000	55,025000
1,568030	-0,099374	259,127	-0,135166	22,660000	55,025000
1,562018	0,207336	259,428	-0,135044	22,660000	55,025000
1,556048	-0,315297	259,729	-0,135252	22,660000	55,025000
1,550054	0,083425	260,030	-0,135093	22,660000	55,025000
1,544111	0,090786	260,333	-0,135090	22,660000	55,025000
1,538016	0,132498	260,633	-0,135074	22,660000	55,025000
1,532044	0,033125	260,933	-0,135113	22,660000	55,025000