File: Nanoindentation Datenauswertung/data/PDMS/AR-PDMS-60-10-60-1,2um-4x4-1
Quasi static measurement routine
Tip parameters (shape,radius, material...)
25.08.2022

Piezo position[nm]	MEMS displ.[nm]	Time[ms]	Cap [pf]	Temp [°C]	Rh [%]
eoh

X-Pos [um]	Y-Pos [um]
19,999520	19,998943

POC
3,159860
2,461783	-0,199974	0,263	-0,135219	17,490000	0,615000
2,465780	0,000000	0,464	-0,135140	17,490000	0,615000
2,469844	-0,066249	0,666	-0,135166	17,490000	0,615000
2,473773	-0,332473	0,868	-0,135272	17,490000	0,615000
2,477791	-0,358236	1,070	-0,135282	17,490000	0,615000
2,481761	-0,323885	1,270	-0,135269	17,490000	0,615000
2,485816	-0,224511	1,470	-0,135229	17,490000	0,615000
2,489750	-0,307936	1,670	-0,135262	17,490000	0,615000
2,493808	-0,215923	1,871	-0,135226	17,490000	0,615000
2,497803	-0,041712	2,071	-0,135156	17,490000	0,615000
2,501778	-0,066249	2,272	-0,135166	17,490000	0,615000
2,505780	-0,074837	2,472	-0,135169	17,490000	0,615000
2,509789	-0,166850	2,673	-0,135206	17,490000	0,615000
2,513802	0,041712	2,873	-0,135123	17,490000	0,615000
2,517800	-0,058888	3,073	-0,135163	17,490000	0,615000
2,521766	-0,083425	3,274	-0,135173	17,490000	0,615000
2,525793	0,107962	3,475	-0,135097	17,490000	0,615000
2,529772	-0,332473	3,676	-0,135272	17,490000	0,615000
2,533754	-0,224511	3,878	-0,135229	17,490000	0,615000
2,537817	-0,158262	4,079	-0,135203	17,490000	0,615000
2,541795	-0,290760	4,280	-0,135255	17,490000	0,615000
2,545819	-0,391361	4,480	-0,135295	17,490000	0,615000
2,549761	-0,174211	4,680	-0,135209	17,490000	0,615000
2,553809	-0,565572	4,880	-0,135365	17,490000	0,615000
2,557772	-0,607284	5,080	-0,135381	17,490000	0,615000
2,561744	-0,133725	5,280	-0,135193	17,490000	0,615000
2,565771	-0,233099	5,481	-0,135232	17,490000	0,615000
2,569747	-0,316524	5,681	-0,135266	17,490000	0,615000
2,573780	-0,182799	5,882	-0,135212	17,490000	0,615000
2,577746	-0,266224	6,082	-0,135246	17,490000	0,615000
2,581758	-0,274812	6,282	-0,135249	17,490000	0,615000
2,585801	-0,407310	6,482	-0,135302	17,490000	0,615000
2,589804	-0,316524	6,683	-0,135266	17,490000	0,615000
2,593764	-0,316524	6,883	-0,135266	17,490000	0,615000
2,597792	-0,499323	7,084	-0,135338	17,490000	0,615000
2,601823	-0,631821	7,286	-0,135391	17,490000	0,615000
2,605757	0,017176	7,487	-0,135133	17,490000	0,615000
2,609764	-0,407310	7,689	-0,135302	17,490000	0,615000
2,613781	-0,590109	7,890	-0,135375	17,490000	0,615000
2,617777	-0,316524	8,092	-0,135266	17,490000	0,615000
2,621779	-0,257636	8,293	-0,135242	17,490000	0,615000
2,625780	-0,358236	8,494	-0,135282	17,490000	0,615000
2,629752	-0,490735	8,694	-0,135335	17,490000	0,615000
2,633737	-0,490735	8,895	-0,135335	17,490000	0,615000
2,637765	-0,299348	9,096	-0,135259	17,490000	0,615000
2,641764	-0,506684	9,297	-0,135341	17,490000	0,615000
2,645799	-0,499323	9,498	-0,135338	17,490000	0,615000
2,649738	-0,574160	9,699	-0,135368	17,490000	0,615000
2,653804	-0,523860	9,899	-0,135348	17,490000	0,615000
2,657738	-0,615872	10,101	-0,135385	17,490000	0,615000
2,661727	-0,407310	10,302	-0,135302	17,490000	0,615000
2,665733	-0,307936	10,502	-0,135262	17,490000	0,615000
2,669763	-0,398722	10,702	-0,135298	17,490000	0,615000
2,673768	-0,358236	10,902	-0,135282	17,490000	0,615000
2,677788	-0,457610	11,106	-0,135322	17,490000	0,615000
2,681804	-0,607284	11,307	-0,135381	17,490000	0,615000
2,685748	-0,141086	11,508	-0,135196	17,490000	0,615000
2,689750	-0,640409	11,708	-0,135395	17,490000	0,615000
2,693772	-0,532447	11,908	-0,135352	17,490000	0,615000
2,697799	-0,541035	12,108	-0,135355	17,490000	0,615000
2,701741	-0,290760	12,308	-0,135255	17,490000	0,615000
2,705770	-0,490735	12,509	-0,135335	17,490000	0,615000
2,709752	-0,249048	12,710	-0,135239	17,490000	0,615000
2,713771	-0,574160	12,911	-0,135368	17,490000	0,615000
2,717827	-0,615872	13,111	-0,135385	17,490000	0,615000
2,721768	-0,806032	13,311	-0,135460	17,490000	0,615000
2,725752	-0,607284	13,512	-0,135381	17,490000	0,615000
2,729792	-0,689483	13,713	-0,135414	17,490000	0,615000
2,733777	-0,706658	13,914	-0,135421	17,490000	0,615000
2,737764	-0,748371	14,115	-0,135438	17,490000	0,615000
2,741705	-0,698070	14,315	-0,135417	17,490000	0,615000
2,745756	-0,490735	14,516	-0,135335	17,490000	0,615000
2,749765	-0,556984	14,717	-0,135361	17,490000	0,615000
2,753764	-0,556984	14,918	-0,135361	17,490000	0,615000
2,757784	-0,682122	15,118	-0,135411	17,490000	0,615000
2,761841	-0,607284	15,318	-0,135381	17,490000	0,615000
2,765742	-0,515272	15,518	-0,135345	17,490000	0,615000
2,769744	-0,590109	15,719	-0,135375	17,490000	0,615000
2,773750	-0,457610	15,921	-0,135322	17,490000	0,615000
2,777762	-0,590109	16,121	-0,135375	17,490000	0,615000
2,781791	-0,640409	16,322	-0,135395	17,490000	0,615000
2,785742	-0,574160	16,522	-0,135368	17,490000	0,615000
2,789705	-0,748371	16,723	-0,135438	17,490000	0,615000
2,793772	-0,806032	16,924	-0,135460	17,490000	0,615000
2,797757	-0,764320	17,124	-0,135444	17,490000	0,615000
2,801742	-0,682122	17,324	-0,135411	17,490000	0,615000
2,805756	-0,473559	17,526	-0,135328	17,490000	0,615000
2,809785	-0,748371	17,726	-0,135438	17,490000	0,615000
2,813819	-0,790083	17,927	-0,135454	17,490000	0,615000
2,817742	-0,889457	18,127	-0,135494	17,490000	0,615000
2,821726	-0,715246	18,327	-0,135424	17,490000	0,615000
2,825743	-0,981470	18,528	-0,135530	17,490000	0,615000
2,829749	-0,790083	18,728	-0,135454	17,490000	0,615000
2,833746	-0,947118	18,928	-0,135517	17,490000	0,615000
2,837752	-0,689483	19,128	-0,135414	17,490000	0,615000
2,841762	-0,847745	19,328	-0,135477	17,490000	0,615000
2,845745	-0,790083	19,528	-0,135454	17,490000	0,615000
2,849708	-0,856332	19,729	-0,135480	17,490000	0,615000
2,853771	-0,839157	19,929	-0,135474	17,490000	0,615000
2,857731	-0,847745	20,129	-0,135477	17,490000	0,615000
2,861712	-0,947118	20,330	-0,135517	17,490000	0,615000
2,865773	-0,898045	20,531	-0,135497	345,100000	0,000000
2,869754	-0,872281	20,731	-0,135487	345,100000	0,000000
2,873751	-0,889457	20,933	-0,135494	345,100000	0,000000
2,877743	-0,847745	21,134	-0,135477	345,100000	0,000000
2,881744	-0,823208	21,334	-0,135467	345,100000	0,000000
2,885725	-1,030543	21,535	-0,135550	345,100000	0,000000
2,889735	-1,255055	21,736	-0,135639	345,100000	0,000000
2,893706	-0,889457	21,938	-0,135494	345,100000	0,000000
2,897777	-1,056307	22,138	-0,135560	345,100000	0,000000
2,901784	-0,847745	22,338	-0,135477	345,100000	0,000000
2,905768	-0,964294	22,538	-0,135523	345,840000	0,000000
2,909755	-1,021955	22,739	-0,135546	345,840000	0,000000
2,913744	-1,072256	22,939	-0,135566	345,840000	0,000000
2,917760	-0,964294	23,140	-0,135523	345,840000	0,000000
2,921736	-0,988831	23,341	-0,135533	345,840000	0,000000
2,925769	-1,163042	23,542	-0,135603	345,840000	0,000000
2,929774	-1,380192	23,742	-0,135689	345,840000	0,000000
2,933809	-1,147093	23,943	-0,135596	345,840000	0,000000
2,937736	-0,814620	24,143	-0,135464	345,840000	0,000000
2,941737	-0,981470	24,343	-0,135530	345,840000	0,000000
2,945724	-1,371604	24,544	-0,135686	345,440000	0,000000
2,949759	-1,280818	24,745	-0,135649	345,440000	0,000000
2,953689	-1,396141	24,945	-0,135695	345,440000	0,000000
2,957745	-1,488154	25,145	-0,135732	345,440000	0,000000
2,961763	-1,437853	25,346	-0,135712	345,440000	0,000000
2,965785	-1,446441	25,546	-0,135715	345,440000	0,000000
2,969728	-1,803451	25,747	-0,135857	345,440000	0,000000
2,973759	-65,513112	25,947	-0,161214	345,440000	0,000000
2,977730	-65,271425	26,148	-0,161118	345,440000	0,000000
2,981777	-64,116972	26,349	-0,160658	345,440000	0,000000
2,985771	-62,538032	26,549	-0,160030	345,440000	0,000000
2,989779	-61,215501	26,749	-0,159503	345,440000	0,000000
2,993762	-59,745750	26,949	-0,158918	345,440000	0,000000
2,997749	-56,969417	27,149	-0,157813	345,440000	0,000000
3,001733	-56,071372	27,349	-0,157456	345,440000	0,000000
3,005737	-55,423602	27,549	-0,157198	345,440000	0,000000
3,009733	-54,018874	27,750	-0,156639	345,440000	0,000000
3,013751	-52,356509	27,952	-0,155978	345,440000	0,000000
3,017696	-50,587410	28,153	-0,155273	345,440000	0,000000
3,021755	-50,636483	28,353	-0,155293	345,440000	0,000000
3,025690	-49,988713	28,554	-0,155035	346,770000	0,000000
3,029809	-48,401186	28,754	-0,154403	346,770000	0,000000
3,033699	-47,595154	28,955	-0,154083	346,770000	0,000000
3,037702	-45,732814	29,156	-0,153341	346,770000	0,000000
3,041742	-43,955127	29,356	-0,152634	346,770000	0,000000
3,045728	-42,649772	29,556	-0,152114	346,770000	0,000000
3,049692	-41,678117	29,757	-0,151728	346,770000	0,000000
3,053745	-39,467356	29,957	-0,150848	346,770000	0,000000
3,057724	-38,777874	30,158	-0,150573	346,770000	0,000000
3,061752	-37,040672	30,358	-0,149882	346,770000	0,000000
3,065726	-35,884991	30,558	-0,149422	345,980000	0,000000
3,069746	-33,350345	30,758	-0,148413	345,980000	0,000000
3,073702	-32,744288	30,959	-0,148172	345,980000	0,000000
3,077745	-31,024262	31,160	-0,147487	345,980000	0,000000
3,081775	-28,763201	31,360	-0,146587	345,980000	0,000000
3,085697	-26,876325	31,561	-0,145836	345,980000	0,000000
3,089729	-26,369641	31,761	-0,145635	345,980000	0,000000
3,093702	-23,967494	31,962	-0,144679	345,980000	0,000000
3,097692	-22,297768	32,163	-0,144014	345,980000	0,000000
3,101693	-20,602279	32,364	-0,143339	345,980000	0,000000
3,105675	-19,588911	32,564	-0,142936	345,980000	0,000000
3,109684	-17,560949	32,765	-0,142129	345,980000	0,000000
3,113775	-16,048259	32,966	-0,141527	345,980000	0,000000
3,117707	-15,366137	33,166	-0,141255	345,980000	0,000000
3,121732	-12,914916	33,367	-0,140280	345,980000	0,000000
3,125704	-11,269728	33,567	-0,139625	345,980000	0,000000
3,129673	-9,682200	33,769	-0,138993	345,980000	0,000000
3,133704	-7,595350	33,969	-0,138163	345,980000	0,000000
3,137667	-7,031005	34,169	-0,137938	345,980000	0,000000
3,141661	-3,906250	34,369	-0,136694	345,980000	0,000000
3,145680	-2,884295	34,569	-0,136288	346,770000	0,000000
3,149781	-0,398722	34,769	-0,135298	346,770000	0,000000
3,153698	0,673534	34,969	-0,134872	346,770000	0,000000
3,157659	2,077036	35,169	-0,134313	346,770000	0,000000
3,161679	4,329509	35,369	-0,133417	346,770000	0,000000
3,165718	5,908448	35,569	-0,132788	346,770000	0,000000
3,169731	7,471439	35,770	-0,132166	346,770000	0,000000
3,173723	9,964373	35,970	-0,131174	346,770000	0,000000
3,177719	11,692986	36,170	-0,130486	346,770000	0,000000
3,181731	14,128258	36,370	-0,129517	346,770000	0,000000
3,185708	16,247007	36,570	-0,128673	345,440000	0,000000
3,189727	17,352387	36,771	-0,128233	345,440000	0,000000
3,193710	19,413474	36,971	-0,127413	345,440000	0,000000
3,197710	21,274586	37,171	-0,126672	345,440000	0,000000
3,201718	23,427685	37,371	-0,125815	345,440000	0,000000
3,205727	25,064286	37,572	-0,125164	345,440000	0,000000
3,209744	27,607520	37,772	-0,124152	345,440000	0,000000
3,213724	28,912875	37,972	-0,123632	345,440000	0,000000
3,217734	30,424338	38,173	-0,123031	345,440000	0,000000
3,221734	32,187304	38,374	-0,122329	345,440000	0,000000
3,225727	34,222627	38,574	-0,121519	346,350000	0,000000
3,229720	37,197707	38,774	-0,120335	346,350000	0,000000
3,233666	38,943497	38,974	-0,119640	346,350000	0,000000
3,237706	40,971459	39,174	-0,118833	346,350000	0,000000
3,241724	41,544392	39,374	-0,118605	346,350000	0,000000
3,245718	43,273006	39,574	-0,117917	346,350000	0,000000
3,249705	45,175830	39,774	-0,117160	346,350000	0,000000
3,253764	21,408311	39,974	-0,126619	346,350000	0,000000
3,257709	18,424643	40,174	-0,127807	346,350000	0,000000
3,261677	20,801027	40,375	-0,126861	346,350000	0,000000
3,265694	21,789857	40,576	-0,126467	346,350000	0,000000
3,269646	23,286599	40,777	-0,125872	346,350000	0,000000
3,273677	25,114587	40,978	-0,125144	346,350000	0,000000
3,277688	28,355891	41,179	-0,123854	346,350000	0,000000
3,281668	30,100453	41,379	-0,123160	346,350000	0,000000
3,285664	31,115048	41,579	-0,122756	346,350000	0,000000
3,289728	34,588224	41,780	-0,121374	346,350000	0,000000
3,293724	35,577055	41,980	-0,120980	346,350000	0,000000
3,297656	37,206295	42,180	-0,120332	346,350000	0,000000
3,301632	41,037708	42,381	-0,118807	346,350000	0,000000
3,305655	42,101376	42,582	-0,118383	346,110000	0,000000
3,309664	44,054501	42,782	-0,117606	346,110000	0,000000
3,313633	44,254476	42,983	-0,117526	346,110000	0,000000
3,317699	42,849747	43,183	-0,118085	346,110000	0,000000
3,321704	41,378769	43,384	-0,118671	346,110000	0,000000
3,325653	43,165044	43,586	-0,117960	346,110000	0,000000
3,329663	43,455804	43,787	-0,117844	346,110000	0,000000
3,333634	45,010207	43,987	-0,117226	346,110000	0,000000
3,337685	46,606323	44,187	-0,116590	346,110000	0,000000
3,341723	49,863576	44,387	-0,115294	346,110000	0,000000
3,345675	50,187461	44,588	-0,115165	346,110000	0,000000
3,349701	53,445941	44,788	-0,113868	346,110000	0,000000
3,353696	55,331590	44,989	-0,113118	346,110000	0,000000
3,357756	55,996535	45,189	-0,112853	346,110000	0,000000
3,361630	57,808574	45,389	-0,112132	346,110000	0,000000
3,365679	59,911373	45,589	-0,111295	346,110000	0,000000
3,369642	63,375962	45,790	-0,109916	346,110000	0,000000
3,373645	64,132920	45,990	-0,109615	346,110000	0,000000
3,377661	66,393982	46,190	-0,108715	346,110000	0,000000
3,381662	69,809497	46,390	-0,107355	346,110000	0,000000
3,385698	70,956590	46,590	-0,106899	346,110000	0,000000
3,389644	73,075338	46,791	-0,106056	346,110000	0,000000
3,393668	74,828488	46,991	-0,105358	346,110000	0,000000
3,397698	77,812156	47,193	-0,104170	346,110000	0,000000
3,401715	79,000962	47,394	-0,103697	346,110000	0,000000
3,405668	81,634982	47,596	-0,102649	346,110000	0,000000
3,409624	83,521857	47,796	-0,101898	346,110000	0,000000
3,413610	86,721449	47,997	-0,100625	346,110000	0,000000
3,417643	89,529680	48,197	-0,099507	346,110000	0,000000
3,421637	90,352887	48,398	-0,099179	346,110000	0,000000
3,425701	92,497399	48,599	-0,098326	344,860000	0,000000
3,429639	95,488428	48,799	-0,097135	344,860000	0,000000
3,433699	98,181336	48,999	-0,096063	344,860000	0,000000
3,437640	100,259599	49,199	-0,095236	344,860000	0,000000
3,441690	101,488890	49,399	-0,094747	344,860000	0,000000
3,445626	105,104379	49,599	-0,093308	344,860000	0,000000
3,449625	106,185223	49,799	-0,092878	344,860000	0,000000
3,453634	109,708700	50,000	-0,091476	344,860000	0,000000
3,457653	111,145326	50,200	-0,090904	344,860000	0,000000
3,461623	113,348726	50,401	-0,090027	344,860000	0,000000
3,465653	115,733698	50,601	-0,089078	345,980000	0,000000
3,469597	118,002120	50,802	-0,088175	345,980000	0,000000
3,473649	120,287718	51,002	-0,087265	345,980000	0,000000
3,477648	122,174594	51,203	-0,086514	345,980000	0,000000
3,481674	124,425840	51,404	-0,085618	345,980000	0,000000
3,485594	126,902825	51,605	-0,084632	345,980000	0,000000
3,489658	129,038748	51,806	-0,083782	345,980000	0,000000
3,493606	130,784538	52,006	-0,083087	345,980000	0,000000
3,497681	133,501983	52,206	-0,082006	345,980000	0,000000
3,501599	136,052577	52,407	-0,080991	345,980000	0,000000
3,505650	139,800565	52,608	-0,079499	345,980000	0,000000
3,509680	140,972195	52,809	-0,079033	345,980000	0,000000
3,513601	143,033282	53,009	-0,078212	345,980000	0,000000
3,517612	145,560567	53,209	-0,077207	345,980000	0,000000
3,521713	148,095212	53,409	-0,076198	345,980000	0,000000
3,525649	150,247085	53,610	-0,075341	345,980000	0,000000
3,529634	152,657820	53,810	-0,074382	345,980000	0,000000
3,533646	156,256134	54,010	-0,072950	345,980000	0,000000
3,537614	157,368876	54,210	-0,072507	345,980000	0,000000
3,541605	161,175752	54,410	-0,070992	345,980000	0,000000
3,545673	161,798985	54,610	-0,070744	345,980000	0,000000
3,549645	165,929746	54,810	-0,069100	345,980000	0,000000
3,553622	167,865696	55,011	-0,068329	345,980000	0,000000
3,557680	170,600316	55,211	-0,067241	345,980000	0,000000
3,561675	172,952163	55,411	-0,066305	345,980000	0,000000
3,565609	174,048956	55,611	-0,065868	345,980000	0,000000
3,569623	176,982324	55,812	-0,064701	345,980000	0,000000
3,573725	180,456727	56,012	-0,063318	345,980000	0,000000
3,577624	181,861456	56,213	-0,062759	345,980000	0,000000
3,581666	184,229252	56,413	-0,061816	345,980000	0,000000
3,585636	187,611642	56,613	-0,060470	345,980000	0,000000
3,589660	189,190582	56,814	-0,059842	345,980000	0,000000
3,593627	191,335093	57,014	-0,058988	345,980000	0,000000
3,597598	194,933407	57,215	-0,057556	345,980000	0,000000
3,601628	195,657241	57,416	-0,057268	345,980000	0,000000
3,605627	198,923082	57,617	-0,055968	345,980000	0,000000
3,609629	201,349766	57,817	-0,055002	345,980000	0,000000
3,613611	203,534764	58,017	-0,054133	345,980000	0,000000
3,617570	205,338215	58,217	-0,053415	345,980000	0,000000
3,621572	208,213921	58,417	-0,052271	345,980000	0,000000
3,625588	210,607481	58,619	-0,051318	345,840000	0,000000
3,629563	213,657398	58,820	-0,050104	345,840000	0,000000
3,633645	215,152913	59,020	-0,049509	345,840000	0,000000
3,637605	217,396798	59,220	-0,048616	345,840000	0,000000
3,641598	219,940032	59,420	-0,047604	345,840000	0,000000
3,645560	223,705196	59,621	-0,046105	345,840000	0,000000
3,649630	224,744327	59,821	-0,045691	345,840000	0,000000
3,653644	227,237261	60,021	-0,044699	345,840000	0,000000
3,657649	229,679894	60,221	-0,043727	345,840000	0,000000
3,659674	232,090629	60,421	-0,042768	345,840000	0,000000
3,659636	231,782693	60,621	-0,042890	345,840000	0,000000
3,659605	231,766744	60,821	-0,042896	345,840000	0,000000
3,659601	231,368022	61,021	-0,043055	345,840000	0,000000
3,659588	230,860111	61,221	-0,043257	345,840000	0,000000
3,659630	231,026961	61,422	-0,043191	345,840000	0,000000
3,659579	230,910411	61,624	-0,043237	345,840000	0,000000
3,659634	230,593887	61,824	-0,043363	345,840000	0,000000
3,659582	230,644188	62,024	-0,043343	345,840000	0,000000
3,659619	230,377964	62,224	-0,043449	345,840000	0,000000
3,659638	230,527638	62,424	-0,043390	345,840000	0,000000
3,659641	229,987830	62,625	-0,043604	346,560000	0,000000
3,659613	229,954705	62,825	-0,043618	346,560000	0,000000
3,659646	230,212341	63,027	-0,043515	346,560000	0,000000
3,659626	229,921581	63,227	-0,043631	346,560000	0,000000
3,659603	229,597696	63,427	-0,043760	346,560000	0,000000
3,659631	229,538807	63,628	-0,043783	346,560000	0,000000
3,659583	229,613644	63,829	-0,043753	346,560000	0,000000
3,659643	229,630820	64,030	-0,043747	346,560000	0,000000
3,659572	229,713018	64,230	-0,043714	346,560000	0,000000
3,659601	229,522858	64,430	-0,043790	346,560000	0,000000
3,659609	229,397721	64,630	-0,043839	0,000000	0,670000
3,659592	229,389133	64,830	-0,043843	0,000000	0,670000
3,659606	229,322884	65,030	-0,043869	0,000000	0,670000
3,659661	228,957286	65,231	-0,044015	0,000000	0,670000
3,659605	229,148673	65,432	-0,043938	0,000000	0,670000
3,659570	229,248047	65,632	-0,043899	0,000000	0,670000
3,659644	228,965874	65,832	-0,044011	0,000000	0,670000
3,659583	228,790437	66,032	-0,044081	0,000000	0,670000
3,659619	228,873861	66,232	-0,044048	0,000000	0,670000
3,659669	228,783076	66,432	-0,044084	0,000000	0,670000
3,659643	228,459190	66,632	-0,044213	0,000000	1,080000
3,659641	228,757312	66,832	-0,044094	0,000000	1,080000
3,659644	228,757312	67,032	-0,044094	0,000000	1,080000
3,659613	228,924162	67,232	-0,044028	0,000000	1,080000
3,659610	228,358590	67,432	-0,044253	0,000000	1,080000
3,659592	228,375766	67,632	-0,044246	0,000000	1,080000
3,659641	228,816200	67,832	-0,044071	0,000000	1,080000
3,659647	228,450603	68,032	-0,044216	0,000000	1,080000
3,659580	228,334053	68,232	-0,044263	0,000000	1,080000
3,659714	228,316877	68,433	-0,044270	0,000000	1,080000
3,659597	228,342641	68,634	-0,044259	0,000000	0,500000
3,659665	228,367178	68,834	-0,044250	0,000000	0,500000
3,659664	228,208916	69,034	-0,044312	0,000000	0,500000
3,659681	227,794245	69,234	-0,044478	0,000000	0,500000
3,659571	228,201555	69,434	-0,044315	0,000000	0,500000
3,659640	228,234679	69,634	-0,044302	0,000000	0,500000
3,659613	228,059242	69,834	-0,044372	0,000000	0,500000
3,659638	228,201555	70,035	-0,044315	0,000000	0,500000
3,659597	228,067829	70,235	-0,044369	0,000000	0,500000
3,657644	226,471714	70,436	-0,045004	0,000000	0,500000
3,653675	225,143049	70,636	-0,045533	0,000000	0,500000
3,649623	222,350768	70,836	-0,046644	0,000000	0,500000
3,645628	218,028620	71,036	-0,048364	0,000000	0,500000
3,641647	216,766204	71,236	-0,048867	0,000000	0,500000
3,637666	213,972696	71,437	-0,049979	0,000000	0,500000
3,633629	211,638024	71,637	-0,050908	0,000000	0,500000
3,629587	208,962292	71,837	-0,051973	0,000000	0,500000
3,625616	206,518432	72,037	-0,052945	0,000000	0,500000
3,621602	203,518815	72,238	-0,054139	0,000000	0,500000
3,617625	201,224629	72,439	-0,055052	0,000000	0,500000
3,613606	196,886532	72,640	-0,056779	0,000000	0,290000
3,609600	194,226749	72,841	-0,057837	0,000000	0,290000
3,605574	192,880908	73,041	-0,058373	0,000000	0,290000
3,601632	189,016371	73,241	-0,059911	0,000000	0,290000
3,597577	186,697648	73,441	-0,060834	0,000000	0,290000
3,593633	184,686862	73,642	-0,061634	0,000000	0,290000
3,589650	182,650312	73,843	-0,062445	0,000000	0,290000
3,585678	179,501021	74,044	-0,063698	0,000000	0,290000
3,581653	176,825289	74,244	-0,064763	0,000000	0,290000
3,577656	174,539691	74,445	-0,065673	0,000000	0,290000
3,573626	171,214962	74,646	-0,066996	0,000000	0,670000
3,569643	169,153875	74,847	-0,067816	0,000000	0,670000
3,565665	166,319881	75,047	-0,068944	0,000000	0,670000
3,561588	162,697030	75,247	-0,070386	0,000000	0,670000
3,557650	161,807573	75,447	-0,070740	0,000000	0,670000
3,553685	159,405426	75,649	-0,071696	0,000000	0,670000
3,549657	156,546895	75,850	-0,072834	0,000000	0,670000
3,545635	154,170511	76,050	-0,073780	0,000000	0,670000
3,541634	151,526676	76,250	-0,074832	0,000000	0,670000
3,537598	147,379966	76,450	-0,076482	0,000000	0,670000
3,533673	146,291762	76,650	-0,076916	0,000000	0,670000
3,529677	143,948502	76,852	-0,077848	0,000000	0,670000
3,525631	141,321844	77,052	-0,078894	0,000000	0,670000
3,521665	137,232795	77,253	-0,080521	0,000000	0,670000
3,517658	134,623312	77,454	-0,081560	0,000000	0,670000
3,513664	132,770788	77,655	-0,082297	0,000000	0,670000
3,509650	129,994455	77,856	-0,083402	0,000000	0,670000
3,505656	127,235298	78,057	-0,084500	0,000000	0,670000
3,501589	125,107962	78,257	-0,085347	0,000000	0,670000
3,497654	122,714402	78,457	-0,086299	0,000000	0,670000
3,493619	120,246005	78,658	-0,087282	0,000000	0,670000
3,489639	117,370299	78,859	-0,088426	0,000000	0,670000
3,485587	115,035627	79,059	-0,089355	0,000000	0,670000
3,481707	112,699729	79,259	-0,090285	0,000000	0,670000
3,477647	111,337940	79,459	-0,090827	0,000000	0,670000
3,473638	107,713862	79,659	-0,092270	0,000000	0,670000
3,469685	104,979242	79,859	-0,093358	0,000000	0,670000
3,465681	102,585682	80,061	-0,094311	0,000000	0,670000
3,461614	99,976199	80,262	-0,095349	0,000000	0,670000
3,457676	98,430384	80,462	-0,095964	0,000000	0,670000
3,453685	96,078537	80,663	-0,096900	363,710000	156,715000
3,449681	93,710741	80,864	-0,097843	363,710000	156,715000
3,445621	91,325769	81,065	-0,098792	363,710000	156,715000
3,441655	89,313756	81,266	-0,099593	363,710000	156,715000
3,437700	86,404925	81,467	-0,100750	363,710000	156,715000
3,433722	84,053078	81,668	-0,101687	363,710000	156,715000
3,429646	80,554138	81,868	-0,103079	363,710000	156,715000
3,425624	79,250010	82,068	-0,103598	363,710000	156,715000
3,421670	76,407428	82,268	-0,104729	363,710000	156,715000
3,417633	72,434929	82,468	-0,106311	363,710000	156,715000
3,413635	70,457267	82,669	-0,107098	363,710000	156,715000
3,409655	69,277049	82,870	-0,107567	363,710000	156,715000
3,405654	66,658978	83,070	-0,108609	363,710000	156,715000
3,401653	63,443438	83,271	-0,109889	363,710000	156,715000
3,397715	60,517431	83,471	-0,111054	363,710000	156,715000
3,393741	58,231833	83,673	-0,111963	363,710000	156,715000
3,389643	57,235641	83,873	-0,112360	363,710000	156,715000
3,385700	54,583219	84,074	-0,113416	363,710000	156,715000
3,381688	51,127218	84,274	-0,114791	363,710000	156,715000
3,377685	50,162924	84,474	-0,115175	363,710000	156,715000
3,373672	46,423524	84,675	-0,116663	363,710000	156,715000
3,369718	44,063089	84,877	-0,117603	363,710000	156,715000
3,365672	42,035127	85,077	-0,118410	363,710000	156,715000
3,361728	40,315101	85,277	-0,119094	363,710000	156,715000
3,357658	37,049260	85,478	-0,120394	363,710000	156,715000
3,353660	35,286295	85,678	-0,121096	363,710000	156,715000
3,349666	33,009285	85,879	-0,122002	363,710000	156,715000
3,345651	30,267303	86,080	-0,123093	363,710000	156,715000
3,341637	27,133961	86,280	-0,124340	363,710000	156,715000
3,337665	25,713283	86,480	-0,124906	363,710000	156,715000
3,333709	23,194586	86,680	-0,125908	363,710000	156,715000
3,329694	21,034126	86,880	-0,126768	363,710000	156,715000
3,325716	19,039288	87,080	-0,127562	363,710000	156,715000
3,321699	16,579479	87,280	-0,128541	363,710000	156,715000
3,317726	12,806955	87,480	-0,130042	363,710000	156,715000
3,313687	10,305433	87,680	-0,131038	363,710000	156,715000
3,309663	8,194046	87,880	-0,131878	363,710000	156,715000
3,305661	5,859375	88,081	-0,132808	363,710000	156,715000
3,301699	4,903669	88,281	-0,133188	363,710000	156,715000
3,297670	2,426684	88,481	-0,134174	363,710000	156,715000
3,293680	-1,047719	88,681	-0,135557	363,710000	156,715000
3,289726	-2,202173	88,881	-0,136016	363,710000	156,715000
3,285709	-4,287796	89,081	-0,136846	363,710000	156,715000
3,281755	-6,681356	89,281	-0,137799	363,710000	156,715000
3,277758	-10,430571	89,482	-0,139291	363,710000	156,715000
3,273696	-12,748067	89,683	-0,140213	363,710000	156,715000
3,269705	-13,637524	89,883	-0,140567	363,710000	156,715000
3,265681	-16,023722	90,083	-0,141517	363,710000	156,715000
3,261731	-18,092170	90,283	-0,142340	363,710000	156,715000
3,257724	-20,087007	90,484	-0,143134	363,710000	156,715000
3,253674	-22,438854	90,685	-0,144070	363,710000	156,715000
3,249728	-24,832414	90,885	-0,145023	363,710000	156,715000
3,245663	-28,571814	91,087	-0,146511	363,710000	156,715000
3,241690	-30,641489	91,289	-0,147335	363,710000	156,715000
3,237679	-32,552901	91,490	-0,148096	363,710000	156,715000
3,233720	-33,517195	91,690	-0,148479	363,710000	156,715000
3,229698	-36,899586	91,891	-0,149826	363,710000	156,715000
3,225731	-38,511650	92,093	-0,150467	363,710000	156,715000
3,221683	-41,620456	92,293	-0,151705	363,710000	156,715000
3,217649	-43,589530	92,493	-0,152488	363,710000	156,715000
3,213721	-44,860533	92,693	-0,152994	363,710000	156,715000
3,209746	-47,586566	92,893	-0,154079	363,710000	156,715000
3,205675	-49,847627	93,094	-0,154979	363,710000	156,715000
3,201746	-52,032624	93,294	-0,155849	363,710000	156,715000
3,197772	-54,018874	93,495	-0,156639	363,710000	156,715000
3,193712	-56,163385	93,696	-0,157493	363,710000	156,715000
3,189743	-58,158223	93,897	-0,158287	363,710000	156,715000
3,185722	-60,227897	94,098	-0,159110	363,710000	156,715000
3,181686	-62,322109	94,299	-0,159944	363,710000	156,715000
3,177776	-64,108384	94,499	-0,160655	363,710000	156,715000
3,173718	-66,343681	94,699	-0,161544	363,710000	156,715000
3,169753	-68,679580	94,901	-0,162474	363,710000	156,715000
3,165708	-71,738085	95,102	-0,163691	363,710000	156,715000
3,161759	-72,452104	95,302	-0,163976	363,710000	156,715000
3,157733	-75,634520	95,502	-0,165242	363,710000	156,715000
3,153694	-77,604821	95,703	-0,166026	363,710000	156,715000
3,149756	-79,391096	95,904	-0,166737	363,710000	156,715000
3,145683	-80,562726	96,104	-0,167204	363,710000	156,715000
3,141667	-83,497321	96,304	-0,168372	363,710000	156,715000
3,137703	-83,970880	96,504	-0,168560	363,710000	156,715000
3,133722	-85,849168	96,704	-0,169308	363,710000	156,715000
3,129716	-87,518893	96,904	-0,169972	363,710000	156,715000
3,125728	-90,535686	97,104	-0,171173	363,710000	156,715000
3,121686	-92,396798	97,304	-0,171914	363,710000	156,715000
3,117748	-93,486230	97,506	-0,172347	363,710000	156,715000
3,113733	-96,079764	97,706	-0,173379	363,710000	156,715000
3,109782	-96,668646	97,906	-0,173614	363,710000	156,715000
3,105774	-99,321068	98,107	-0,174669	363,710000	156,715000
3,101718	-101,206717	98,308	-0,175420	363,710000	156,715000
3,097784	-102,536609	98,509	-0,175949	363,710000	156,715000
3,093720	-103,882449	98,710	-0,176485	363,710000	156,715000
3,089741	-105,046718	98,911	-0,176948	363,710000	156,715000
3,085740	-107,879485	99,111	-0,178076	363,710000	156,715000
3,081743	-108,944380	99,311	-0,178500	363,710000	156,715000
3,077716	-110,347882	99,511	-0,179058	363,710000	156,715000
3,073711	-111,122016	99,711	-0,179366	363,710000	156,715000
3,069745	-112,700956	99,911	-0,179995	363,710000	156,715000
3,065683	-113,573237	100,111	-0,180342	363,710000	156,715000
3,061805	-113,938835	100,311	-0,180487	363,710000	156,715000
3,057746	-115,277314	100,511	-0,181020	363,710000	156,715000
3,053716	-115,451525	100,712	-0,181089	363,710000	156,715000
3,049746	-116,083346	100,912	-0,181341	363,710000	156,715000
3,045721	-117,437775	101,112	-0,181880	363,710000	156,715000
3,041785	-120,172395	101,314	-0,182968	363,710000	156,715000
3,037742	-121,892421	101,515	-0,183653	363,710000	156,715000
3,033732	-122,224894	101,715	-0,183785	363,710000	156,715000
3,029747	-125,358236	101,915	-0,185032	363,710000	156,715000
3,025802	-125,506684	102,115	-0,185091	363,710000	156,715000
3,021768	-127,435272	102,316	-0,185859	363,710000	156,715000
3,017767	-130,901087	102,516	-0,187238	363,710000	156,715000
3,013762	-132,645650	102,716	-0,187933	363,710000	156,715000
3,009752	-133,268883	102,916	-0,188181	363,710000	156,715000
3,005749	-135,105459	103,116	-0,188912	363,710000	156,715000
3,001781	-137,216846	103,317	-0,189752	363,710000	156,715000
2,997714	-140,440974	103,519	-0,191035	363,710000	156,715000
2,993776	-140,799211	103,721	-0,191178	363,710000	156,715000
2,989719	-142,851710	103,921	-0,191995	363,710000	156,715000
2,985760	-145,286982	104,122	-0,192964	363,710000	156,715000
2,981742	-147,646190	104,322	-0,193903	363,710000	156,715000
2,977735	-149,766165	104,523	-0,194747	363,710000	156,715000
2,973758	-151,311980	104,723	-0,195362	363,710000	156,715000
2,969760	-153,148555	104,923	-0,196093	363,710000	156,715000
2,965735	-154,752032	105,124	-0,196731	363,710000	156,715000
2,961740	-156,447521	105,324	-0,197406	363,710000	156,715000
2,957788	-157,660863	105,524	-0,197889	363,710000	156,715000
2,953744	-159,422601	105,725	-0,198590	363,710000	156,715000
2,949757	-161,849285	105,926	-0,199556	363,710000	156,715000
2,945679	-163,196353	106,127	-0,200092	363,710000	156,715000
2,941724	-164,974040	106,328	-0,200799	363,710000	156,715000
2,937704	-168,347843	106,530	-0,202142	363,710000	156,715000
2,933736	-169,096213	106,730	-0,202440	363,710000	156,715000
2,929822	-170,608904	106,931	-0,203042	363,710000	156,715000
2,925813	-172,462655	107,131	-0,203780	363,710000	156,715000
2,921775	-174,448905	107,331	-0,204570	363,710000	156,715000
2,917781	-176,176292	107,532	-0,205258	363,710000	156,715000
2,913764	-177,814119	107,733	-0,205910	363,710000	156,715000
2,909814	-179,808957	107,933	-0,206704	363,710000	156,715000
2,905761	-181,795207	108,134	-0,207494	363,710000	156,715000
2,901727	-184,512651	108,334	-0,208576	363,710000	156,715000
2,897709	-186,432652	108,535	-0,209340	363,710000	156,715000
2,893790	-188,227515	108,735	-0,210054	363,710000	156,715000
2,889797	-189,240882	108,937	-0,210458	363,710000	156,715000
2,885763	-191,327732	109,138	-0,211288	363,710000	156,715000
2,881763	-192,806071	109,338	-0,211876	363,710000	156,715000
2,877784	-193,521318	109,539	-0,212161	363,710000	156,715000
2,873783	-196,113625	109,740	-0,213193	363,710000	156,715000
2,869737	-196,587184	109,941	-0,213381	363,710000	156,715000
2,865767	-198,009088	110,142	-0,213947	363,710000	156,715000
2,861765	-200,127836	110,342	-0,214791	363,710000	156,715000
2,857816	-200,178137	110,542	-0,214811	363,710000	156,715000
2,853735	-200,817319	110,742	-0,215065	363,710000	156,715000
2,849710	-201,865038	110,942	-0,215482	363,710000	156,715000
2,845732	-202,331236	111,143	-0,215667	363,710000	156,715000
2,841789	-202,280936	111,343	-0,215647	363,710000	156,715000
2,837755	-201,532565	111,545	-0,215350	363,710000	156,715000
2,833785	-194,759196	111,746	-0,212654	363,710000	156,715000
2,829739	-152,957169	111,947	-0,196017	363,710000	156,715000
2,825732	-146,773909	112,148	-0,193556	363,710000	156,715000
2,821727	-144,663748	112,348	-0,192716	363,710000	156,715000
2,817794	-142,244425	112,549	-0,191753	363,710000	156,715000
2,813722	-140,583288	112,749	-0,191092	363,710000	156,715000
2,809770	-140,731735	112,949	-0,191151	363,710000	156,715000
2,805739	-141,845703	113,149	-0,191594	363,710000	156,715000
2,801783	-140,865460	113,349	-0,191204	363,710000	156,715000
2,797807	-141,953665	113,549	-0,191637	363,710000	156,715000
2,793798	-143,133882	113,749	-0,192107	363,710000	156,715000
2,789721	-144,081001	113,950	-0,192484	363,710000	156,715000
2,785789	-144,472362	114,150	-0,192640	363,710000	156,715000
2,781777	-145,210918	114,351	-0,192934	363,710000	156,715000
2,777760	-145,776490	114,552	-0,193159	363,710000	156,715000
2,773753	-146,615647	114,752	-0,193493	363,710000	156,715000
2,769784	-147,139506	114,952	-0,193701	363,710000	156,715000
2,765787	-147,903826	115,153	-0,194005	363,710000	156,715000
2,761737	-147,870701	115,353	-0,193992	363,710000	156,715000
2,757775	-148,361436	115,553	-0,194188	363,710000	156,715000
2,753779	-148,370024	115,753	-0,194191	363,710000	156,715000
2,749753	-147,828989	115,953	-0,193976	363,710000	156,715000
2,745798	-148,859532	116,154	-0,194386	363,710000	156,715000
2,741740	-148,777334	116,354	-0,194353	363,710000	156,715000
2,737817	-149,068094	116,555	-0,194469	363,710000	156,715000
2,733772	-149,665564	116,757	-0,194707	363,710000	156,715000
2,729802	-150,147711	116,957	-0,194898	363,710000	156,715000
2,725764	-150,339098	117,157	-0,194975	363,710000	156,715000
2,721782	-149,940376	117,358	-0,194816	363,710000	156,715000
2,717748	-150,006625	117,558	-0,194842	363,710000	156,715000
2,713820	-150,596734	117,758	-0,195077	363,710000	156,715000
2,709755	-150,314561	117,958	-0,194965	363,710000	156,715000
2,705725	-149,009206	118,159	-0,194445	363,710000	156,715000
2,701741	-147,862113	118,360	-0,193989	363,710000	156,715000
2,697737	-146,432848	118,560	-0,193420	363,710000	156,715000
2,693757	-142,385512	118,760	-0,191809	363,710000	156,715000
2,689752	-138,513613	118,960	-0,190268	363,710000	156,715000
2,685749	-129,322148	119,160	-0,186610	363,710000	156,715000
2,681742	-122,972038	119,361	-0,184083	363,710000	156,715000
2,677780	-112,842042	119,561	-0,180051	363,710000	156,715000
2,673805	-1,047719	119,762	-0,135557	363,710000	156,715000
2,669738	-1,039131	119,962	-0,135553	363,710000	156,715000
2,665723	-1,063668	120,162	-0,135563	363,710000	156,715000
2,661767	-1,404729	120,362	-0,135699	363,710000	156,715000
2,657799	-1,047719	120,562	-0,135557	363,710000	156,715000
2,653750	-1,163042	120,762	-0,135603	363,710000	156,715000
2,649726	-0,972882	120,963	-0,135527	363,710000	156,715000
2,645779	-0,955706	121,164	-0,135520	363,710000	156,715000
2,641776	-1,006007	121,365	-0,135540	363,710000	156,715000
2,637783	-1,204754	121,565	-0,135619	363,710000	156,715000
2,633762	-1,072256	121,765	-0,135566	363,710000	156,715000
2,629762	-1,063668	121,965	-0,135563	363,710000	156,715000
2,625822	-0,955706	122,165	-0,135520	363,710000	156,715000
2,621770	-0,931170	122,366	-0,135510	363,710000	156,715000
2,617771	-1,188805	122,566	-0,135613	363,710000	156,715000
2,613709	-0,939757	122,767	-0,135514	363,710000	156,715000
2,609826	-1,056307	122,968	-0,135560	363,710000	156,715000
2,605749	-1,305355	123,168	-0,135659	363,710000	156,715000
2,601758	-1,047719	123,368	-0,135557	363,710000	156,715000
2,597777	-0,964294	123,569	-0,135523	363,710000	156,715000
2,593739	-0,922582	123,771	-0,135507	363,710000	156,715000
2,589793	-0,798671	123,971	-0,135458	363,710000	156,715000
2,585713	-1,354428	124,172	-0,135679	363,710000	156,715000
2,581802	-0,898045	124,372	-0,135497	363,710000	156,715000
2,577799	-1,030543	124,573	-0,135550	363,710000	156,715000
2,573771	-0,905406	124,774	-0,135500	363,710000	156,715000
2,569792	-1,039131	124,974	-0,135553	363,710000	156,715000
2,565760	-0,641636	125,174	-0,135395	363,710000	156,715000
2,561752	-0,922582	125,374	-0,135507	363,710000	156,715000
2,557785	-1,105380	125,574	-0,135580	363,710000	156,715000
2,553746	-0,889457	125,775	-0,135494	363,710000	156,715000
2,549757	-0,790083	125,976	-0,135454	363,710000	156,715000
2,545801	-0,872281	126,177	-0,135487	363,710000	156,715000
2,541758	-0,889457	126,377	-0,135494	363,710000	156,715000
2,537778	-0,880869	126,578	-0,135490	363,710000	156,715000
2,533756	-0,856332	126,778	-0,135480	363,710000	156,715000
2,529762	-0,856332	126,978	-0,135480	363,710000	156,715000
2,525808	-0,939757	127,178	-0,135514	363,710000	156,715000
2,521792	-0,823208	127,378	-0,135467	363,710000	156,715000
2,517773	-0,955706	127,579	-0,135520	363,710000	156,715000
2,513780	-1,105380	127,779	-0,135580	363,710000	156,715000
2,509728	-0,806032	127,980	-0,135460	363,710000	156,715000
2,505758	-0,615872	128,182	-0,135385	363,710000	156,715000
2,501824	-0,731195	128,382	-0,135431	363,710000	156,715000
2,497784	-0,955706	128,582	-0,135520	363,710000	156,715000
2,493753	-0,640409	128,782	-0,135395	363,710000	156,715000
2,489766	-0,772908	128,982	-0,135447	363,710000	156,715000
2,485823	-0,731195	129,182	-0,135431	363,710000	156,715000
2,481788	-0,872281	129,382	-0,135487	363,710000	156,715000
2,477784	-1,021955	129,583	-0,135546	363,710000	156,715000
2,473816	-0,847745	129,784	-0,135477	363,710000	156,715000
2,469801	-0,623233	129,984	-0,135388	363,710000	156,715000
2,465767	-0,706658	130,185	-0,135421	363,710000	156,715000
2,461738	-1,063668	130,385	-0,135563	363,710000	156,715000
2,459747	-0,880869	130,485	-0,135490	363,710000	156,715000

X-Pos [um]	Y-Pos [um]
19,999570	25,004674

POC
3,175349
2,477304	-0,133725	0,299	-0,135355	363,710000	156,715000
2,481234	-0,158262	0,500	-0,135365	363,710000	156,715000
2,485265	-0,307936	0,701	-0,135424	363,710000	156,715000
2,489276	0,074837	0,902	-0,135272	363,710000	156,715000
2,493248	-0,240460	1,103	-0,135397	363,710000	156,715000
2,497285	-0,050300	1,304	-0,135322	363,710000	156,715000
2,501270	-0,374185	1,505	-0,135451	363,710000	156,715000
2,505215	0,074837	1,707	-0,135272	363,710000	156,715000
2,509309	-0,149674	1,909	-0,135361	363,710000	156,715000
2,513279	-0,457610	2,109	-0,135484	363,710000	156,715000
2,517319	-0,307936	2,309	-0,135424	363,710000	156,715000
2,521302	-0,208562	2,510	-0,135385	363,710000	156,715000
2,525271	-0,158262	2,710	-0,135365	363,710000	156,715000
2,529255	-0,057661	2,912	-0,135325	363,710000	156,715000
2,533259	-0,257636	3,112	-0,135404	363,710000	156,715000
2,537310	-0,349649	3,314	-0,135441	363,710000	156,715000
2,541278	-0,057661	3,515	-0,135325	363,710000	156,715000
2,545248	0,257636	3,715	-0,135199	363,710000	156,715000
2,549311	-0,057661	3,916	-0,135325	363,710000	156,715000
2,553288	0,008588	4,116	-0,135298	363,710000	156,715000
2,557261	-0,266224	4,317	-0,135408	363,710000	156,715000
2,561272	0,099374	4,517	-0,135262	363,710000	156,715000
2,565357	-0,208562	4,717	-0,135385	363,710000	156,715000
2,569290	-0,307936	4,917	-0,135424	363,710000	156,715000
2,573269	-0,008588	5,118	-0,135305	363,710000	156,715000
2,577204	-0,349649	5,318	-0,135441	363,710000	156,715000
2,581296	-0,233099	5,518	-0,135395	363,710000	156,715000
2,585253	-0,290760	5,718	-0,135417	363,710000	156,715000
2,589323	-0,174211	5,918	-0,135371	363,710000	156,715000
2,593279	-0,431847	6,120	-0,135474	363,710000	156,715000
2,597216	-0,523860	6,321	-0,135510	363,710000	156,715000
2,601247	-0,307936	6,521	-0,135424	363,710000	156,715000
2,605262	-0,215923	6,722	-0,135388	363,710000	156,715000
2,609289	-0,024537	6,922	-0,135312	363,710000	156,715000
2,613271	-0,365598	7,123	-0,135447	363,710000	156,715000
2,617295	-0,215923	7,323	-0,135388	363,710000	156,715000
2,621251	-0,141086	7,523	-0,135358	363,710000	156,715000
2,625297	-0,107962	7,723	-0,135345	363,710000	156,715000
2,629203	-0,015949	7,923	-0,135308	363,710000	156,715000
2,633252	-0,299348	8,123	-0,135421	363,710000	156,715000
2,637257	-0,299348	8,324	-0,135421	363,710000	156,715000
2,641287	-0,083425	8,524	-0,135335	363,710000	156,715000
2,645256	-0,415898	8,724	-0,135467	363,710000	156,715000
[...]
3,507599	208,180797	58,611	-0,052545	0,000000	0,000000
3,511564	209,310714	58,811	-0,052095	0,000000	0,000000
3,515581	211,928785	59,011	-0,051053	0,000000	0,000000
3,519588	214,014408	59,211	-0,050223	0,000000	0,000000
3,523549	216,764977	59,411	-0,049128	0,000000	0,000000
3,527614	219,092288	59,611	-0,048202	0,000000	0,000000
3,531646	222,765439	59,812	-0,046740	0,000000	0,000000
3,535591	225,308672	60,013	-0,045728	0,000000	0,000000
3,539584	226,206717	60,213	-0,045371	0,000000	0,000000
3,541576	228,765900	60,413	-0,044352	0,000000	0,000000
3,541577	228,242040	60,613	-0,044561	0,000000	0,000000
3,541558	228,159842	60,814	-0,044593	0,000000	0,000000
3,541573	227,577094	61,015	-0,044825	0,000000	0,000000
3,541550	227,793018	61,216	-0,044739	0,000000	0,000000
3,541542	227,585682	61,418	-0,044822	0,000000	0,000000
3,541652	227,477721	61,619	-0,044865	0,000000	0,000000
3,541579	227,411471	61,819	-0,044891	0,000000	0,000000
3,541608	227,045874	62,019	-0,045037	0,000000	0,000000
3,541572	227,294922	62,219	-0,044937	0,000000	0,000000
3,541561	227,070411	62,419	-0,045027	0,000000	0,000000
3,541617	227,078999	62,619	-0,045023	0,000000	0,000000
3,541551	226,647152	62,819	-0,045195	0,000000	0,000000
3,541601	226,887612	63,019	-0,045100	0,000000	0,000000
3,541572	226,647152	63,219	-0,045195	0,000000	0,000000
3,541534	226,463126	63,419	-0,045269	0,000000	0,000000
3,541560	226,522014	63,620	-0,045245	0,000000	0,000000
3,541593	226,022692	63,820	-0,045444	0,000000	0,000000
3,541602	226,081580	64,021	-0,045420	0,000000	0,000000
3,541551	226,081580	64,221	-0,045420	0,000000	0,000000
3,541538	225,990794	64,423	-0,045457	0,000000	0,000000
3,541561	226,039867	64,623	-0,045437	0,000000	0,000000
3,541550	226,123292	64,824	-0,045404	0,000000	0,000000
3,541602	225,790819	65,025	-0,045536	0,000000	0,000000
3,541559	225,782231	65,226	-0,045540	0,000000	0,000000
3,541564	225,757695	65,427	-0,045549	0,000000	0,000000
3,541554	225,773644	65,627	-0,045543	0,000000	0,000000
3,541562	225,674270	65,828	-0,045583	0,000000	0,000000
3,541628	225,557720	66,029	-0,045629	0,000000	0,000000
3,541543	225,790819	66,229	-0,045536	0,000000	0,000000
3,541556	225,408046	66,429	-0,045688	0,000000	0,000000
3,541545	225,491471	66,629	-0,045655	0,000000	0,000000
3,541591	225,533183	66,829	-0,045639	0,000000	0,000000
3,541563	225,183535	67,029	-0,045778	0,000000	0,000000
3,541582	224,918538	67,229	-0,045883	0,000000	0,000000
3,541568	225,176174	67,429	-0,045781	0,000000	0,000000
3,541568	225,017912	67,630	-0,045844	0,000000	0,000000
3,541533	225,374921	67,830	-0,045702	0,000000	0,000000
3,541598	225,059624	68,030	-0,045827	0,000000	0,000000
3,541508	225,009324	68,230	-0,045847	0,000000	0,000000
3,541567	224,843701	68,431	-0,045913	0,000000	0,000000
3,541528	224,718564	68,631	-0,045963	0,000000	0,000000
3,541520	224,876826	68,831	-0,045900	0,000000	0,000000
3,541594	224,676851	69,032	-0,045979	0,000000	0,000000
3,541577	224,801988	69,233	-0,045930	0,000000	0,000000
3,541542	224,602014	69,434	-0,046009	0,000000	0,000000
3,541579	224,694027	69,634	-0,045973	0,000000	0,000000
3,541573	224,709976	69,834	-0,045966	0,000000	0,000000
3,541509	224,377503	70,036	-0,046099	0,000000	0,000000
3,541609	224,469516	70,237	-0,046062	0,000000	0,000000
3,539501	223,430384	70,437	-0,046476	0,000000	0,000000
3,535533	221,344761	70,637	-0,047306	0,000000	0,000000
3,531528	217,962370	70,837	-0,048652	0,000000	0,000000
3,527594	215,410549	71,038	-0,049667	0,000000	0,000000
3,523557	212,818242	71,239	-0,050699	0,000000	0,000000
3,519538	210,116746	71,439	-0,051774	0,000000	0,000000
3,515551	207,665525	71,639	-0,052750	0,000000	0,000000
3,511594	203,992374	71,841	-0,054212	0,000000	0,000000
3,507612	202,678431	72,041	-0,054735	0,000000	0,000000
3,503531	198,980744	72,241	-0,056207	0,000000	0,000000
3,499538	197,734277	72,442	-0,056703	0,000000	0,000000
3,495577	195,091669	72,642	-0,057754	0,000000	0,000000
3,491643	192,523899	72,842	-0,058776	0,000000	0,000000
3,487589	189,472754	73,042	-0,059991	0,000000	0,000000
3,483573	185,625393	73,243	-0,061522	0,000000	0,000000
3,479559	183,074798	73,445	-0,062537	0,000000	0,000000
3,475590	180,448139	73,646	-0,063583	0,000000	0,000000
3,471621	179,351347	73,846	-0,064019	0,000000	0,000000
3,467530	176,458464	74,046	-0,065170	0,000000	0,000000
3,463567	173,890694	74,247	-0,066192	0,000000	0,000000
3,459563	170,682514	74,447	-0,067469	0,000000	0,000000
3,455599	168,779689	74,648	-0,068227	0,000000	0,000000
3,451548	166,020532	74,848	-0,069325	0,000000	0,000000
3,447565	162,862653	75,050	-0,070582	0,000000	0,000000
3,443582	160,286295	75,252	-0,071607	0,000000	0,000000
3,439598	157,070754	75,452	-0,072887	0,000000	0,000000
3,435569	155,599776	75,653	-0,073472	0,000000	0,000000
3,431581	152,740018	75,854	-0,074610	0,000000	0,000000
3,427546	150,130535	76,055	-0,075649	0,000000	0,000000
3,423550	148,742982	76,257	-0,076201	0,000000	0,000000
3,419597	144,737359	76,459	-0,077795	0,000000	0,000000
3,415562	141,936489	76,660	-0,078910	0,000000	0,000000
3,411564	140,848284	76,860	-0,079343	0,000000	0,000000
3,407644	138,138201	77,061	-0,080422	0,000000	0,000000
3,403638	134,465050	77,261	-0,081884	0,000000	0,000000
3,399578	131,855567	77,462	-0,082922	0,000000	0,000000
3,395638	129,345458	77,664	-0,083921	0,000000	0,000000
3,391556	128,573777	77,865	-0,084229	0,000000	0,000000
3,387629	125,722607	78,066	-0,085363	0,000000	0,000000
3,383607	122,298504	78,266	-0,086726	0,000000	0,000000
3,379623	119,290299	78,467	-0,087923	0,000000	0,000000
3,375588	117,104075	78,668	-0,088793	0,000000	0,000000
3,371572	115,923858	78,868	-0,089263	0,000000	0,000000
3,367521	112,051959	79,069	-0,090804	0,000000	0,000000
3,363541	110,314757	79,269	-0,091496	0,000000	0,000000
3,359639	108,137121	79,470	-0,092362	0,000000	0,000000
3,355591	105,851523	79,671	-0,093272	0,000000	0,000000
3,351670	102,669107	79,871	-0,094539	0,000000	0,000000
3,347616	100,366334	80,073	-0,095455	0,000000	0,000000
3,343631	97,932288	80,273	-0,096424	0,000000	0,000000
3,339618	95,547317	80,473	-0,097373	0,000000	0,000000
3,335585	93,859189	80,673	-0,098045	0,000000	0,000000
3,331649	90,817859	80,873	-0,099255	0,000000	0,000000
3,327615	88,948159	81,073	-0,100000	0,000000	0,000000
3,323639	85,948542	81,274	-0,101193	0,000000	0,000000
3,319645	82,632400	81,474	-0,102513	0,000000	0,000000
3,315678	81,393295	81,676	-0,103006	0,000000	0,000000
3,311647	78,468514	81,876	-0,104170	0,000000	0,000000
3,307605	76,440552	82,076	-0,104978	0,000000	0,000000
3,303660	73,058162	82,276	-0,106324	0,000000	0,000000
3,299684	71,179874	82,476	-0,107071	0,000000	0,000000
3,295602	69,609522	82,677	-0,107696	0,000000	0,000000
3,291670	67,231912	82,878	-0,108643	0,000000	0,000000
3,287642	63,276588	83,079	-0,110217	0,000000	0,000000
3,283595	62,461968	83,280	-0,110541	0,000000	0,000000
3,279685	58,249009	83,480	-0,112218	0,000000	0,000000
3,275627	57,300663	83,680	-0,112595	0,000000	0,000000
3,271578	53,279091	83,880	-0,114196	0,000000	0,000000
3,267641	51,384854	84,081	-0,114950	0,000000	0,000000
3,263587	50,170285	84,282	-0,115433	0,000000	0,000000
3,259607	47,777952	84,482	-0,116385	0,000000	0,000000
3,255611	43,979664	84,683	-0,117897	0,000000	0,000000
3,251627	41,976239	84,883	-0,118694	0,000000	0,000000
3,247629	41,103957	85,083	-0,119042	0,000000	0,000000
3,243655	38,269963	85,283	-0,120169	0,000000	0,000000
3,239662	34,455726	85,483	-0,121688	0,000000	0,000000
3,235618	32,044991	85,683	-0,122647	0,000000	0,000000
3,231606	30,316377	85,884	-0,123335	0,000000	0,000000
3,227579	27,840619	86,084	-0,124320	0,000000	0,000000
3,223619	26,327929	86,285	-0,124922	0,000000	0,000000
3,219594	22,945538	86,485	-0,126269	0,000000	0,000000
3,215681	21,432848	86,686	-0,126871	0,000000	0,000000
3,211675	17,817358	86,887	-0,128310	0,000000	0,000000
3,207651	16,654317	87,088	-0,128772	0,000000	0,000000
3,203603	12,997114	87,289	-0,130228	0,000000	0,000000
3,199666	12,166546	87,490	-0,130559	0,000000	0,000000
3,195644	9,689561	87,690	-0,131544	0,000000	0,000000
3,191640	7,080078	87,890	-0,132583	0,000000	0,000000
3,187604	4,354046	88,090	-0,133668	0,000000	0,000000
3,183661	1,213342	88,290	-0,134918	0,000000	0,000000
3,179615	-1,446441	88,491	-0,135977	0,000000	0,000000
3,175657	-1,994837	88,691	-0,136195	0,000000	0,000000
3,171583	-4,479183	88,892	-0,137184	0,000000	0,000000
3,167625	-6,832257	89,092	-0,138120	0,000000	0,000000
3,163634	-9,266302	89,292	-0,139089	0,000000	0,000000
3,159660	-12,208258	89,492	-0,140260	0,000000	0,000000
3,155681	-13,945460	89,693	-0,140951	0,000000	0,000000
3,151646	-17,045678	89,893	-0,142185	0,000000	0,000000
3,147633	-18,382930	90,093	-0,142717	0,000000	0,000000
3,143583	-20,461193	90,293	-0,143544	0,000000	0,000000
3,139658	-23,004426	90,493	-0,144557	0,000000	0,000000
3,135676	-25,156299	90,695	-0,145413	0,000000	0,000000
3,131646	-27,325347	90,896	-0,146276	0,000000	0,000000
3,127640	-29,810920	91,097	-0,147266	0,000000	0,000000
3,123661	-33,409234	91,298	-0,148698	0,000000	0,000000
3,119690	-34,464314	91,498	-0,149118	0,000000	0,000000
3,115711	-38,337439	91,698	-0,150659	0,000000	0,000000
3,111649	-39,185184	91,898	-0,150997	0,000000	0,000000
3,107659	-41,162845	92,098	-0,151784	0,000000	0,000000
3,103691	-43,739204	92,298	-0,152809	0,000000	0,000000
3,099684	-45,650616	92,499	-0,153570	0,000000	0,000000
3,095620	-49,348304	92,700	-0,155042	0,000000	0,000000
3,091653	-50,453684	92,901	-0,155481	0,000000	0,000000
3,087655	-52,107461	93,102	-0,156140	0,000000	0,000000
3,083728	-54,542733	93,304	-0,157109	0,000000	0,000000
3,079660	-56,313059	93,504	-0,157813	0,000000	0,000000
3,075651	-58,631782	93,704	-0,158736	0,000000	0,000000
3,071655	-62,254633	93,905	-0,160178	0,000000	0,000000
3,067631	-63,128141	94,106	-0,160526	0,000000	0,000000
3,063669	-65,413739	94,306	-0,161436	0,000000	0,000000
3,059633	-67,415937	94,508	-0,162232	0,000000	0,000000
3,055671	-69,701535	94,708	-0,163142	0,000000	0,000000
3,051670	-71,712321	94,908	-0,163942	0,000000	0,000000
3,047652	-74,123057	95,108	-0,164902	0,000000	0,000000
3,043677	-75,385472	95,308	-0,165404	0,000000	0,000000
3,039655	-77,422022	95,508	-0,166215	0,000000	0,000000
3,035666	-80,513652	95,708	-0,167445	0,000000	0,000000
3,031646	-82,508490	95,909	-0,168239	0,000000	0,000000
3,027629	-84,776912	96,110	-0,169142	0,000000	0,000000
3,023660	-85,267647	96,310	-0,169337	0,000000	0,000000
3,019750	-87,377807	96,510	-0,170177	0,000000	0,000000
3,015687	-90,403188	96,710	-0,171381	0,000000	0,000000
3,011631	-92,739086	96,910	-0,172311	0,000000	0,000000
3,007664	-94,633323	97,110	-0,173065	0,000000	0,000000
3,003669	-95,339981	97,310	-0,173346	0,000000	0,000000
2,999673	-97,408429	97,510	-0,174169	0,000000	0,000000
2,995698	-100,392097	97,711	-0,175357	0,000000	0,000000
2,991727	-101,131880	97,911	-0,175651	0,000000	0,000000
2,987666	-102,935331	98,112	-0,176369	0,000000	0,000000
2,983670	-105,163268	98,312	-0,177256	0,000000	0,000000
2,979652	-106,742207	98,512	-0,177884	0,000000	0,000000
2,975627	-109,651038	98,712	-0,179042	0,000000	0,000000
2,971704	-110,913454	98,913	-0,179544	0,000000	0,000000
2,967640	-111,562451	99,114	-0,179803	0,000000	0,000000
2,963692	-112,891116	99,315	-0,180332	0,000000	0,000000
2,959663	-114,229595	99,516	-0,180864	0,000000	0,000000
2,955691	-115,867423	99,717	-0,181516	0,000000	0,000000
2,951676	-117,113890	99,918	-0,182012	0,000000	0,000000
2,947627	-118,285519	100,118	-0,182479	0,000000	0,000000
2,943670	-119,415437	100,320	-0,182928	0,000000	0,000000
2,939641	-121,201712	100,520	-0,183639	0,000000	0,000000
2,935664	-121,077801	100,720	-0,183590	0,000000	0,000000
2,931708	-122,399105	100,920	-0,184116	0,000000	0,000000
2,927665	-124,028345	101,120	-0,184764	0,000000	0,000000
2,923662	-123,379348	101,321	-0,184506	0,000000	0,000000
2,919705	-126,056307	101,522	-0,185571	0,000000	0,000000
2,915701	-127,675732	101,724	-0,186216	0,000000	0,000000
2,911626	-128,324729	101,924	-0,186474	0,000000	0,000000
2,907717	-129,762582	102,125	-0,187046	0,000000	0,000000
2,903758	-131,324346	102,326	-0,187668	0,000000	0,000000
2,899713	-133,411197	102,526	-0,188499	0,000000	0,000000
2,895686	-135,488232	102,726	-0,189325	0,000000	0,000000
2,891739	-136,851248	102,927	-0,189868	0,000000	0,000000
2,887657	-140,242227	103,127	-0,191217	0,000000	0,000000
2,883694	-142,094751	103,328	-0,191955	0,000000	0,000000
2,879711	-143,890841	103,528	-0,192669	0,000000	0,000000
2,875725	-145,677116	103,728	-0,193380	0,000000	0,000000
2,871711	-146,408311	103,928	-0,193671	0,000000	0,000000
2,867741	-148,302548	104,128	-0,194425	0,000000	0,000000
2,863665	-151,162306	104,328	-0,195563	0,000000	0,000000
2,859673	-153,098255	104,528	-0,196334	0,000000	0,000000
2,855682	-153,630702	104,728	-0,196546	0,000000	0,000000
2,851637	-155,707738	104,928	-0,197373	0,000000	0,000000
2,847660	-158,358933	105,130	-0,198428	0,000000	0,000000
2,843729	-160,146435	105,330	-0,199139	0,000000	0,000000
2,839704	-160,994180	105,530	-0,199477	0,000000	0,000000
2,835669	-162,904366	105,730	-0,200237	0,000000	0,000000
2,831687	-164,583906	105,930	-0,200905	0,000000	0,000000
2,827693	-166,511267	106,130	-0,201672	0,000000	0,000000
2,823736	-167,966296	106,331	-0,202251	0,000000	0,000000
2,819714	-170,857952	106,532	-0,203402	0,000000	0,000000
2,815672	-171,465236	106,733	-0,203644	0,000000	0,000000
2,811699	-173,866157	106,935	-0,204600	0,000000	0,000000
2,807718	-175,404611	107,135	-0,205212	0,000000	0,000000
2,803665	-176,959014	107,336	-0,205831	0,000000	0,000000
2,799693	-178,802950	107,538	-0,206564	0,000000	0,000000
2,795716	-181,546159	107,738	-0,207656	0,000000	0,000000
2,791651	-182,011130	107,938	-0,207841	0,000000	0,000000
2,787667	-183,614606	108,138	-0,208479	0,000000	0,000000
2,783703	-185,235258	108,340	-0,209125	0,000000	0,000000
2,779706	-188,003003	108,540	-0,210226	0,000000	0,000000
2,775691	-189,540230	108,740	-0,210838	0,000000	0,000000
2,771606	-189,640831	108,940	-0,210878	0,000000	0,000000
2,767722	-191,418518	109,142	-0,211585	0,000000	0,000000
2,763731	-192,649036	109,344	-0,212075	0,000000	0,000000
2,759781	-193,878327	109,546	-0,212564	0,000000	0,000000
2,755732	-195,025420	109,747	-0,213021	0,000000	0,000000
2,751681	-197,709740	109,948	-0,214089	0,000000	0,000000
2,747767	-197,801753	110,148	-0,214126	0,000000	0,000000
2,743673	-198,856833	110,350	-0,214546	0,000000	0,000000
2,739696	-201,017293	110,550	-0,215406	0,000000	0,000000
2,735667	-201,490853	110,750	-0,215594	0,000000	0,000000
2,731694	-203,003543	110,950	-0,216196	0,000000	0,000000
2,727678	-202,404846	111,151	-0,215958	0,000000	0,000000
2,723683	-203,045256	111,351	-0,216213	0,000000	0,000000
2,719739	-180,299692	111,551	-0,207160	0,000000	0,000000
2,715680	-154,793744	111,752	-0,197009	0,000000	0,000000
2,711713	-150,505948	111,952	-0,195302	0,000000	0,000000
2,707701	-148,403149	112,152	-0,194465	0,000000	0,000000
2,703676	-146,599698	112,352	-0,193748	2,640000	2,760000
2,699691	-146,807033	112,552	-0,193830	2,640000	2,760000
2,695741	-146,524861	112,752	-0,193718	2,640000	2,760000
2,691704	-146,408311	112,952	-0,193671	2,640000	2,760000
2,687691	-146,375186	113,152	-0,193658	2,640000	2,760000
2,683731	-146,434075	113,353	-0,193682	2,640000	2,760000
2,679755	-147,106382	113,554	-0,193949	2,640000	2,760000
2,675677	-147,031544	113,754	-0,193919	2,640000	2,760000
2,671739	-147,198394	113,956	-0,193986	2,640000	2,760000
2,667704	-147,189806	114,158	-0,193982	2,640000	2,760000
2,663694	-148,742982	114,359	-0,194601	2,640000	2,760000
2,659692	-148,311136	114,559	-0,194429	2,640000	2,760000
2,655680	-149,874126	114,760	-0,195051	2,640000	2,760000
2,651708	-150,688746	114,961	-0,195375	2,640000	2,760000
2,647729	-151,311980	115,162	-0,195623	2,640000	2,760000
2,643762	-151,245731	115,364	-0,195597	2,640000	2,760000
2,639752	-151,686165	115,564	-0,195772	2,640000	2,760000
2,635717	-152,159724	115,765	-0,195960	2,640000	2,760000
2,631650	-151,726651	115,966	-0,195788	2,640000	2,760000
2,627684	-153,289642	116,167	-0,196410	2,640000	2,760000
2,623678	-152,873744	116,368	-0,196245	2,640000	2,760000
2,619677	-153,855214	116,568	-0,196635	2,640000	2,760000
2,615702	-154,520159	116,768	-0,196900	2,640000	2,760000
2,611764	-154,095674	116,968	-0,196731	2,640000	2,760000
2,607725	-154,851405	117,169	-0,197032	2,640000	2,760000
2,603682	-155,143393	117,369	-0,197148	2,640000	2,760000
2,599712	-155,599776	117,569	-0,197330	2,640000	2,760000
2,595671	-155,766626	117,770	-0,197396	2,640000	2,760000
2,591716	-156,115048	117,971	-0,197535	2,640000	2,760000
2,587705	-155,850051	118,171	-0,197429	2,640000	2,760000
2,583719	-155,425565	118,371	-0,197260	2,640000	2,760000
2,579749	-155,110268	118,572	-0,197135	2,640000	2,760000
2,575716	-154,053961	118,772	-0,196714	2,640000	2,760000
2,571736	-150,505948	118,972	-0,195302	2,640000	2,760000
2,567732	-141,180757	119,173	-0,191591	2,640000	2,760000
2,563714	-126,463617	119,373	-0,185733	2,640000	2,760000
2,559671	-0,931170	119,573	-0,135771	2,640000	2,760000
2,555714	-0,698070	119,774	-0,135679	2,640000	2,760000
2,551677	-0,748371	119,975	-0,135699	2,640000	2,760000
2,547719	-0,981470	120,176	-0,135792	2,640000	2,760000
2,543705	-0,889457	120,377	-0,135755	2,640000	2,760000
2,539656	-0,698070	120,578	-0,135679	2,640000	2,760000
2,535646	-0,889457	120,778	-0,135755	2,640000	2,760000
2,531717	-0,831796	120,978	-0,135732	2,640000	2,760000
2,527735	-0,831796	121,178	-0,135732	2,640000	2,760000
2,523751	-0,748371	121,379	-0,135699	2,640000	2,760000
2,519765	-0,748371	121,579	-0,135699	2,640000	2,760000
2,515703	-1,014594	121,779	-0,135805	2,640000	2,760000
2,511714	-0,648997	121,979	-0,135659	2,640000	2,760000
2,507712	-0,790083	122,180	-0,135715	2,640000	2,760000
2,503756	-0,739783	122,381	-0,135695	2,640000	2,760000
2,499700	-0,490735	122,582	-0,135596	2,640000	2,760000
2,495763	-0,689483	122,783	-0,135675	2,640000	2,760000
2,491725	-0,781495	122,984	-0,135712	2,640000	2,760000
2,487715	-0,523860	123,184	-0,135609	2,640000	2,760000
2,483737	-0,556984	123,386	-0,135623	2,640000	2,760000
2,479703	-0,823208	123,587	-0,135729	2,640000	2,760000
2,475718	-0,673534	123,790	-0,135669	2,640000	2,760000
2,471779	-0,739783	123,990	-0,135695	2,640000	2,760000
2,467724	-0,856332	124,190	-0,135742	2,640000	2,760000
2,463736	-0,574160	124,391	-0,135629	2,640000	2,760000
2,459734	-0,922582	124,591	-0,135768	2,640000	2,760000
2,455660	-0,798671	124,791	-0,135719	2,640000	2,760000
2,451726	-0,731195	124,992	-0,135692	2,640000	2,760000
2,447685	-0,532447	125,192	-0,135613	2,640000	2,760000
2,443718	-0,574160	125,393	-0,135629	2,640000	2,760000
2,439724	-0,872281	125,593	-0,135748	2,640000	2,760000
2,435710	-0,598697	125,794	-0,135639	2,640000	2,760000
2,431708	-0,391361	125,995	-0,135557	2,640000	2,760000
2,427724	-0,673534	126,197	-0,135669	2,640000	2,760000
2,423695	-0,607284	126,397	-0,135643	2,640000	2,760000
2,419749	-0,673534	126,597	-0,135669	2,640000	2,760000
2,415720	-0,656358	126,798	-0,135662	2,640000	2,760000
2,411715	-0,574160	126,998	-0,135629	2,640000	2,760000
2,407682	-0,607284	127,199	-0,135643	2,640000	2,760000
2,403733	-0,640409	127,399	-0,135656	2,640000	2,760000
2,399770	-0,556984	127,599	-0,135623	2,640000	2,760000
2,395709	-0,449022	127,799	-0,135580	2,640000	2,760000
2,391698	-0,615872	128,000	-0,135646	2,640000	2,760000
2,387709	-0,574160	128,200	-0,135629	2,640000	2,760000
2,383719	-0,523860	128,401	-0,135609	2,640000	2,760000
2,379729	-0,431847	128,601	-0,135573	2,640000	2,760000
2,375723	-0,790083	128,802	-0,135715	2,640000	2,760000
2,371708	-0,440435	129,004	-0,135576	2,640000	2,760000
2,367742	-0,664946	129,205	-0,135666	2,640000	2,760000
2,363761	-0,431847	129,406	-0,135573	2,640000	2,760000
2,359721	-0,482147	129,607	-0,135593	2,640000	2,760000
2,355731	-0,449022	129,808	-0,135580	2,640000	2,760000
2,351758	-0,506684	130,008	-0,135603	2,640000	2,760000
2,347703	-0,349649	130,208	-0,135540	2,640000	2,760000
2,343742	-0,574160	130,409	-0,135629	2,640000	2,760000
2,341765	-0,523860	130,509	-0,135609	2,640000	2,760000