File: Nanoindentation Datenauswertung/data/PDMS/AR-PDMS-60-10-60-1,2um-3x3-1
Quasi static measurement routine
Tip parameters (shape,radius, material...)
24.08.2022

Piezo position[nm]	MEMS displ.[nm]	Time[ms]	Cap [pf]	Temp [°C]	Rh [%]
eoh

X-Pos [um]	Y-Pos [um]
0,000000	0,000000

POC
3,277899
2,579848	0,000000	0,252	-0,135454	22,630000	51,480000
2,583775	-0,082198	0,452	-0,135487	22,630000	51,480000
2,587765	-0,090786	0,652	-0,135490	22,630000	51,480000
2,591800	-0,107962	0,852	-0,135497	22,630000	51,480000
2,595808	0,000000	1,052	-0,135454	22,630000	51,480000
2,599825	-0,041712	1,252	-0,135471	22,630000	51,480000
2,603826	0,041712	1,452	-0,135438	22,630000	51,480000
2,607766	0,017176	1,652	-0,135447	22,630000	51,480000
2,611814	-0,074837	1,852	-0,135484	22,630000	51,480000
2,615782	0,290760	2,052	-0,135338	22,630000	51,480000
2,619794	-0,033125	2,252	-0,135467	22,630000	51,480000
2,623755	-0,082198	2,453	-0,135487	22,630000	51,480000
2,627851	0,074837	2,654	-0,135424	22,630000	51,480000
2,631838	-0,066249	2,854	-0,135480	22,630000	51,480000
2,635728	-0,149674	3,054	-0,135514	22,640000	51,520000
2,639811	-0,249048	3,255	-0,135553	22,640000	51,520000
2,643760	-0,482147	3,457	-0,135646	22,640000	51,520000
2,647810	-0,066249	3,658	-0,135480	22,640000	51,520000
2,651794	-0,198748	3,859	-0,135533	22,640000	51,520000
2,655741	-0,057661	4,059	-0,135477	22,640000	51,520000
2,659807	0,000000	4,260	-0,135454	22,640000	51,520000
2,663763	-0,165623	4,460	-0,135520	22,640000	51,520000
2,667803	-0,074837	4,660	-0,135484	22,640000	51,520000
2,671759	-0,198748	4,860	-0,135533	22,640000	51,520000
2,675813	-0,099374	5,060	-0,135494	22,640000	51,505000
2,679779	-0,240460	5,261	-0,135550	22,640000	51,505000
2,683751	-0,090786	5,461	-0,135490	22,640000	51,505000
2,687780	-0,215923	5,661	-0,135540	22,640000	51,505000
2,691781	-0,381546	5,861	-0,135606	22,640000	51,505000
2,695775	-0,090786	6,061	-0,135490	22,640000	51,505000
2,699791	-0,049073	6,261	-0,135474	22,640000	51,505000
2,703846	-0,390134	6,461	-0,135609	22,640000	51,505000
2,707768	-0,090786	6,661	-0,135490	22,640000	51,505000
2,711757	-0,249048	6,863	-0,135553	22,640000	51,505000
2,715741	-0,215923	7,063	-0,135540	22,630000	51,490000
2,719786	-0,390134	7,264	-0,135609	22,630000	51,490000
2,723798	-0,315297	7,465	-0,135580	22,630000	51,490000
2,727771	-0,182799	7,665	-0,135527	22,630000	51,490000
2,731766	-0,074837	7,865	-0,135484	22,630000	51,490000
2,735828	-0,008588	8,066	-0,135458	22,630000	51,490000
2,739742	-0,074837	8,266	-0,135484	22,630000	51,490000
2,743763	-0,215923	8,468	-0,135540	22,630000	51,490000
2,747837	-0,257636	8,669	-0,135557	22,630000	51,490000
2,751812	-0,290760	8,870	-0,135570	22,630000	51,490000
2,755791	-0,614645	9,070	-0,135699	22,650000	51,495000
2,759793	-0,339834	9,270	-0,135589	22,650000	51,495000
2,763809	-0,290760	9,470	-0,135570	22,650000	51,495000
2,767774	-0,298121	9,671	-0,135573	22,650000	51,495000
2,771727	-0,431847	9,871	-0,135626	22,650000	51,495000
2,775771	-0,157035	10,072	-0,135517	22,650000	51,495000
2,779820	-0,398722	10,274	-0,135613	22,650000	51,495000
2,783737	-0,398722	10,476	-0,135613	22,650000	51,495000
2,787786	-0,407310	10,677	-0,135616	22,650000	51,495000
2,791817	-0,115323	10,877	-0,135500	22,650000	51,495000
2,795762	-0,257636	11,077	-0,135557	22,650000	51,495000
2,799756	-0,323885	11,277	-0,135583	22,650000	51,495000
2,803815	-0,456383	11,477	-0,135636	22,650000	51,495000
2,807793	-0,231872	11,677	-0,135546	22,650000	51,495000
2,811769	-0,191387	11,877	-0,135530	22,650000	51,495000
2,815765	-0,332473	12,077	-0,135586	22,650000	51,495000
2,819773	-0,423259	12,278	-0,135623	22,650000	51,495000
2,823760	-0,357010	12,478	-0,135596	22,650000	51,495000
2,827772	-0,315297	12,679	-0,135580	22,650000	51,495000
2,831791	-0,581521	12,880	-0,135686	22,650000	51,495000
2,835787	-0,431847	13,080	-0,135626	22,640000	51,520000
2,839751	-0,482147	13,280	-0,135646	22,640000	51,520000
2,843785	-0,555757	13,481	-0,135675	22,640000	51,520000
2,847729	-0,257636	13,682	-0,135557	22,640000	51,520000
2,851809	-0,398722	13,882	-0,135613	22,640000	51,520000
2,855792	-0,423259	14,083	-0,135623	22,640000	51,520000
2,859785	-0,531221	14,283	-0,135666	22,640000	51,520000
2,863712	-0,490735	14,484	-0,135649	22,640000	51,520000
2,867717	-0,315297	14,684	-0,135580	22,640000	51,520000
2,871775	-0,680895	14,884	-0,135725	22,640000	51,520000
2,875794	-0,606058	15,085	-0,135695	22,640000	51,505000
2,879727	-0,456383	15,286	-0,135636	22,640000	51,505000
2,883790	-0,539808	15,487	-0,135669	22,640000	51,505000
2,887778	-0,647770	15,687	-0,135712	22,640000	51,505000
2,891807	-0,498096	15,888	-0,135652	22,640000	51,505000
2,895767	-0,490735	16,089	-0,135649	22,640000	51,505000
2,899756	-0,449022	16,290	-0,135633	22,640000	51,505000
2,903803	-0,473559	16,492	-0,135643	22,640000	51,505000
2,907820	-0,631821	16,692	-0,135706	22,640000	51,505000
2,911810	-0,522633	16,892	-0,135662	22,640000	51,505000
2,915757	-0,555757	17,093	-0,135675	22,640000	51,505000
2,919764	-0,581521	17,293	-0,135686	22,640000	51,505000
2,923766	-0,490735	17,494	-0,135649	22,640000	51,505000
2,927772	-0,506684	17,695	-0,135656	22,640000	51,505000
2,931773	-0,647770	17,896	-0,135712	22,640000	51,505000
2,935798	-0,647770	18,097	-0,135712	22,640000	51,505000
2,939796	-0,839157	18,297	-0,135788	22,640000	51,505000
2,943766	-0,531221	18,499	-0,135666	22,640000	51,505000
2,947675	-0,821981	18,699	-0,135781	22,640000	51,505000
2,951815	-0,564345	18,899	-0,135679	22,640000	51,505000
2,955771	-0,464971	19,099	-0,135639	22,640000	51,505000
2,959727	-0,938531	19,299	-0,135828	22,640000	51,505000
2,963770	-0,931170	19,501	-0,135825	22,640000	51,505000
2,967748	-0,830569	19,701	-0,135785	22,640000	51,505000
2,971773	-0,747144	19,901	-0,135751	22,640000	51,505000
2,975751	-0,922582	20,101	-0,135821	22,640000	51,505000
2,979727	-0,764320	20,301	-0,135758	22,640000	51,505000
2,983768	-0,797444	20,502	-0,135771	22,640000	51,505000
2,987755	-0,755732	20,703	-0,135755	22,640000	51,505000
2,991749	-0,813393	20,904	-0,135778	22,640000	51,505000
2,995730	-1,105380	21,105	-0,135894	22,640000	51,520000
2,999737	-0,938531	21,306	-0,135828	22,640000	51,520000
3,003701	-0,788856	21,508	-0,135768	22,640000	51,520000
3,007785	-1,063668	21,709	-0,135877	22,640000	51,520000
3,011758	-0,996192	21,910	-0,135851	22,640000	51,520000
3,015737	-1,121329	22,111	-0,135900	22,640000	51,520000
3,019777	-1,063668	22,311	-0,135877	22,640000	51,520000
3,023733	-1,030543	22,511	-0,135864	22,640000	51,520000
3,027676	-1,246467	22,711	-0,135950	22,640000	51,520000
3,031701	-0,905406	22,911	-0,135814	22,640000	51,520000
3,035756	-0,955706	23,112	-0,135834	22,640000	51,520000
3,039731	-1,055080	23,312	-0,135874	22,640000	51,520000
3,043732	-1,079617	23,512	-0,135884	22,640000	51,520000
3,047749	-1,030543	23,712	-0,135864	22,640000	51,520000
3,051737	-1,337253	23,913	-0,135986	22,640000	51,520000
3,055785	-1,178991	24,114	-0,135923	22,640000	51,520000
3,059719	-1,255055	24,314	-0,135954	22,640000	51,520000
3,063706	-0,938531	24,514	-0,135828	22,640000	51,520000
3,067700	-1,079617	24,714	-0,135884	22,640000	51,520000
3,071749	-1,229291	24,914	-0,135943	22,640000	51,520000
3,075703	-1,304128	25,114	-0,135973	22,640000	51,520000
3,079737	-1,462390	25,314	-0,136036	22,640000	51,520000
3,083801	-1,337253	25,514	-0,135986	22,640000	51,520000
3,087688	-1,462390	25,714	-0,136036	22,640000	51,520000
3,091738	-1,561764	25,914	-0,136076	22,640000	51,520000
3,095776	-1,495515	26,115	-0,136049	22,640000	51,520000
3,099731	-65,994033	26,315	-0,161720	22,640000	51,520000
3,103748	-66,634442	26,516	-0,161975	22,640000	51,520000
3,107774	-65,562186	26,717	-0,161548	22,640000	51,520000
3,111729	-65,670148	26,917	-0,161591	22,640000	51,520000
3,115773	-64,157457	27,117	-0,160989	22,640000	51,490000
3,119785	-62,503681	27,320	-0,160331	22,640000	51,490000
3,123789	-61,448600	27,521	-0,159911	22,640000	51,490000
3,127760	-60,301508	27,722	-0,159454	22,640000	51,490000
3,131701	-59,270964	27,922	-0,159044	22,640000	51,490000
3,135780	-57,749686	28,123	-0,158438	22,640000	51,490000
3,139710	-55,772024	28,326	-0,157651	22,640000	51,490000
3,143703	-53,295040	28,527	-0,156666	22,640000	51,490000
3,147725	-51,592189	28,727	-0,155988	22,640000	51,490000
3,151722	-50,968956	28,928	-0,155740	22,640000	51,490000
3,155704	-49,646425	29,128	-0,155213	22,640000	51,490000
3,159790	-48,035588	29,328	-0,154572	22,640000	51,490000
3,163727	-46,646808	29,529	-0,154020	22,640000	51,490000
3,167684	-45,059281	29,729	-0,153388	22,640000	51,490000
3,171792	-42,599472	29,930	-0,152409	22,640000	51,490000
3,175768	-41,711242	30,132	-0,152055	22,640000	51,490000
3,179729	-39,650155	30,334	-0,151235	22,640000	51,490000
3,183745	-38,950858	30,535	-0,150957	22,640000	51,490000
3,187756	-37,173171	30,735	-0,150249	22,640000	51,490000
3,191736	-34,762435	30,936	-0,149290	22,640000	51,490000
3,195629	-34,530563	31,136	-0,149197	22,640000	51,480000
3,199704	-32,494013	31,338	-0,148387	22,640000	51,480000
3,203715	-30,932249	31,538	-0,147765	22,640000	51,480000
3,207738	-28,953361	31,739	-0,146978	22,640000	51,480000
3,211743	-26,726651	31,939	-0,146091	22,640000	51,480000
3,215716	-25,912031	32,139	-0,145767	22,640000	51,480000
3,219762	-24,449641	32,339	-0,145185	22,640000	51,480000
3,223755	-22,945538	32,539	-0,144586	22,640000	51,480000
3,227753	-21,183800	32,739	-0,143885	22,640000	51,480000
3,231737	-19,637985	32,939	-0,143270	22,640000	51,480000
3,235689	-18,099531	33,140	-0,142658	22,630000	51,520000
3,239674	-15,274125	33,341	-0,141533	22,630000	51,520000
3,243767	-13,662060	33,542	-0,140892	22,630000	51,520000
3,247711	-12,997114	33,742	-0,140627	22,630000	51,520000
3,251718	-10,154532	33,942	-0,139496	22,630000	51,520000
3,255704	-7,985484	34,142	-0,138632	22,630000	51,520000
3,259652	-7,870161	34,342	-0,138586	22,630000	51,520000
3,263685	-5,534263	34,543	-0,137657	22,630000	51,520000
3,267715	-3,897662	34,743	-0,137005	22,630000	51,520000
3,271752	-2,077036	34,943	-0,136281	22,630000	51,520000
3,275667	-0,257636	35,145	-0,135557	22,640000	51,480000
3,279780	3,016793	35,346	-0,134253	22,640000	51,480000
3,283710	4,538071	35,547	-0,133648	22,640000	51,480000
3,287655	5,128180	35,747	-0,133413	22,640000	51,480000
3,291748	6,923043	35,947	-0,132699	22,640000	51,480000
3,295697	8,876168	36,147	-0,131921	22,640000	51,480000
3,299774	12,009510	36,347	-0,130674	22,640000	51,480000
3,303729	12,824130	36,547	-0,130350	22,640000	51,480000
3,307709	14,793204	36,747	-0,129566	22,640000	51,480000
3,311661	16,612604	36,947	-0,128842	22,640000	51,480000
3,315695	19,745947	37,147	-0,127595	22,640000	51,490000
3,319692	20,959289	37,348	-0,127112	22,640000	51,490000
3,323694	22,356656	37,549	-0,126556	22,640000	51,490000
3,327701	24,250893	37,749	-0,125802	22,640000	51,490000
3,331688	26,569616	37,949	-0,124879	22,640000	51,490000
3,335725	28,788964	38,149	-0,123996	22,640000	51,490000
3,339737	31,348147	38,349	-0,122978	22,640000	51,490000
3,343670	32,693988	38,549	-0,122442	22,640000	51,490000
3,347749	21,624234	38,749	-0,126848	22,640000	51,490000
3,351707	20,228094	38,949	-0,127403	22,640000	51,490000
3,355729	8,244347	39,150	-0,132173	22,630000	51,505000
3,359649	9,366903	39,350	-0,131726	22,630000	51,505000
3,363742	10,655082	39,551	-0,131213	22,630000	51,505000
3,367717	12,391057	39,751	-0,130522	22,630000	51,505000
3,371719	14,843505	39,951	-0,129546	22,630000	51,505000
3,375682	15,341601	40,152	-0,129348	22,630000	51,505000
3,379683	17,702036	40,352	-0,128409	22,630000	51,505000
3,383710	19,928745	40,552	-0,127522	22,630000	51,505000
3,387699	21,932171	40,753	-0,126725	22,630000	51,505000
3,391728	23,826407	40,953	-0,125971	22,630000	51,505000
3,395663	25,880133	41,153	-0,125154	22,630000	51,505000
3,399704	28,065130	41,354	-0,124284	22,630000	51,505000
3,403739	29,868581	41,554	-0,123566	22,630000	51,505000
3,407635	31,438933	41,755	-0,122941	22,630000	51,505000
3,411725	33,517195	41,956	-0,122114	22,630000	51,505000
3,415653	35,278934	42,157	-0,121413	22,630000	51,505000
3,419754	38,553363	42,357	-0,120110	22,630000	51,505000
3,423709	39,275970	42,558	-0,119822	22,630000	51,505000
3,427673	41,429069	42,759	-0,118965	22,630000	51,505000
3,431665	44,478987	42,959	-0,117751	22,630000	51,505000
3,435677	44,529287	43,159	-0,117731	22,640000	51,505000
3,439655	45,476405	43,360	-0,117354	22,640000	51,505000
3,443676	45,002846	43,562	-0,117543	22,640000	51,505000
3,447705	45,816239	43,762	-0,117219	22,640000	51,505000
3,451658	46,663984	43,963	-0,116882	22,640000	51,505000
3,455659	48,742246	44,163	-0,116055	22,640000	51,505000
3,459699	50,537109	44,363	-0,115340	22,640000	51,505000
3,463619	51,966375	44,563	-0,114771	22,640000	51,505000
3,467701	53,313442	44,763	-0,114235	22,640000	51,505000
3,471669	54,102299	44,963	-0,113921	22,640000	51,505000
3,475721	56,852868	45,163	-0,112827	22,640000	51,490000
3,479675	57,950887	45,364	-0,112390	22,640000	51,490000
3,483633	61,141891	45,565	-0,111120	22,640000	51,490000
3,487642	61,798249	45,765	-0,110858	22,640000	51,490000
3,491657	64,308358	45,967	-0,109859	22,640000	51,490000
3,495725	66,568193	46,167	-0,108960	22,640000	51,490000
3,499683	68,670992	46,367	-0,108123	22,640000	51,490000
3,503676	70,890340	46,568	-0,107240	22,640000	51,490000
3,507640	72,618954	46,769	-0,106552	22,640000	51,490000
3,511683	74,762239	46,969	-0,105699	22,640000	51,490000
3,515646	77,056425	47,169	-0,104786	22,640000	51,480000
3,519654	79,042674	47,369	-0,103995	22,640000	51,480000
3,523661	81,203135	47,570	-0,103135	22,640000	51,480000
3,527681	83,305934	47,771	-0,102298	22,640000	51,480000
3,531641	85,749794	47,971	-0,101326	22,640000	51,480000
3,535679	88,034165	48,171	-0,100417	22,640000	51,480000
3,539622	91,782153	48,372	-0,098925	22,640000	51,480000
3,543625	94,102102	48,572	-0,098001	22,640000	51,480000
3,547700	94,583023	48,772	-0,097810	22,640000	51,480000
3,551675	97,201093	48,972	-0,096768	22,640000	51,480000
3,555615	99,253592	49,173	-0,095951	22,640000	51,480000
3,559591	101,697452	49,374	-0,094979	22,640000	51,480000
3,563664	104,481146	49,575	-0,093871	22,640000	51,480000
3,567648	106,260060	49,775	-0,093163	22,640000	51,480000
3,571626	108,627856	49,977	-0,092220	22,640000	51,480000
3,575644	111,047179	50,177	-0,091257	22,640000	51,480000
3,579651	114,753455	50,377	-0,089782	22,640000	51,480000
3,583699	116,590030	50,578	-0,089051	22,640000	51,480000
3,587648	119,182337	50,779	-0,088020	22,640000	51,480000
3,591644	121,293724	50,980	-0,087179	22,640000	51,480000
3,595743	123,370760	51,181	-0,086353	22,640000	51,505000
3,599670	124,684703	51,382	-0,085830	22,640000	51,505000
3,603698	126,961713	51,583	-0,084923	22,640000	51,505000
3,607682	129,828832	51,783	-0,083782	22,640000	51,505000
3,611644	132,180679	51,984	-0,082846	22,640000	51,505000
3,615669	134,574238	52,184	-0,081894	22,640000	51,505000
3,619656	136,685625	52,384	-0,081053	22,640000	51,505000
3,623656	138,646111	52,584	-0,080273	22,640000	51,505000
3,627577	141,347607	52,786	-0,079198	22,640000	51,505000
3,631617	143,483531	52,986	-0,078348	22,640000	51,505000
3,635682	145,685704	53,186	-0,077471	22,630000	51,465000
3,639589	148,145513	53,386	-0,076492	22,630000	51,465000
3,643700	151,536491	53,587	-0,075143	22,630000	51,465000
3,647687	152,741245	53,788	-0,074663	22,630000	51,465000
3,651687	155,500402	53,989	-0,073565	22,630000	51,465000
3,655724	157,611789	54,190	-0,072725	22,630000	51,465000
3,659620	160,129260	54,391	-0,071723	22,630000	51,465000
3,663668	163,844123	54,592	-0,070244	22,630000	51,465000
3,667618	165,847548	54,793	-0,069447	22,630000	51,465000
3,671639	168,472980	54,993	-0,068402	22,630000	51,465000
3,675619	170,775754	55,193	-0,067485	22,640000	51,480000
3,679623	171,498361	55,393	-0,067198	22,640000	51,480000
3,683664	174,365480	55,594	-0,066057	22,640000	51,480000
3,687637	176,766400	55,796	-0,065101	22,640000	51,480000
3,691620	178,827487	55,996	-0,064281	22,640000	51,480000
3,695646	181,861456	56,197	-0,063073	22,640000	51,480000
3,699644	184,080804	56,398	-0,062190	22,640000	51,480000
3,703628	187,055885	56,598	-0,061006	22,640000	51,480000
3,707679	188,859336	56,798	-0,060288	22,640000	51,480000
3,711613	190,779336	56,998	-0,059524	22,640000	51,480000
3,715653	194,003465	57,198	-0,058241	22,640000	51,520000
3,719610	195,474443	57,399	-0,057655	22,640000	51,520000
3,723646	198,931670	57,599	-0,056279	22,640000	51,520000
3,727610	200,502022	57,800	-0,055654	22,640000	51,520000
3,731712	203,062431	58,000	-0,054635	22,640000	51,520000
3,735673	205,247429	58,201	-0,053766	22,640000	51,520000
3,739651	208,081423	58,401	-0,052638	22,640000	51,520000
3,743687	210,417321	58,602	-0,051708	22,640000	51,520000
3,747625	212,685743	58,802	-0,050805	22,640000	51,520000
3,751627	215,121015	59,002	-0,049836	22,640000	51,520000
3,755700	216,741667	59,202	-0,049191	22,650000	51,495000
3,759632	219,359738	59,403	-0,048149	22,650000	51,495000
3,763660	222,077183	59,604	-0,047067	22,650000	51,495000
3,767659	224,403266	59,804	-0,046142	22,650000	51,495000
3,771672	226,655740	60,005	-0,045245	22,650000	51,495000
3,775670	229,315523	60,206	-0,044187	22,650000	51,495000
3,777658	231,617070	60,407	-0,043271	22,650000	51,495000
3,777659	231,334897	60,607	-0,043383	22,650000	51,495000
3,777631	230,936175	60,809	-0,043542	22,650000	51,495000
3,777616	231,160686	61,010	-0,043452	22,650000	51,495000
3,777657	230,628239	61,210	-0,043664	22,630000	51,505000
3,777650	230,760737	61,411	-0,043611	22,630000	51,505000
3,777646	230,238105	61,611	-0,043819	22,630000	51,505000
3,777595	230,262641	61,812	-0,043810	22,630000	51,505000
3,777664	230,146092	62,013	-0,043856	22,630000	51,505000
3,777632	230,203753	62,213	-0,043833	22,630000	51,505000
3,777589	230,220929	62,413	-0,043826	22,630000	51,505000
3,777566	229,522858	62,613	-0,044104	22,630000	51,505000
3,777648	229,930168	62,813	-0,043942	22,630000	51,505000
3,777648	229,614871	63,013	-0,044067	22,630000	51,505000
3,777640	229,897044	63,213	-0,043955	22,640000	51,505000
3,777610	229,439433	63,414	-0,044137	22,640000	51,505000
3,777638	229,306935	63,614	-0,044190	22,640000	51,505000
3,777650	229,281171	63,815	-0,044200	22,640000	51,505000
3,777644	229,207561	64,015	-0,044229	22,640000	51,505000
3,777630	228,891037	64,216	-0,044355	22,640000	51,505000
3,777583	228,998999	64,416	-0,044312	22,640000	51,505000
3,777627	229,007587	64,616	-0,044309	22,640000	51,505000
3,777653	228,857913	64,817	-0,044369	22,640000	51,505000
3,777620	228,866500	65,017	-0,044365	22,640000	51,505000
3,777669	228,991638	65,218	-0,044315	22,640000	51,505000
3,777644	228,749951	65,418	-0,044412	22,640000	51,505000
3,777647	228,359817	65,618	-0,044567	22,640000	51,505000
3,777652	228,783076	65,819	-0,044398	22,640000	51,505000
3,777687	228,384353	66,021	-0,044557	22,640000	51,505000
3,777725	228,309516	66,221	-0,044587	22,640000	51,505000
3,777649	228,392941	66,421	-0,044554	22,640000	51,505000
3,777608	228,177018	66,622	-0,044640	22,640000	51,505000
3,777643	228,210143	66,822	-0,044626	22,640000	51,505000
3,777645	228,085005	67,024	-0,044676	22,640000	51,505000
3,777657	227,952507	67,225	-0,044729	22,650000	51,485000
3,777610	228,143893	67,426	-0,044653	22,650000	51,485000
3,777596	227,985631	67,626	-0,044716	22,650000	51,485000
3,777607	228,126718	67,827	-0,044660	22,650000	51,485000
3,777621	228,085005	68,027	-0,044676	22,650000	51,485000
3,777630	227,935331	68,227	-0,044736	22,650000	51,485000
3,777722	228,051880	68,428	-0,044689	22,650000	51,485000
3,777604	227,752532	68,628	-0,044809	22,650000	51,485000
3,777617	227,644571	68,829	-0,044852	22,650000	51,485000
3,777646	227,727995	69,030	-0,044818	22,650000	51,485000
3,777612	227,461772	69,230	-0,044924	22,640000	51,490000
3,777650	227,445823	69,430	-0,044931	22,640000	51,490000
3,777626	227,670334	69,630	-0,044841	22,640000	51,490000
3,777647	227,404110	69,830	-0,044947	22,640000	51,490000
3,777637	227,445823	70,030	-0,044931	22,640000	51,490000
3,777626	227,586909	70,231	-0,044875	22,640000	51,490000
3,775659	226,888839	70,432	-0,045152	22,640000	51,490000
3,771559	224,303893	70,632	-0,046181	22,640000	51,490000
3,767610	220,456531	70,832	-0,047712	22,640000	51,490000
3,763617	218,926665	71,033	-0,048321	22,640000	51,490000
3,759612	216,084083	71,233	-0,049453	22,630000	51,530000
3,755621	213,542076	71,434	-0,050464	22,630000	51,530000
3,751597	210,906829	71,634	-0,051513	22,630000	51,530000
3,747611	208,090011	71,834	-0,052634	22,630000	51,530000
3,743587	205,522240	72,034	-0,053656	22,630000	51,530000
3,739598	202,904169	72,235	-0,054698	22,630000	51,530000
3,735628	200,477485	72,436	-0,055664	22,630000	51,530000
3,731611	197,834878	72,637	-0,056716	22,630000	51,530000
3,727616	195,166506	72,838	-0,057778	22,630000	51,530000
3,723623	192,490774	73,039	-0,058843	22,630000	51,530000
3,719619	188,243463	73,239	-0,060533	22,630000	51,530000
3,715612	186,100179	73,440	-0,061386	22,630000	51,530000
3,711613	182,874823	73,641	-0,062670	22,630000	51,530000
3,707575	180,482491	73,843	-0,063622	22,630000	51,530000
3,703571	178,146592	74,045	-0,064552	22,630000	51,530000
3,699629	176,127218	74,245	-0,065355	22,630000	51,530000
3,695574	174,274694	74,445	-0,066093	22,630000	51,530000
3,691572	171,630859	74,646	-0,067145	22,630000	51,530000
3,687651	168,946539	74,847	-0,068213	22,630000	51,530000
3,683602	165,689286	75,048	-0,069510	22,640000	51,530000
3,679661	163,993797	75,249	-0,070185	22,640000	51,530000
3,675671	161,043253	75,449	-0,071359	22,640000	51,530000
3,671661	158,200671	75,649	-0,072490	22,640000	51,530000
3,667673	155,866000	75,849	-0,073419	22,640000	51,530000
3,663634	153,206217	76,049	-0,074478	22,640000	51,530000
3,659663	150,629858	76,249	-0,075503	22,640000	51,530000
3,655634	148,652197	76,449	-0,076291	22,640000	51,530000
3,651615	146,225512	76,649	-0,077256	22,640000	51,530000
3,647634	143,234483	76,850	-0,078447	22,640000	51,530000
3,643654	140,766086	77,050	-0,079429	22,640000	51,530000
3,639632	138,555325	77,250	-0,080309	22,640000	51,530000
3,635673	135,679619	77,450	-0,081454	22,640000	51,530000
3,631623	133,153561	77,650	-0,082459	22,640000	51,530000
3,627629	130,352691	77,851	-0,083574	22,640000	51,530000
3,623640	128,507528	78,051	-0,084308	22,640000	51,530000
3,619676	124,484728	78,252	-0,085909	22,640000	51,530000
3,615598	123,180600	78,453	-0,086428	22,640000	51,530000
3,611625	120,587066	78,653	-0,087460	22,640000	51,530000
3,607675	117,039053	78,854	-0,088873	22,640000	51,530000
3,603604	114,395218	79,054	-0,089925	22,630000	51,480000
3,599608	113,407614	79,255	-0,090318	22,630000	51,480000
3,595694	111,122016	79,455	-0,091228	22,630000	51,480000
3,591635	107,299191	79,656	-0,092749	22,630000	51,480000
3,587622	104,606283	79,857	-0,093821	22,630000	51,480000
3,583653	102,428647	80,057	-0,094688	22,630000	51,480000
3,579726	99,827752	80,257	-0,095723	22,630000	51,480000
3,575627	97,542154	80,457	-0,096632	22,630000	51,480000
3,571650	96,212262	80,658	-0,097162	22,630000	51,480000
3,567626	93,145169	80,860	-0,098382	22,630000	51,480000
3,563752	91,492619	81,060	-0,099040	22,640000	51,490000
3,559657	88,616913	81,260	-0,100185	22,640000	51,490000
3,555697	86,373027	81,461	-0,101078	22,640000	51,490000
3,551620	84,245691	81,661	-0,101924	22,640000	51,490000
3,547650	80,729576	81,862	-0,103324	22,640000	51,490000
3,543614	79,225473	82,063	-0,103922	22,640000	51,490000
3,539679	76,466316	82,264	-0,105021	22,640000	51,490000
3,535613	74,521779	82,464	-0,105794	22,640000	51,490000
3,531696	72,178520	82,664	-0,106727	22,640000	51,490000
3,527665	69,194851	82,865	-0,107915	22,640000	51,490000
3,523682	67,100640	83,066	-0,108748	22,640000	51,490000
3,519631	64,764742	83,267	-0,109678	22,640000	51,490000
3,515665	62,214147	83,468	-0,110693	22,640000	51,490000
3,511637	60,127297	83,669	-0,111523	22,640000	51,490000
3,507645	57,543577	83,869	-0,112552	22,640000	51,490000
3,503650	55,423602	84,069	-0,113396	22,640000	51,490000
3,499634	52,888957	84,269	-0,114404	22,640000	51,490000
3,495698	49,232981	84,469	-0,115859	22,640000	51,490000
3,491684	48,094476	84,670	-0,116312	22,640000	51,490000
3,487674	45,800291	84,871	-0,117226	22,640000	51,490000
3,483652	41,902628	85,073	-0,118777	22,640000	51,480000
3,479675	39,700455	85,274	-0,119653	22,640000	51,480000
3,475640	37,946078	85,475	-0,120352	22,640000	51,480000
3,471684	35,860455	85,676	-0,121182	22,640000	51,480000
3,467643	32,387278	85,876	-0,122564	22,640000	51,480000
3,463620	30,275891	86,078	-0,123404	22,640000	51,480000
3,459695	28,256517	86,278	-0,124208	22,640000	51,480000
3,455684	26,261679	86,479	-0,125002	22,640000	51,480000
3,451708	23,544235	86,679	-0,126083	22,640000	51,480000
3,447707	21,500324	86,879	-0,126897	22,640000	51,480000
3,443678	19,771710	87,079	-0,127585	22,630000	51,490000
3,439713	17,735160	87,280	-0,128396	22,630000	51,490000
3,435671	14,394482	87,480	-0,129725	22,630000	51,490000
3,431635	12,126060	87,680	-0,130628	22,630000	51,490000
3,427707	9,847823	87,881	-0,131535	22,630000	51,490000
3,423688	7,861573	88,082	-0,132325	22,630000	51,490000
3,419632	5,742825	88,282	-0,133168	22,630000	51,490000
3,415681	3,216767	88,482	-0,134174	22,630000	51,490000
3,411707	0,898045	88,682	-0,135097	22,630000	51,490000
3,407672	-1,371604	88,882	-0,136000	22,630000	51,490000
3,403695	-3,822825	89,083	-0,136976	22,640000	51,455000
3,399698	-7,304589	89,283	-0,138361	22,640000	51,455000
3,395740	-9,440513	89,483	-0,139211	22,640000	51,455000
3,391683	-11,742060	89,684	-0,140127	22,640000	51,455000
3,387724	-12,615568	89,887	-0,140475	22,640000	51,455000
3,383664	-15,299888	90,088	-0,141543	22,640000	51,455000
3,379710	-18,099531	90,288	-0,142658	22,640000	51,455000
3,375721	-19,845320	90,489	-0,143353	22,640000	51,455000
3,371694	-22,113743	90,691	-0,144255	22,640000	51,455000
3,367688	-24,374804	90,891	-0,145155	22,640000	51,455000
3,363692	-27,308172	91,091	-0,146323	22,630000	51,465000
3,359749	-30,075917	91,291	-0,147424	22,630000	51,465000
3,355697	-32,394639	91,491	-0,148347	22,630000	51,465000
3,351715	-34,539151	91,691	-0,149201	22,630000	51,465000
3,347743	-36,640723	91,891	-0,150037	22,630000	51,465000
3,343734	-37,655318	92,091	-0,150441	22,630000	51,465000
3,339706	-40,331050	92,291	-0,151506	22,630000	51,465000
3,335693	-43,530641	92,491	-0,152779	22,630000	51,465000
3,331659	-45,990450	92,691	-0,153758	22,630000	51,465000
3,327695	-47,752189	92,893	-0,154459	22,630000	51,465000
3,323686	-50,029199	93,094	-0,155366	22,640000	51,465000
3,319717	-51,874362	93,296	-0,156100	22,640000	51,465000
3,315738	-53,702350	93,496	-0,156828	22,640000	51,465000
3,311692	-56,511807	93,696	-0,157946	22,640000	51,465000
3,307720	-57,625775	93,897	-0,158389	22,640000	51,465000
3,303705	-61,107540	94,098	-0,159775	22,640000	51,465000
3,299754	-62,155259	94,298	-0,160192	22,640000	51,465000
3,295668	-65,029739	94,498	-0,161336	22,640000	51,465000
3,291782	-66,086045	94,698	-0,161756	22,640000	51,465000
3,287783	-68,006046	94,899	-0,162521	22,640000	51,465000
3,283760	-70,199631	95,100	-0,163394	22,630000	51,505000
3,279725	-72,269306	95,301	-0,164217	22,630000	51,505000
3,275721	-75,709357	95,502	-0,165586	22,630000	51,505000
3,271686	-77,446559	95,703	-0,166278	22,630000	51,505000
3,267728	-78,261179	95,904	-0,166602	22,630000	51,505000
3,263747	-81,460771	96,106	-0,167875	22,630000	51,505000
3,259711	-82,009167	96,306	-0,168094	22,630000	51,505000
3,255673	-84,169627	96,506	-0,168954	22,630000	51,505000
3,251702	-86,030740	96,706	-0,169694	22,630000	51,505000
3,247733	-87,710280	96,906	-0,170363	22,630000	51,505000
3,243754	-90,850983	97,107	-0,171613	22,640000	51,490000
3,239740	-92,588185	97,308	-0,172304	22,640000	51,490000
3,235756	-93,660441	97,508	-0,172731	22,640000	51,490000
3,231774	-95,712940	97,708	-0,173548	22,640000	51,490000
3,227701	-97,325004	97,909	-0,174189	22,640000	51,490000
3,223757	-97,632940	98,109	-0,174312	22,640000	51,490000
3,219737	-99,078154	98,311	-0,174887	22,640000	51,490000
3,215704	-100,923318	98,511	-0,175622	22,640000	51,490000
3,211757	-102,054462	98,712	-0,176072	22,640000	51,490000
3,207670	-103,226091	98,912	-0,176538	22,640000	51,490000
3,203750	-104,713018	99,113	-0,177130	22,630000	51,490000
3,199789	-105,162041	99,314	-0,177309	22,630000	51,490000
3,195695	-105,627012	99,515	-0,177494	22,630000	51,490000
3,191753	-107,921198	99,716	-0,178407	22,630000	51,490000
3,187776	-109,143128	99,916	-0,178893	22,630000	51,490000
3,183733	-109,167664	100,116	-0,178903	22,630000	51,490000
3,179713	-110,339294	100,317	-0,179369	22,630000	51,490000
3,175744	-111,710898	100,518	-0,179915	22,630000	51,490000
3,171796	-113,538886	100,719	-0,180643	22,630000	51,490000
3,167719	-116,572855	100,919	-0,181850	22,630000	51,490000
3,163753	-118,209455	101,119	-0,182501	22,640000	51,490000
3,159706	-120,171168	101,319	-0,183282	22,640000	51,490000
3,155731	-120,719565	101,520	-0,183500	22,640000	51,490000
3,151714	-124,068830	101,721	-0,184833	22,640000	51,490000
3,147753	-125,931170	101,922	-0,185575	22,640000	51,490000
3,143747	-128,008205	102,123	-0,186401	22,640000	51,490000
3,139724	-129,395758	102,324	-0,186954	22,640000	51,490000
3,135732	-131,115784	102,525	-0,187638	22,640000	51,490000
3,131741	-132,553637	102,726	-0,188210	22,640000	51,490000
3,127771	-135,636679	102,926	-0,189438	22,640000	51,490000
3,123725	-137,058584	103,126	-0,190003	22,640000	51,490000
3,119719	-139,468092	103,327	-0,190962	22,640000	51,490000
3,115761	-140,855645	103,527	-0,191515	22,640000	51,490000
3,111733	-143,017333	103,728	-0,192375	22,640000	51,490000
3,107775	-144,645346	103,929	-0,193023	22,640000	51,490000
3,103760	-147,287953	104,129	-0,194075	22,640000	51,490000
3,099768	-147,978663	104,329	-0,194350	22,640000	51,490000
3,095700	-151,310753	104,529	-0,195676	22,640000	51,490000
3,091773	-152,224747	104,729	-0,196040	22,640000	51,490000
3,087730	-153,803686	104,929	-0,196668	22,640000	51,490000
3,083758	-155,815700	105,131	-0,197469	22,640000	51,505000
3,079743	-158,832493	105,331	-0,198669	22,640000	51,505000
3,075729	-159,762435	105,531	-0,199040	22,640000	51,505000
3,071725	-161,441976	105,731	-0,199708	22,640000	51,505000
3,067722	-163,311676	105,931	-0,200452	22,640000	51,505000
3,063726	-166,934526	106,131	-0,201894	22,640000	51,505000
3,059739	-167,524635	106,332	-0,202129	22,640000	51,505000
3,055718	-170,757351	106,533	-0,203416	22,640000	51,505000
3,051768	-171,331511	106,734	-0,203644	22,640000	51,505000
3,047777	-174,780151	106,934	-0,205017	22,640000	51,505000
3,043719	-175,070911	107,134	-0,205132	22,640000	51,545000
3,039794	-178,587027	107,334	-0,206532	22,640000	51,545000
3,035823	-180,314414	107,535	-0,207219	22,640000	51,545000
3,031794	-182,251590	107,737	-0,207990	22,640000	51,545000
3,027785	-184,229252	107,937	-0,208777	22,640000	51,545000
3,023730	-186,116128	108,138	-0,209528	22,640000	51,545000
3,019761	-186,863271	108,338	-0,209826	22,640000	51,545000
3,015782	-190,071451	108,538	-0,211103	22,640000	51,545000
3,011752	-191,958327	108,738	-0,211854	22,640000	51,545000
3,007723	-193,911452	108,938	-0,212631	22,640000	51,545000
3,003808	-194,343299	109,138	-0,212803	22,630000	51,520000
2,999793	-197,360091	109,340	-0,214003	22,630000	51,520000
2,995743	-197,892539	109,541	-0,214215	22,630000	51,520000
2,991790	-200,876207	109,741	-0,215403	22,630000	51,520000
2,987763	-202,812156	109,941	-0,216173	22,630000	51,520000
2,983725	-204,714981	110,141	-0,216931	22,630000	51,520000
2,979826	-206,276745	110,342	-0,217552	22,630000	51,520000
2,975808	-207,582100	110,543	-0,218072	22,630000	51,520000
2,971750	-209,510688	110,743	-0,218839	22,630000	51,520000
2,967781	-210,989027	110,943	-0,219428	22,630000	51,520000
2,963767	-212,659980	111,143	-0,220093	22,640000	51,530000
2,959807	-214,073296	111,343	-0,220655	22,640000	51,530000
2,955817	-215,069488	111,543	-0,221052	22,640000	51,530000
2,951800	-216,166281	111,744	-0,221488	22,640000	51,530000
2,947783	-217,812696	111,944	-0,222144	22,640000	51,530000
2,943799	-219,657860	112,146	-0,222878	22,640000	51,530000
2,939774	-219,931444	112,346	-0,222987	22,640000	51,530000
2,935814	-221,917694	112,546	-0,223777	22,640000	51,530000
2,931717	-222,648889	112,748	-0,224068	22,640000	51,530000
2,927740	-222,723726	112,950	-0,224098	22,640000	51,530000
2,923746	-221,419598	113,150	-0,223579	22,630000	51,520000
2,919793	-213,831609	113,350	-0,220559	22,630000	51,520000
2,915779	-170,142706	113,550	-0,203171	22,630000	51,520000
2,911755	-161,981784	113,750	-0,199923	22,630000	51,520000
2,907755	-158,632518	113,950	-0,198590	22,630000	51,520000
2,903801	-158,865617	114,150	-0,198683	22,630000	51,520000
2,899794	-157,419176	114,351	-0,198107	22,630000	51,520000
2,895828	-157,344339	114,553	-0,198077	22,630000	51,520000
2,891762	-158,009285	114,754	-0,198342	22,630000	51,520000
2,887768	-158,084122	114,955	-0,198372	22,630000	51,520000
2,883751	-157,868198	115,156	-0,198286	22,630000	51,520000
2,879809	-158,956403	115,357	-0,198719	22,630000	51,520000
2,875787	-159,057004	115,557	-0,198759	22,630000	51,520000
2,871772	-159,272927	115,758	-0,198845	22,630000	51,520000
2,867769	-160,826103	115,959	-0,199463	22,630000	51,520000
2,863767	-160,801566	116,160	-0,199453	22,630000	51,520000
2,859719	-161,118090	116,360	-0,199579	22,630000	51,520000
2,855767	-161,441976	116,561	-0,199708	22,630000	51,520000
2,851750	-161,856647	116,761	-0,199873	22,630000	51,520000
2,847793	-162,871241	116,962	-0,200277	22,630000	51,520000
2,843734	-162,406270	117,162	-0,200092	22,630000	51,505000
2,839761	-162,355969	117,363	-0,200072	22,630000	51,505000
2,835780	-162,371918	117,563	-0,200078	22,630000	51,505000
2,831768	-162,862653	117,764	-0,200273	22,630000	51,505000
2,827845	-162,330206	117,964	-0,200062	22,630000	51,505000
2,823791	-162,140046	118,164	-0,199986	22,630000	51,505000
2,819770	-161,532761	118,365	-0,199744	22,630000	51,505000
2,815736	-161,151215	118,566	-0,199592	22,630000	51,505000
2,811806	-160,385669	118,767	-0,199288	22,630000	51,505000
2,807862	-158,582218	118,968	-0,198570	22,630000	51,505000
2,803875	-156,496594	119,168	-0,197740	22,630000	51,505000
2,799809	-152,332708	119,370	-0,196083	22,630000	51,505000
2,795760	-149,183417	119,570	-0,194829	22,630000	51,505000
2,791757	-142,601435	119,771	-0,192209	22,630000	51,505000
2,787801	-128,988448	119,971	-0,186792	22,630000	51,505000
2,783766	-0,872281	120,171	-0,135801	22,630000	51,505000
2,779835	-0,971655	120,372	-0,135841	22,630000	51,505000
2,775797	-1,105380	120,572	-0,135894	22,630000	51,505000
2,771783	-0,931170	120,772	-0,135825	22,630000	51,505000
2,767754	-0,689483	120,972	-0,135729	22,630000	51,505000
2,763699	-0,788856	121,172	-0,135768	22,640000	51,490000
2,759808	-1,055080	121,372	-0,135874	22,640000	51,490000
2,755833	-1,021955	121,572	-0,135861	22,640000	51,490000
2,751800	-1,004780	121,773	-0,135854	22,640000	51,490000
2,747751	-1,030543	121,973	-0,135864	22,640000	51,490000
2,743793	-0,706658	122,174	-0,135735	22,640000	51,490000
2,739765	-0,706658	122,374	-0,135735	22,640000	51,490000
2,735764	-0,738556	122,574	-0,135748	22,640000	51,490000
2,731786	-0,955706	122,774	-0,135834	22,640000	51,490000
2,727776	-0,747144	122,975	-0,135751	22,640000	51,490000
2,723771	-1,037904	123,177	-0,135867	22,630000	51,505000
2,719743	-0,755732	123,377	-0,135755	22,630000	51,505000
2,715793	-0,623233	123,578	-0,135702	22,630000	51,505000
2,711789	-0,672307	123,778	-0,135722	22,630000	51,505000
2,707809	-0,913994	123,979	-0,135818	22,630000	51,505000
2,703818	-0,830569	124,179	-0,135785	22,630000	51,505000
2,699795	-0,738556	124,381	-0,135748	22,630000	51,505000
2,695820	-0,955706	124,581	-0,135834	22,630000	51,505000
2,691811	-0,780269	124,781	-0,135765	22,630000	51,505000
2,687780	-0,772908	124,981	-0,135762	22,630000	51,505000
2,683795	-0,656358	125,182	-0,135715	22,650000	51,495000
2,679799	-0,797444	125,382	-0,135771	22,650000	51,495000
2,675789	-0,788856	125,583	-0,135768	22,650000	51,495000
2,671786	-0,780269	125,784	-0,135765	22,650000	51,495000
2,667821	-0,905406	125,986	-0,135814	22,650000	51,495000
2,663852	-0,788856	126,186	-0,135768	22,650000	51,495000
2,659815	-0,963067	126,387	-0,135837	22,650000	51,495000
2,655734	-1,063668	126,587	-0,135877	22,650000	51,495000
2,651815	-0,597470	126,788	-0,135692	22,650000	51,495000
2,647791	-0,772908	126,988	-0,135762	22,650000	51,495000
2,643806	-0,747144	127,188	-0,135751	22,650000	51,495000
2,639819	-0,706658	127,389	-0,135735	22,650000	51,495000
2,635766	-0,905406	127,589	-0,135814	22,650000	51,495000
2,631817	-0,572933	127,789	-0,135682	22,650000	51,495000
2,627782	-0,698070	127,989	-0,135732	22,650000	51,495000
2,623807	-0,656358	128,189	-0,135715	22,650000	51,495000
2,619796	-0,821981	128,390	-0,135781	22,650000	51,495000
2,615844	-0,656358	128,591	-0,135715	22,650000	51,495000
2,611795	-0,698070	128,792	-0,135732	22,650000	51,495000
2,607788	-0,722607	128,992	-0,135742	22,650000	51,495000
2,603737	-0,755732	129,192	-0,135755	22,640000	51,465000
2,599821	-0,506684	129,392	-0,135656	22,640000	51,465000
2,595810	-0,722607	129,594	-0,135742	22,640000	51,465000
2,591791	-0,581521	129,795	-0,135686	22,640000	51,465000
2,587773	-0,298121	129,995	-0,135573	22,640000	51,465000
2,583842	-0,821981	130,196	-0,135781	22,640000	51,465000
2,579798	-0,664946	130,397	-0,135719	22,640000	51,465000
2,577817	-0,764320	130,497	-0,135758	22,640000	51,465000

X-Pos [um]	Y-Pos [um]
0,000000	4,997459

POC
3,293460
2,595363	-0,057661	0,241	-0,135593	22,640000	51,505000
2,599421	-0,049073	0,442	-0,135589	22,640000	51,505000
2,603372	-0,057661	0,642	-0,135593	22,640000	51,505000
2,607441	0,241687	0,843	-0,135474	22,640000	51,505000
2,611443	-0,282173	1,043	-0,135682	22,640000	51,505000
2,615429	-0,199974	1,243	-0,135649	22,640000	51,505000
2,619420	-0,041712	1,443	-0,135586	22,650000	51,495000
2,623423	-0,082198	1,645	-0,135603	22,650000	51,495000
2,627440	-0,082198	1,845	-0,135603	22,650000	51,495000
2,631444	0,175438	2,045	-0,135500	22,650000	51,495000
2,635417	-0,074837	2,246	-0,135600	22,650000	51,495000
2,639425	-0,099374	2,447	-0,135609	22,650000	51,495000
2,643389	0,116550	2,647	-0,135523	22,650000	51,495000
2,647400	-0,074837	2,847	-0,135600	22,650000	51,495000
2,651395	-0,315297	3,047	-0,135695	22,650000	51,495000
2,655415	-0,024537	3,247	-0,135580	22,650000	51,495000
2,659435	0,000000	3,447	-0,135570	22,650000	51,495000
2,663381	0,033125	3,648	-0,135557	22,650000	51,495000
2,667443	-0,264997	3,848	-0,135675	22,650000	51,495000
2,671385	-0,149674	4,048	-0,135629	22,650000	51,495000
2,675462	-0,132498	4,248	-0,135623	22,650000	51,495000
2,679439	-0,074837	4,449	-0,135600	22,650000	51,495000
2,683407	-0,074837	4,649	-0,135600	22,650000	51,495000
2,687398	-0,199974	4,850	-0,135649	22,650000	51,495000
2,691368	-0,158262	5,050	-0,135633	22,650000	51,495000
2,695456	-0,149674	5,251	-0,135629	22,650000	51,495000
2,699474	-0,082198	5,451	-0,135603	22,630000	51,490000
2,703412	-0,123911	5,651	-0,135619	22,630000	51,490000
2,707422	0,092013	5,851	-0,135533	22,630000	51,490000
2,711394	-0,257636	6,051	-0,135672	22,630000	51,490000
2,715389	-0,207336	6,252	-0,135652	22,630000	51,490000
2,719433	-0,116550	6,452	-0,135616	22,630000	51,490000
2,723375	-0,182799	6,652	-0,135643	22,630000	51,490000
2,727366	-0,182799	6,853	-0,135643	22,630000	51,490000
2,731400	-0,522633	7,055	-0,135778	22,630000	51,490000
2,735377	-0,199974	7,255	-0,135649	22,630000	51,490000
2,739397	-0,182799	7,455	-0,135643	22,640000	51,490000
2,743399	-0,348422	7,655	-0,135708	22,640000	51,490000
2,747416	-0,207336	7,856	-0,135652	22,640000	51,490000
2,751441	-0,199974	8,056	-0,135649	22,640000	51,490000
2,755424	-0,123911	8,257	-0,135619	22,640000	51,490000
2,759390	-0,090786	8,458	-0,135606	22,640000	51,490000
2,763379	-0,407310	8,658	-0,135732	22,640000	51,490000
2,767406	-0,498096	8,858	-0,135768	22,640000	51,490000
2,771443	-0,231872	9,059	-0,135662	22,640000	51,490000
2,775435	-0,224511	9,259	-0,135659	22,640000	51,490000
2,779422	-0,107962	9,459	-0,135613	22,640000	51,490000
2,783382	-0,357010	9,660	-0,135712	22,640000	51,490000
2,787438	-0,341061	9,861	-0,135706	22,640000	51,490000
[...]
3,692577	225,724570	61,082	-0,045738	22,640000	51,455000
3,692511	225,574896	61,284	-0,045797	22,640000	51,455000
3,692512	225,425222	61,485	-0,045857	22,640000	51,455000
3,692537	225,251011	61,685	-0,045926	22,640000	51,465000
3,692565	225,101337	61,886	-0,045986	22,640000	51,465000
3,692563	225,009324	62,088	-0,046022	22,640000	51,465000
3,692551	224,892774	62,288	-0,046069	22,640000	51,465000
3,692497	224,777452	62,488	-0,046115	22,640000	51,465000
3,692552	224,652314	62,688	-0,046165	22,640000	51,465000
3,692550	224,676851	62,889	-0,046155	22,640000	51,465000
3,692608	224,552940	63,090	-0,046204	22,640000	51,465000
3,692526	224,494052	63,290	-0,046228	22,640000	51,465000
3,692570	224,511228	63,492	-0,046221	22,640000	51,465000
3,692539	224,344378	63,693	-0,046287	22,630000	51,490000
3,692555	224,278129	63,894	-0,046313	22,630000	51,490000
3,692524	224,119867	64,094	-0,046376	22,630000	51,490000
3,692501	224,053618	64,294	-0,046403	22,630000	51,490000
3,692539	224,011905	64,494	-0,046419	22,630000	51,490000
3,692525	223,778806	64,694	-0,046512	22,630000	51,490000
3,692557	223,696608	64,895	-0,046545	22,630000	51,490000
3,692616	223,929707	65,095	-0,046452	22,630000	51,490000
3,692525	223,795982	65,295	-0,046505	22,630000	51,490000
3,692571	223,679432	65,495	-0,046552	22,630000	51,490000
3,692567	223,637720	65,695	-0,046568	22,630000	51,490000
3,692544	223,414435	65,898	-0,046657	22,630000	51,490000
3,692520	223,264761	66,099	-0,046717	22,630000	51,490000
3,692513	223,181336	66,299	-0,046750	22,630000	51,490000
3,692549	223,405848	66,499	-0,046661	22,630000	51,490000
3,692583	222,707777	66,700	-0,046938	22,630000	51,490000
3,692505	223,106499	66,901	-0,046780	22,630000	51,490000
3,692555	223,172749	67,101	-0,046753	22,630000	51,490000
3,692561	223,131036	67,301	-0,046770	22,630000	51,490000
3,692509	223,106499	67,501	-0,046780	22,630000	51,490000
3,692540	222,890576	67,701	-0,046866	22,640000	51,490000
3,692565	222,432966	67,902	-0,047048	22,640000	51,490000
3,692521	222,965413	68,102	-0,046836	22,640000	51,490000
3,692545	222,707777	68,303	-0,046938	22,640000	51,490000
3,692549	222,840276	68,505	-0,046886	22,640000	51,490000
3,692555	222,648889	68,705	-0,046962	22,640000	51,490000
3,692544	222,690601	68,905	-0,046945	22,640000	51,490000
3,692557	222,815739	69,105	-0,046896	22,640000	51,490000
3,692512	222,791202	69,305	-0,046905	22,640000	51,490000
3,692501	222,342180	69,505	-0,047084	22,640000	51,490000
3,692567	222,524978	69,705	-0,047011	22,630000	51,455000
3,692561	222,582640	69,907	-0,046988	22,630000	51,455000
3,692514	222,366716	70,108	-0,047074	22,630000	51,455000
3,692509	222,408429	70,309	-0,047058	22,630000	51,455000
3,690544	222,300467	70,509	-0,047101	22,630000	51,455000
3,686530	219,682396	70,709	-0,048143	22,630000	51,455000
3,682535	216,715904	70,910	-0,049323	22,630000	51,455000
3,678516	214,105194	71,111	-0,050362	22,630000	51,455000
3,674566	211,737398	71,311	-0,051305	22,630000	51,455000
3,670566	207,150253	71,511	-0,053130	22,630000	51,455000
3,666560	206,093946	71,713	-0,053551	22,640000	51,440000
3,662542	203,418214	71,914	-0,054616	22,640000	51,440000
3,658533	200,801370	72,114	-0,055657	22,640000	51,440000
3,654535	198,007862	72,316	-0,056769	22,640000	51,440000
3,650530	195,323542	72,516	-0,057837	22,640000	51,440000
3,646538	191,351042	72,716	-0,059418	22,640000	51,440000
3,642547	190,022378	72,916	-0,059947	22,640000	51,440000
3,638601	187,371182	73,117	-0,061002	22,640000	51,440000
3,634523	183,315258	73,319	-0,062617	22,640000	51,440000
3,630525	181,344957	73,519	-0,063401	22,640000	51,440000
3,626497	178,761238	73,719	-0,064429	22,640000	51,440000
3,622546	176,990912	73,920	-0,065134	22,640000	51,440000
3,618526	174,423141	74,120	-0,066156	22,640000	51,440000
3,614540	170,499715	74,320	-0,067717	22,640000	51,440000
3,610537	168,380967	74,520	-0,068561	22,640000	51,440000
3,606573	166,361593	74,721	-0,069364	22,640000	51,440000
3,602544	163,818359	74,921	-0,070376	22,640000	51,440000
3,598547	161,748685	75,121	-0,071200	22,640000	51,440000
3,594538	158,441131	75,322	-0,072517	22,640000	51,440000
3,590579	156,513770	75,524	-0,073284	22,640000	51,440000
3,586491	153,721488	75,724	-0,074395	22,630000	51,425000
3,582540	151,768363	75,925	-0,075172	22,630000	51,425000
3,578546	148,800644	76,127	-0,076354	22,630000	51,425000
3,574536	146,283174	76,328	-0,077355	22,630000	51,425000
3,570530	142,435812	76,528	-0,078887	22,630000	51,425000
3,566526	140,108501	76,729	-0,079813	22,630000	51,425000
3,562564	137,398418	76,930	-0,080892	22,630000	51,425000
3,558531	134,914072	77,130	-0,081880	22,630000	51,425000
3,554568	132,412551	77,330	-0,082876	22,630000	51,425000
3,550499	129,919618	77,530	-0,083868	22,630000	51,425000
3,546522	129,047336	77,731	-0,084215	22,640000	51,465000
3,542566	126,345841	77,933	-0,085291	22,640000	51,465000
3,538540	123,894620	78,134	-0,086266	22,640000	51,465000
3,534577	121,417635	78,335	-0,087252	22,640000	51,465000
3,530569	118,019296	78,537	-0,088604	22,640000	51,465000
3,526556	115,799947	78,738	-0,089488	22,640000	51,465000
3,522571	114,095870	78,939	-0,090166	22,640000	51,465000
3,518577	110,123371	79,139	-0,091747	22,640000	51,465000
3,514594	108,220546	79,339	-0,092504	22,640000	51,465000
3,510526	105,294539	79,539	-0,093669	22,640000	51,465000
3,506555	102,826142	79,739	-0,094651	22,630000	51,490000
3,502511	101,123292	79,939	-0,095329	22,630000	51,490000
3,498580	99,112506	80,139	-0,096129	22,630000	51,490000
3,494569	96,693183	80,339	-0,097092	22,630000	51,490000
3,490602	94,109463	80,539	-0,098121	22,630000	51,490000
3,486537	90,544274	80,740	-0,099540	22,630000	51,490000
3,482579	89,205795	80,941	-0,100072	22,630000	51,490000
3,478615	86,928785	81,142	-0,100979	22,630000	51,490000
3,474596	84,726612	81,342	-0,101855	22,630000	51,490000
3,470576	80,754112	81,543	-0,103436	22,630000	51,490000
3,466617	78,285716	81,743	-0,104418	22,640000	51,480000
3,462617	75,634520	81,943	-0,105474	22,640000	51,480000
3,458563	73,507184	82,143	-0,106320	22,640000	51,480000
3,454574	71,296424	82,343	-0,107200	22,640000	51,480000
3,450572	68,512730	82,544	-0,108308	22,640000	51,480000
3,446550	67,357049	82,745	-0,108768	22,640000	51,480000
3,442589	63,642186	82,945	-0,110247	22,640000	51,480000
3,438610	62,595693	83,145	-0,110663	22,640000	51,480000
3,434577	60,193546	83,345	-0,111619	22,640000	51,480000
3,430598	56,353545	83,546	-0,113147	22,640000	51,480000
3,426593	55,281289	83,748	-0,113574	22,630000	51,440000
3,422666	51,898899	83,949	-0,114920	22,630000	51,440000
3,418641	49,298004	84,149	-0,115956	22,630000	51,440000
3,414604	46,738821	84,349	-0,116974	22,630000	51,440000
3,410577	44,719447	84,549	-0,117778	22,630000	51,440000
3,406615	42,458386	84,749	-0,118678	22,630000	51,440000
3,402593	41,335830	84,949	-0,119125	22,630000	51,440000
3,398617	37,481107	85,151	-0,120659	22,630000	51,440000
3,394605	35,669068	85,352	-0,121380	22,630000	51,440000
3,390587	33,150371	85,553	-0,122382	22,630000	51,440000
3,386586	30,333553	85,753	-0,123503	22,640000	51,465000
3,382532	28,438089	85,953	-0,124258	22,640000	51,465000
3,378590	25,605322	86,153	-0,125385	22,640000	51,465000
3,374605	24,258254	86,353	-0,125921	22,640000	51,465000
3,370602	22,146867	86,554	-0,126762	22,640000	51,465000
3,366585	19,554560	86,755	-0,127793	22,640000	51,465000
3,362599	17,053039	86,955	-0,128789	22,640000	51,465000
3,358604	14,875402	87,158	-0,129656	22,640000	51,465000
3,354598	11,118827	87,359	-0,131151	22,640000	51,465000
3,350591	8,808692	87,560	-0,132070	22,640000	51,465000
3,346636	7,837037	87,761	-0,132457	22,640000	51,440000
3,342619	5,634864	87,962	-0,133333	22,640000	51,440000
3,338632	3,307553	88,162	-0,134260	22,640000	51,440000
3,334631	-0,515272	88,362	-0,135781	22,640000	51,440000
3,330623	-2,635247	88,563	-0,136625	22,640000	51,440000
3,326643	-5,161305	88,763	-0,137630	22,640000	51,440000
3,322617	-5,659401	88,964	-0,137829	22,640000	51,440000
3,318572	-9,375491	89,164	-0,139308	22,640000	51,440000
3,314601	-10,787580	89,365	-0,139870	22,640000	51,440000
3,310632	-13,064591	89,565	-0,140776	22,640000	51,440000
3,306628	-16,107147	89,767	-0,141987	22,630000	51,480000
3,302600	-17,909371	89,969	-0,142704	22,630000	51,480000
3,298608	-19,837959	90,170	-0,143472	22,630000	51,480000
3,294640	-22,189806	90,371	-0,144408	22,630000	51,480000
3,290595	-24,816465	90,572	-0,145453	22,630000	51,480000
3,286628	-28,098255	90,773	-0,146759	22,630000	51,480000
3,282601	-29,170511	90,973	-0,147186	22,630000	51,480000
3,278596	-32,411815	91,173	-0,148476	22,630000	51,480000
3,274582	-34,065592	91,373	-0,149134	22,630000	51,480000
3,270643	-37,232059	91,574	-0,150395	22,630000	51,480000
3,266656	-38,304315	91,775	-0,150821	22,630000	51,490000
3,262650	-40,365401	91,976	-0,151642	22,630000	51,490000
3,258608	-42,733197	92,177	-0,152584	22,630000	51,490000
3,254624	-44,710859	92,379	-0,153371	22,630000	51,490000
3,250617	-46,971920	92,580	-0,154271	22,630000	51,490000
3,246649	-49,091895	92,781	-0,155115	22,630000	51,490000
3,242595	-52,690209	92,981	-0,156547	22,630000	51,490000
3,238614	-53,952624	93,181	-0,157049	22,630000	51,490000
3,234655	-55,548740	93,382	-0,157685	22,630000	51,490000
3,230672	-57,883411	93,582	-0,158614	22,630000	51,490000
3,226628	-61,141891	93,783	-0,159911	22,630000	51,490000
3,222670	-63,053304	93,984	-0,160671	22,630000	51,490000
3,218605	-65,421100	94,185	-0,161614	22,630000	51,490000
3,214676	-66,202595	94,386	-0,161925	22,630000	51,490000
3,210656	-68,521318	94,587	-0,162848	22,630000	51,490000
3,206618	-71,646072	94,787	-0,164091	22,630000	51,490000
3,202617	-72,627542	94,987	-0,164482	22,630000	51,490000
3,198640	-74,264143	95,187	-0,165133	22,630000	51,490000
3,194654	-76,532565	95,388	-0,166036	22,630000	51,490000
3,190677	-78,436617	95,588	-0,166794	22,630000	51,490000
3,186648	-80,804413	95,789	-0,167736	22,640000	51,465000
3,182688	-82,117129	95,990	-0,168259	22,640000	51,465000
3,178613	-84,145091	96,191	-0,169066	22,640000	51,465000
3,174642	-86,871123	96,391	-0,170151	22,640000	51,465000
3,170634	-87,428107	96,591	-0,170373	22,640000	51,465000
3,166624	-88,956747	96,793	-0,170981	22,640000	51,465000
3,162648	-92,198051	96,994	-0,172271	22,640000	51,465000
3,158641	-93,336556	97,194	-0,172724	22,640000	51,465000
3,154731	-93,910716	97,394	-0,172953	22,640000	51,465000
3,150617	-95,863841	97,596	-0,173730	22,640000	51,465000
3,146659	-96,835496	97,797	-0,174117	22,630000	51,465000
3,142687	-98,506448	97,998	-0,174782	22,630000	51,465000
3,138650	-99,694027	98,198	-0,175254	22,630000	51,465000
3,134632	-101,215305	98,398	-0,175860	22,630000	51,465000
3,130655	-102,677695	98,598	-0,176442	22,630000	51,465000
3,126685	-104,282398	98,799	-0,177081	22,630000	51,465000
3,122699	-105,720252	98,999	-0,177653	22,630000	51,465000
3,118687	-106,750795	99,199	-0,178063	22,630000	51,465000
3,114711	-106,451447	99,401	-0,177944	22,630000	51,465000
3,110646	-107,556827	99,601	-0,178384	22,630000	51,465000
3,106602	-108,860955	99,802	-0,178903	22,630000	51,465000
3,102650	-110,838617	100,002	-0,179690	22,630000	51,465000
3,098673	-111,811499	100,202	-0,180077	22,630000	51,465000
3,094662	-112,575819	100,402	-0,180381	22,630000	51,465000
3,090650	-115,293263	100,603	-0,181463	22,630000	51,465000
3,086668	-116,332394	100,803	-0,181876	22,630000	51,465000
3,082666	-118,019296	101,003	-0,182548	22,630000	51,465000
3,078652	-119,622772	101,204	-0,183186	22,630000	51,465000
3,074659	-122,183182	101,404	-0,184205	22,630000	51,465000
3,070697	-123,603859	101,605	-0,184771	22,630000	51,465000
3,066644	-125,058888	101,806	-0,185350	22,640000	51,490000
3,062652	-128,399566	102,006	-0,186679	22,640000	51,490000
3,058698	-129,038748	102,207	-0,186934	22,640000	51,490000
3,054638	-130,734238	102,408	-0,187608	22,640000	51,490000
3,050638	-133,543695	102,609	-0,188727	22,640000	51,490000
3,046667	-134,424564	102,810	-0,189077	22,640000	51,490000
3,042693	-136,137229	103,010	-0,189759	22,640000	51,490000
3,038705	-138,089127	103,212	-0,190536	22,640000	51,490000
3,034668	-139,892578	103,413	-0,191253	22,640000	51,490000
3,030631	-142,677499	103,613	-0,192362	22,640000	51,490000
3,026689	-144,970458	103,814	-0,193274	22,640000	51,490000
3,022658	-145,253857	104,015	-0,193387	22,640000	51,490000
3,018635	-147,456030	104,215	-0,194264	22,640000	51,490000
3,014612	-149,101219	104,416	-0,194918	22,640000	51,490000
3,010712	-151,810076	104,616	-0,195997	22,640000	51,490000
3,006706	-153,014830	104,818	-0,196476	22,640000	51,490000
3,002643	-155,740863	105,019	-0,197561	22,640000	51,490000
2,998648	-156,879368	105,220	-0,198014	22,640000	51,490000
2,994608	-159,057004	105,420	-0,198881	22,640000	51,490000
2,990635	-160,536570	105,620	-0,199470	22,630000	51,455000
2,986688	-162,265183	105,822	-0,200158	22,630000	51,455000
2,982675	-164,542193	106,022	-0,201064	22,630000	51,455000
2,978656	-166,138309	106,223	-0,201699	22,630000	51,455000
2,974630	-167,800673	106,423	-0,202361	22,630000	51,455000
2,970683	-169,844584	106,623	-0,203174	22,630000	51,455000
2,966664	-171,639447	106,823	-0,203889	22,630000	51,455000
2,962668	-173,359473	107,023	-0,204573	22,630000	51,455000
2,958650	-175,611946	107,223	-0,205470	22,630000	51,455000
2,954702	-177,490234	107,424	-0,206217	22,630000	51,455000
2,950694	-179,460535	107,625	-0,207001	22,650000	51,495000
2,946702	-180,881213	107,825	-0,207567	22,650000	51,495000
2,942669	-182,759501	108,027	-0,208314	22,650000	51,495000
2,938708	-184,596076	108,228	-0,209045	22,650000	51,495000
2,934668	-186,415476	108,429	-0,209770	22,650000	51,495000
2,930668	-188,360013	108,629	-0,210543	22,650000	51,495000
2,926689	-191,301969	108,830	-0,211714	22,650000	51,495000
2,922688	-192,915260	109,030	-0,212356	22,650000	51,495000
2,918673	-194,584985	109,230	-0,213021	22,650000	51,495000
2,914657	-196,513574	109,430	-0,213789	22,650000	51,495000
2,910644	-196,729497	109,630	-0,213875	22,650000	51,470000
2,906698	-197,951427	109,830	-0,214361	22,650000	51,470000
2,902657	-199,929089	110,030	-0,215148	22,650000	51,470000
2,898727	-202,820744	110,230	-0,216299	22,650000	51,470000
2,894682	-204,267186	110,430	-0,216875	22,650000	51,470000
2,890679	-205,713627	110,630	-0,217450	22,650000	51,470000
2,886697	-206,668106	110,831	-0,217830	22,650000	51,470000
2,882694	-208,156260	111,031	-0,218422	22,650000	51,470000
2,878739	-209,352426	111,233	-0,218898	22,650000	51,470000
2,874718	-211,230714	111,433	-0,219646	22,650000	51,470000
2,870674	-213,059929	111,634	-0,220374	22,650000	51,470000
2,866662	-214,064708	111,836	-0,220774	22,650000	51,470000
2,862711	-213,899085	112,038	-0,220708	22,650000	51,470000
2,858665	-214,198434	112,238	-0,220827	22,650000	51,470000
2,854693	-214,588568	112,439	-0,220982	22,650000	51,470000
2,850704	-213,042753	112,639	-0,220367	22,650000	51,470000
2,846698	-161,617413	112,840	-0,199900	22,650000	51,470000
2,842642	-149,865539	113,040	-0,195223	22,650000	51,470000
2,838681	-146,475787	113,241	-0,193874	22,650000	51,470000
2,834704	-144,555787	113,441	-0,193109	22,650000	51,470000
2,830695	-143,117933	113,642	-0,192537	22,630000	51,455000
2,826702	-141,264182	113,843	-0,191799	22,630000	51,455000
2,822687	-140,258176	114,043	-0,191399	22,630000	51,455000
2,818669	-140,142853	114,243	-0,191353	22,630000	51,455000
2,814706	-140,748911	114,444	-0,191594	22,630000	51,455000
2,810663	-140,982010	114,644	-0,191687	22,630000	51,455000
2,806686	-140,740323	114,845	-0,191591	22,630000	51,455000
2,802651	-140,665486	115,046	-0,191561	22,630000	51,455000
2,798677	-141,413856	115,248	-0,191859	22,630000	51,455000
2,794696	-141,039671	115,448	-0,191710	22,630000	51,455000
2,790675	-141,123096	115,648	-0,191743	22,630000	51,465000
2,786673	-140,956246	115,848	-0,191677	22,630000	51,465000
2,782745	-141,803991	116,048	-0,192014	22,630000	51,465000
2,778728	-141,680080	116,249	-0,191965	22,630000	51,465000
2,774710	-141,854291	116,449	-0,192034	22,630000	51,465000
2,770718	-141,089971	116,650	-0,191730	22,630000	51,465000
2,766668	-140,275351	116,850	-0,191406	22,630000	51,465000
2,762666	-139,469319	117,051	-0,191085	22,630000	51,465000
2,758734	-137,283095	117,251	-0,190215	22,630000	51,465000
2,754691	-135,239184	117,452	-0,189401	22,630000	51,465000
2,750689	-129,695106	117,653	-0,187195	22,630000	51,465000
2,746667	-122,623616	117,853	-0,184380	22,630000	51,465000
2,742728	-115,085928	118,053	-0,181380	22,630000	51,465000
2,738732	-111,595576	118,253	-0,179991	22,630000	51,465000
2,734735	-106,201172	118,454	-0,177844	22,630000	51,465000
2,730718	-88,650037	118,654	-0,170859	22,630000	51,465000
2,726677	-1,380192	118,855	-0,136125	22,630000	51,465000
2,722718	-1,421904	119,055	-0,136142	22,630000	51,465000
2,718699	-1,329892	119,255	-0,136105	22,630000	51,465000
2,714712	-1,313943	119,456	-0,136099	22,630000	51,465000
2,710680	-1,388780	119,658	-0,136129	22,630000	51,425000
2,706712	-1,296767	119,858	-0,136092	22,630000	51,425000
2,702751	-1,521278	120,059	-0,136182	22,630000	51,425000
2,698718	-1,221930	120,260	-0,136063	22,630000	51,425000
2,694689	-1,122556	120,461	-0,136023	22,630000	51,425000
2,690672	-1,180217	120,662	-0,136046	22,630000	51,425000
2,686721	-0,806032	120,863	-0,135897	22,630000	51,425000
2,682710	-1,171630	121,064	-0,136042	22,630000	51,425000
2,678666	-1,072256	121,264	-0,136003	22,630000	51,425000
2,674670	-1,380192	121,464	-0,136125	22,630000	51,425000
2,670711	-1,470978	121,664	-0,136162	22,630000	51,480000
2,666705	-1,188805	121,864	-0,136049	22,630000	51,480000
2,662694	-1,313943	122,064	-0,136099	22,630000	51,480000
2,658713	-1,437853	122,264	-0,136148	22,630000	51,480000
2,654679	-1,263642	122,464	-0,136079	22,630000	51,480000
2,650730	-1,637828	122,665	-0,136228	22,630000	51,480000
2,646723	-1,829214	122,867	-0,136304	22,630000	51,480000
2,642731	-1,429265	123,069	-0,136145	22,630000	51,480000
2,638693	-1,421904	123,269	-0,136142	22,630000	51,480000
2,634742	-1,455029	123,470	-0,136155	22,630000	51,480000
2,630737	-1,056307	123,670	-0,135997	22,630000	51,480000
2,626710	-1,014594	123,870	-0,135980	22,630000	51,480000
2,622717	-0,997419	124,070	-0,135973	22,630000	51,480000
2,618733	-1,039131	124,270	-0,135990	22,630000	51,480000
2,614682	-0,997419	124,470	-0,135973	22,630000	51,480000
2,610690	-0,781495	124,670	-0,135887	22,630000	51,480000
2,606738	-0,948345	124,872	-0,135954	22,630000	51,480000
2,602716	-0,765546	125,073	-0,135881	22,630000	51,480000
2,598714	-0,872281	125,275	-0,135923	22,630000	51,480000
2,594674	-0,798671	125,475	-0,135894	22,630000	51,480000
2,590671	-0,906633	125,675	-0,135937	22,640000	51,490000
2,586724	-0,673534	125,875	-0,135844	22,640000	51,490000
2,582677	-0,880869	126,076	-0,135927	22,640000	51,490000
2,578720	-0,706658	126,279	-0,135857	22,640000	51,490000
2,574674	-0,656358	126,479	-0,135837	22,640000	51,490000
2,570711	-0,823208	126,681	-0,135904	22,640000	51,490000
2,566707	-0,790083	126,882	-0,135891	22,640000	51,490000
2,562745	-0,624460	127,082	-0,135825	22,640000	51,490000
2,558724	-0,739783	127,282	-0,135871	22,640000	51,490000
2,554702	-0,748371	127,482	-0,135874	22,640000	51,490000
2,550702	-0,856332	127,682	-0,135917	22,640000	51,455000
2,546737	-0,856332	127,882	-0,135917	22,640000	51,455000
2,542694	-0,316524	128,082	-0,135702	22,640000	51,455000
2,538698	-1,056307	128,283	-0,135997	22,640000	51,455000
2,534679	-0,831796	128,483	-0,135907	22,640000	51,455000
2,530674	-0,715246	128,683	-0,135861	22,640000	51,455000
2,526706	-0,748371	128,883	-0,135874	22,640000	51,455000
2,522706	-0,723834	129,084	-0,135864	22,640000	51,455000
2,518719	-0,814620	129,285	-0,135900	22,640000	51,455000
2,514707	-0,656358	129,485	-0,135837	22,640000	51,455000
2,510765	-0,640409	129,686	-0,135831	22,640000	51,440000
2,506741	-0,748371	129,888	-0,135874	22,640000	51,440000
2,502699	-0,499323	130,088	-0,135775	22,640000	51,440000
2,498668	-0,358236	130,289	-0,135719	22,640000	51,440000
2,494682	-0,673534	130,489	-0,135844	22,640000	51,440000
2,492744	-0,731195	130,589	-0,135867	22,640000	51,440000