File: Nanoindentation Datenauswertung/data/PDMS/EM-PDMS-125-10-125-2,5um-2
Quasi static measurement routine
Tip parameters (shape,radius, material...)
25.08.2022

Piezo position[nm]	MEMS displ.[nm]	Time[ms]	Cap [pf]	Temp [°C]	Rh [%]
eoh
2,537965	-0,074837	0,211	-0,135629	0,000000	0,000000
2,543999	-0,066249	0,512	-0,135626	0,000000	0,000000
2,550008	0,092013	0,812	-0,135563	0,000000	0,000000
2,556006	-0,182799	1,113	-0,135672	0,000000	0,000000
2,561989	0,083425	1,414	-0,135566	0,000000	0,000000
2,568011	-0,066249	1,715	-0,135626	0,000000	0,000000
2,573932	0,074837	2,015	-0,135570	0,000000	0,000000
2,579978	0,107962	2,317	-0,135557	0,000000	0,000000
2,585957	0,215923	2,617	-0,135514	0,000000	0,000000
2,591999	0,092013	2,919	-0,135563	0,000000	0,000000
2,597918	0,033125	3,222	-0,135586	0,000000	0,000000
2,603966	0,025764	3,522	-0,135589	0,000000	0,000000
2,609933	0,116550	3,822	-0,135553	0,000000	0,000000
2,615941	0,033125	4,122	-0,135586	0,000000	0,000000
2,621932	-0,116550	4,422	-0,135646	0,000000	0,000000
2,627994	-0,132498	4,722	-0,135652	0,000000	0,000000
2,633953	0,208562	5,023	-0,135517	0,000000	0,000000
2,639991	0,033125	5,323	-0,135586	0,000000	0,000000
2,645965	-0,157035	5,625	-0,135662	0,000000	0,000000
2,652027	-0,074837	5,926	-0,135629	0,000000	0,000000
2,657955	0,050300	6,226	-0,135580	0,000000	0,000000
2,663993	-0,165623	6,526	-0,135666	0,000000	0,000000
2,670000	-0,107962	6,827	-0,135643	0,000000	0,000000
2,675911	-0,165623	7,131	-0,135666	0,000000	0,000000
2,681966	-0,306709	7,432	-0,135722	0,000000	0,000000
2,687995	-0,224511	7,732	-0,135689	0,000000	0,000000
2,693930	-0,290760	8,032	-0,135715	0,000000	0,000000
2,699998	-0,231872	8,332	-0,135692	0,000000	0,000000
2,705957	-0,224511	8,633	-0,135689	0,000000	0,000000
2,711997	-0,198748	8,934	-0,135679	0,000000	0,000000
2,717971	-0,215923	9,234	-0,135686	0,000000	0,000000
2,723958	-0,290760	9,534	-0,135715	0,000000	0,000000
2,729979	-0,224511	9,835	-0,135689	0,000000	0,000000
2,735952	-0,597470	10,135	-0,135837	0,000000	0,000000
2,741908	-0,456383	10,435	-0,135781	0,000000	0,000000
2,747970	-0,365598	10,736	-0,135745	0,000000	0,000000
2,754024	-0,431847	11,037	-0,135771	0,000000	0,000000
2,759984	-0,407310	11,337	-0,135762	0,000000	0,000000
2,765935	-0,431847	11,638	-0,135771	0,000000	0,000000
2,771971	0,017176	11,940	-0,135593	0,000000	0,000000
2,777954	-0,299348	12,241	-0,135719	0,000000	0,000000
2,784016	-0,165623	12,542	-0,135666	0,000000	0,000000
2,789992	-0,348422	12,844	-0,135738	0,000000	0,000000
2,795977	-0,332473	13,145	-0,135732	0,000000	0,000000
2,802014	-0,447796	13,448	-0,135778	0,000000	0,000000
2,807980	-0,341061	13,748	-0,135735	0,000000	0,000000
2,814006	-0,414671	14,051	-0,135765	0,000000	0,000000
2,819946	-0,372959	14,354	-0,135748	0,000000	0,000000
2,825983	-0,414671	14,654	-0,135765	0,000000	0,000000
2,831959	-0,398722	14,954	-0,135758	0,000000	0,000000
2,837924	-0,464971	15,254	-0,135785	0,000000	0,000000
2,843966	-0,381546	15,554	-0,135751	0,000000	0,000000
2,849944	-0,731195	15,854	-0,135891	0,000000	0,000000
2,855987	-0,282173	16,155	-0,135712	0,000000	0,000000
2,861946	-0,606058	16,456	-0,135841	0,000000	0,000000
2,867876	-0,548396	16,758	-0,135818	0,000000	0,000000
2,873952	-0,614645	17,059	-0,135844	0,000000	0,000000
2,879971	-0,855106	17,360	-0,135940	0,000000	0,000000
2,885964	-0,498096	17,661	-0,135798	0,000000	0,000000
2,891968	-0,623233	17,961	-0,135848	0,000000	0,000000
2,897961	-0,706658	18,262	-0,135881	0,000000	0,000000
2,903958	-0,590109	18,562	-0,135834	0,000000	0,000000
2,909971	-0,839157	18,862	-0,135934	0,000000	0,000000
2,915982	-0,863693	19,164	-0,135943	0,000000	0,000000
2,921912	-0,614645	19,464	-0,135844	0,000000	0,000000
2,927929	-0,747144	19,766	-0,135897	0,000000	0,000000
2,933957	-0,764320	20,067	-0,135904	0,000000	0,000000
2,939912	-0,722607	20,367	-0,135887	0,000000	0,000000
2,945959	-0,689483	20,668	-0,135874	0,000000	0,000000
2,951905	-0,806032	20,970	-0,135920	0,000000	0,000000
2,957905	-0,872281	21,270	-0,135947	0,000000	0,000000
2,963921	-0,988831	21,573	-0,135993	0,000000	0,000000
2,969989	-1,046492	21,873	-0,136016	0,000000	0,000000
2,975936	-0,964294	22,174	-0,135983	0,000000	0,000000
2,982012	-1,171630	22,475	-0,136066	0,000000	0,000000
2,987939	-0,964294	22,775	-0,135983	0,000000	0,000000
2,993910	-0,839157	23,076	-0,135934	0,000000	0,000000
2,999984	-0,971655	23,376	-0,135986	0,000000	0,000000
3,005955	-1,071029	23,677	-0,136026	0,000000	0,000000
3,011995	-1,105380	23,977	-0,136040	0,000000	0,000000
3,017918	-1,105380	24,278	-0,136040	0,000000	0,000000
3,023883	-0,997419	24,578	-0,135997	0,000000	0,000000
3,029928	-1,180217	24,879	-0,136069	0,000000	0,000000
3,035916	-1,063668	25,180	-0,136023	0,000000	0,000000
3,041914	-1,071029	25,480	-0,136026	0,000000	0,000000
3,047922	-1,354428	25,781	-0,136139	0,000000	0,000000
3,053917	-1,304128	26,081	-0,136119	0,000000	0,000000
3,059957	-1,462390	26,383	-0,136182	0,000000	0,000000
3,065925	-1,370377	26,683	-0,136145	0,000000	0,000000
3,071945	-1,378965	26,983	-0,136148	0,000000	0,000000
3,077886	-1,387553	27,283	-0,136152	0,000000	0,000000
3,083909	-1,528639	27,584	-0,136208	0,000000	0,000000
3,089943	-1,620652	27,884	-0,136245	0,000000	0,000000
3,095970	-2,052499	28,184	-0,136417	0,000000	0,000000
3,101960	-1,993611	28,484	-0,136393	0,000000	0,000000
3,107882	-2,043911	28,785	-0,136413	0,000000	0,000000
3,113931	-67,024576	29,085	-0,162275	0,000000	0,000000
3,119943	-66,185419	29,386	-0,161941	0,000000	0,000000
3,125963	-65,254250	29,686	-0,161571	0,000000	0,000000
3,131925	-62,677891	29,987	-0,160545	0,000000	0,000000
3,137974	-60,858492	30,289	-0,159821	0,000000	0,000000
3,143951	-59,321265	30,593	-0,159209	0,000000	0,000000
3,149892	-57,209878	30,893	-0,158369	0,000000	0,000000
3,155923	-55,340177	31,195	-0,157625	0,000000	0,000000
3,161873	-53,030043	31,497	-0,156706	0,000000	0,000000
3,167879	-51,110042	31,800	-0,155941	0,000000	0,000000
3,173935	-48,707895	32,102	-0,154985	0,000000	0,000000
3,180000	-46,497134	32,402	-0,154105	0,000000	0,000000
3,185926	-42,966296	32,703	-0,152700	0,000000	0,000000
3,191898	-40,771484	33,004	-0,151827	0,000000	0,000000
3,197941	-38,386513	33,305	-0,150877	0,000000	0,000000
3,203896	-37,222244	33,606	-0,150414	0,000000	0,000000
3,209892	-33,599393	33,906	-0,148972	0,000000	0,000000
3,215904	-31,721106	34,206	-0,148225	0,000000	0,000000
3,221939	-29,435508	34,506	-0,147315	0,000000	0,000000
3,227937	-26,776951	34,807	-0,146257	0,000000	0,000000
3,233965	-24,366216	35,108	-0,145297	0,000000	0,000000
3,239892	-22,179992	35,410	-0,144427	0,000000	0,000000
3,245961	-18,797601	35,711	-0,143081	0,000000	0,000000
3,251960	-17,178176	36,011	-0,142437	0,000000	0,000000
3,257908	-14,701192	36,313	-0,141451	0,000000	0,000000
3,263913	-11,924859	36,613	-0,140346	0,000000	0,000000
3,269917	-8,060321	36,914	-0,138808	0,000000	0,000000
3,275912	-5,335515	37,215	-0,137723	0,000000	0,000000
3,281876	-3,539426	37,515	-0,137008	0,000000	0,000000
3,287887	-0,224511	37,815	-0,135689	0,000000	0,000000
3,293844	1,080844	38,116	-0,135169	0,000000	0,000000
3,300016	4,912257	38,418	-0,133645	0,000000	0,000000
3,305886	6,872743	38,719	-0,132864	0,000000	0,000000
3,311905	9,332551	39,021	-0,131885	0,000000	0,000000
3,317847	12,449945	39,322	-0,130645	0,000000	0,000000
3,323880	15,117089	39,622	-0,129583	0,000000	0,000000
3,329837	17,045678	39,922	-0,128815	0,000000	0,000000
3,335906	20,701653	40,224	-0,127360	0,000000	0,000000
3,341893	22,571353	40,525	-0,126616	0,000000	0,000000
3,347911	25,521897	40,827	-0,125442	0,000000	0,000000
3,353871	29,145974	41,128	-0,124000	0,000000	0,000000
3,359859	30,583827	41,429	-0,123427	0,000000	0,000000
3,365844	19,014751	41,729	-0,128032	0,000000	0,000000
3,371860	6,216385	42,031	-0,133125	0,000000	0,000000
3,377958	8,385433	42,332	-0,132262	0,000000	0,000000
3,383829	11,062392	42,633	-0,131197	0,000000	0,000000
3,389853	12,491658	42,933	-0,130628	0,000000	0,000000
3,395905	15,482687	43,233	-0,129438	0,000000	0,000000
3,401836	19,404886	43,534	-0,127876	0,000000	0,000000
3,407780	22,705078	43,835	-0,126563	0,000000	0,000000
3,413901	24,001845	44,135	-0,126047	0,000000	0,000000
3,419830	25,107226	44,437	-0,125607	0,000000	0,000000
3,425845	25,788120	44,737	-0,125336	0,000000	0,000000
3,431863	25,323149	45,037	-0,125521	0,000000	0,000000
3,437820	26,910676	45,338	-0,124889	0,000000	0,000000
3,443853	29,793744	45,639	-0,123742	0,000000	0,000000
3,449878	32,536952	45,939	-0,122650	0,000000	0,000000
3,455839	34,539151	46,242	-0,121853	0,000000	0,000000
3,461847	37,589068	46,542	-0,120639	0,000000	0,000000
3,467841	41,213146	46,843	-0,119197	0,000000	0,000000
3,473880	43,166271	47,143	-0,118419	0,000000	0,000000
3,479815	45,991677	47,444	-0,117295	0,000000	0,000000
3,485886	49,332355	47,744	-0,115965	0,000000	0,000000
3,491828	52,490234	48,044	-0,114708	0,000000	0,000000
3,497801	56,995181	48,345	-0,112916	0,000000	0,000000
3,503896	59,919961	48,647	-0,111751	0,000000	0,000000
3,509809	63,725610	48,950	-0,110237	0,000000	0,000000
3,515819	66,211183	49,251	-0,109248	0,000000	0,000000
3,521888	69,235337	49,553	-0,108044	0,000000	0,000000
3,527803	72,693791	49,854	-0,106667	0,000000	0,000000
3,533862	76,607402	50,156	-0,105110	0,000000	0,000000
3,539819	79,342023	50,457	-0,104021	0,000000	0,000000
3,545785	82,956285	50,758	-0,102583	0,000000	0,000000
3,551882	87,120171	51,058	-0,100926	0,000000	0,000000
3,557845	89,896504	51,358	-0,099821	0,000000	0,000000
3,563840	93,062971	51,658	-0,098561	0,000000	0,000000
3,569827	96,826908	51,959	-0,097062	0,000000	0,000000
3,575842	100,343024	52,259	-0,095663	0,000000	0,000000
3,581826	103,683702	52,559	-0,094333	0,000000	0,000000
3,587789	107,565415	52,859	-0,092789	0,000000	0,000000
3,593798	110,814080	53,161	-0,091496	0,000000	0,000000
3,599765	113,914298	53,463	-0,090262	0,000000	0,000000
3,605833	117,270925	53,764	-0,088926	0,000000	0,000000
3,611793	121,069213	54,064	-0,087414	0,000000	0,000000
3,617857	124,252856	54,365	-0,086147	0,000000	0,000000
3,623788	129,097637	54,665	-0,084219	0,000000	0,000000
3,629758	132,438315	54,965	-0,082889	0,000000	0,000000
3,635818	134,541114	55,265	-0,082052	0,000000	0,000000
3,641805	138,397063	55,565	-0,080518	0,000000	0,000000
3,647767	141,878828	55,867	-0,079132	0,000000	0,000000
3,653795	146,840158	56,169	-0,077157	0,000000	0,000000
3,659829	150,605322	56,470	-0,075659	0,000000	0,000000
3,665775	153,514153	56,772	-0,074501	0,000000	0,000000
3,671841	156,621732	57,072	-0,073264	0,000000	0,000000
3,677759	159,739125	57,372	-0,072023	0,000000	0,000000
3,683786	163,112928	57,673	-0,070681	0,000000	0,000000
3,689820	167,068251	57,975	-0,069106	0,000000	0,000000
3,695781	170,342680	58,276	-0,067803	0,000000	0,000000
3,701813	173,709122	58,576	-0,066463	0,000000	0,000000
3,707849	178,587027	58,876	-0,064522	0,000000	0,000000
3,713817	181,513034	59,176	-0,063357	0,000000	0,000000
3,719782	184,396102	59,477	-0,062210	0,000000	0,000000
3,725817	187,695067	59,779	-0,060897	0,000000	0,000000
3,731832	191,444282	60,082	-0,059405	0,000000	0,000000
3,737810	196,520935	60,383	-0,057384	0,000000	0,000000
3,743833	198,332973	60,683	-0,056663	0,000000	0,000000
3,749766	202,214687	60,983	-0,055118	0,000000	0,000000
3,755794	207,698649	61,283	-0,052936	0,000000	0,000000
3,761814	209,212567	61,583	-0,052333	0,000000	0,000000
3,767758	213,507724	61,883	-0,050624	0,000000	0,000000
3,773754	217,488811	62,183	-0,049039	0,000000	0,000000
3,779778	221,760659	62,483	-0,047339	0,000000	0,000000
3,785880	225,193350	62,785	-0,045973	0,000000	0,000000
3,791771	227,404110	63,086	-0,045093	0,000000	0,000000
3,797801	231,401146	63,386	-0,043502	0,000000	0,000000
3,803824	235,481607	63,686	-0,041878	0,000000	0,000000
3,809777	239,844241	63,986	-0,040142	0,000000	0,000000
3,815826	242,885570	64,287	-0,038931	0,000000	0,000000
3,821782	246,018913	64,587	-0,037684	0,000000	0,000000
3,827808	250,050300	64,889	-0,036080	0,000000	0,000000
3,833818	253,382390	65,189	-0,034753	0,000000	0,000000
3,839789	256,831030	65,490	-0,033381	0,000000	0,000000
3,845780	260,829293	65,791	-0,031790	0,000000	0,000000
3,851821	264,485268	66,091	-0,030334	0,000000	0,000000
3,857779	268,250432	66,392	-0,028836	0,000000	0,000000
3,863788	271,175212	66,693	-0,027672	0,000000	0,000000
3,869774	275,438472	66,993	-0,025975	0,000000	0,000000
3,875779	280,134805	67,294	-0,024106	0,000000	0,000000
3,881783	284,306052	67,595	-0,022446	0,000000	0,000000
3,887813	286,384314	67,895	-0,021619	0,000000	0,000000
3,893787	290,389938	68,195	-0,020024	0,000000	0,000000
3,899795	293,863114	68,496	-0,018642	0,000000	0,000000
3,905818	297,262681	68,797	-0,017289	0,000000	0,000000
3,911783	301,052381	69,099	-0,015781	0,000000	0,000000
3,917755	305,830912	69,400	-0,013879	0,000000	0,000000
3,923792	309,454990	69,700	-0,012437	0,000000	0,000000
3,929790	313,685125	70,000	-0,010753	0,000000	0,000000
3,935757	316,568193	70,303	-0,009605	0,000000	0,000000
3,941766	320,399605	70,603	-0,008081	0,000000	0,000000
3,947789	323,799172	70,904	-0,006728	0,000000	0,000000
3,953741	327,098137	71,204	-0,005415	0,000000	0,000000
3,959760	330,621614	71,504	-0,004012	0,000000	0,000000
3,965706	334,386778	71,805	-0,002514	0,000000	0,000000
3,971814	338,416938	72,106	-0,000910	0,000000	0,000000
3,977816	343,228594	72,406	0,001005	0,000000	0,000000
3,983760	345,447943	72,707	0,001889	0,000000	0,000000
3,989767	349,178755	73,008	0,003374	0,000000	0,000000
3,995773	352,669107	73,309	0,004763	0,000000	0,000000
4,001771	356,491932	73,610	0,006284	0,000000	0,000000
4,007796	361,644649	73,911	0,008335	0,000000	0,000000
4,013736	365,352151	74,212	0,009811	0,000000	0,000000
4,019727	368,692829	74,514	0,011140	0,000000	0,000000
4,025854	372,914377	74,814	0,012820	0,000000	0,000000
4,031782	374,841738	75,115	0,013587	0,000000	0,000000
4,037771	378,756576	75,416	0,015146	0,000000	0,000000
4,043768	380,709701	75,717	0,015923	0,000000	0,000000
4,049808	384,972961	76,018	0,017620	0,000000	0,000000
4,055787	388,954048	76,320	0,019204	0,000000	0,000000
4,061835	390,790623	76,621	0,019935	0,000000	0,000000
4,067760	394,637985	76,922	0,021466	0,000000	0,000000
4,073837	397,970075	77,223	0,022792	0,000000	0,000000
4,079769	402,939993	77,523	0,024771	0,000000	0,000000
4,085841	405,575239	77,824	0,025819	0,000000	0,000000
4,091804	408,999342	78,125	0,027182	0,000000	0,000000
4,097784	413,095752	78,425	0,028813	0,000000	0,000000
4,103750	417,825210	78,726	0,030695	0,000000	0,000000
4,109757	421,614910	79,027	0,032203	0,000000	0,000000
4,115758	425,396023	79,329	0,033708	0,000000	0,000000
4,121761	427,257135	79,631	0,034449	0,000000	0,000000
4,127788	431,030887	79,933	0,035951	0,000000	0,000000
4,133770	435,476945	80,233	0,037720	0,000000	0,000000
4,139802	438,692486	80,535	0,039000	0,000000	0,000000
4,145750	443,023222	80,836	0,040724	0,000000	0,000000
4,151753	446,238762	81,136	0,042003	0,000000	0,000000
4,157751	449,962213	81,438	0,043485	0,000000	0,000000
4,163707	453,069792	81,740	0,044722	0,000000	0,000000
4,169749	456,843544	82,041	0,046224	0,000000	0,000000
4,175777	462,045334	82,341	0,048294	0,000000	0,000000
4,181750	465,527098	82,641	0,049680	0,000000	0,000000
4,187778	467,788160	82,942	0,050580	0,000000	0,000000
4,193806	471,677234	83,242	0,052128	0,000000	0,000000
4,199763	476,772289	83,543	0,054156	0,000000	0,000000
4,205760	480,503101	83,843	0,055641	0,000000	0,000000
4,211731	484,060930	84,145	0,057057	0,000000	0,000000
4,217774	487,027422	84,445	0,058237	0,000000	0,000000
4,223744	491,340982	84,747	0,059954	0,000000	0,000000
4,229726	493,576280	85,049	0,060844	0,000000	0,000000
4,235746	497,473942	85,350	0,062395	0,000000	0,000000
4,241690	501,496742	85,651	0,063996	0,000000	0,000000
4,247799	504,844781	85,952	0,065329	0,000000	0,000000
4,253728	509,033203	86,254	0,066996	0,000000	0,000000
4,259717	512,640105	86,554	0,068431	0,000000	0,000000
4,265746	516,247007	86,855	0,069867	0,000000	0,000000
4,271757	519,770483	87,156	0,071269	0,000000	0,000000
4,277668	523,469398	87,458	0,072741	0,000000	0,000000
4,283702	527,225974	87,758	0,074236	0,000000	0,000000
4,289723	530,791163	88,059	0,075655	0,000000	0,000000
4,295750	534,829911	88,360	0,077263	0,000000	0,000000
4,301680	539,716404	88,661	0,079208	0,000000	0,000000
4,307760	543,871702	88,963	0,080861	0,000000	0,000000
4,313744	546,190425	89,264	0,081784	0,000000	0,000000
4,319686	549,697953	89,564	0,083180	0,000000	0,000000
4,325765	554,650695	89,864	0,085151	0,000000	0,000000
4,331683	558,431807	90,164	0,086656	0,000000	0,000000
4,337749	561,049878	90,464	0,087698	0,000000	0,000000
4,343656	565,072678	90,764	0,089299	0,000000	0,000000
4,349691	569,767784	91,066	0,091168	0,000000	0,000000
4,355695	572,352730	91,367	0,092197	0,000000	0,000000
4,361718	576,043057	91,669	0,093666	0,000000	0,000000
4,367703	579,923543	91,969	0,095210	0,000000	0,000000
4,373686	583,396720	92,270	0,096592	0,000000	0,000000
4,379769	587,419519	92,572	0,098193	0,000000	0,000000
4,385748	591,109846	92,872	0,099662	0,000000	0,000000
4,391747	594,492237	93,173	0,101008	0,000000	0,000000
4,397665	598,306474	93,473	0,102526	0,000000	0,000000
4,403711	603,259216	93,775	0,104498	0,000000	0,000000
4,409682	605,861338	94,076	0,105533	0,000000	0,000000
4,415715	609,808074	94,377	0,107104	0,000000	0,000000
4,421670	613,207640	94,679	0,108457	0,000000	0,000000
4,427717	616,880791	94,982	0,109919	0,000000	0,000000
4,433741	622,066632	95,283	0,111983	0,000000	0,000000
4,439728	626,039131	95,583	0,113564	0,000000	0,000000
4,445704	628,182416	95,884	0,114417	0,000000	0,000000
4,451740	632,812500	96,187	0,116260	0,000000	0,000000
4,457686	635,886954	96,487	0,117483	0,000000	0,000000
4,463665	639,485268	96,788	0,118916	0,000000	0,000000
4,469734	643,549780	97,088	0,120533	0,000000	0,000000
4,475709	647,172631	97,390	0,121975	0,000000	0,000000
4,481725	651,037168	97,690	0,123513	0,000000	0,000000
4,487689	656,115048	97,993	0,125534	0,000000	0,000000
4,493681	658,475483	98,293	0,126474	0,000000	0,000000
4,499643	662,232059	98,593	0,127969	0,000000	0,000000
4,505665	667,334475	98,894	0,130000	0,000000	0,000000
4,511713	671,406348	99,194	0,131620	0,000000	0,000000
4,517668	673,376649	99,494	0,132404	0,000000	0,000000
4,523645	677,323385	99,796	0,133975	0,000000	0,000000
4,529670	681,187922	100,098	0,135513	0,000000	0,000000
4,535705	686,282977	100,400	0,137541	0,000000	0,000000
4,541700	689,923004	100,700	0,138990	0,000000	0,000000
4,547621	693,455068	101,002	0,140396	0,000000	0,000000
4,553691	697,028845	101,304	0,141818	0,000000	0,000000
4,559633	700,343760	101,604	0,143137	0,000000	0,000000
4,565621	704,258598	101,905	0,144695	0,000000	0,000000
4,571637	707,931749	102,205	0,146157	0,000000	0,000000
4,577675	711,796286	102,506	0,147695	0,000000	0,000000
4,583695	715,203213	102,807	0,149051	0,000000	0,000000
4,589639	720,829489	103,109	0,151291	0,000000	0,000000
4,595637	723,139624	103,410	0,152210	0,000000	0,000000
4,601681	726,847126	103,711	0,153686	0,000000	0,000000
4,607647	732,332316	104,011	0,155869	0,000000	0,000000
4,613632	736,137965	104,311	0,157383	0,000000	0,000000
4,619691	738,498400	104,611	0,158323	0,000000	0,000000
4,625611	742,512612	104,913	0,159920	0,000000	0,000000
4,631642	747,689865	105,214	0,161981	0,000000	0,000000
4,637650	750,332473	105,515	0,163033	0,000000	0,000000
4,643636	755,269266	105,817	0,164998	0,000000	0,000000
4,649661	758,975542	106,118	0,166473	0,000000	0,000000
4,655680	762,084348	106,420	0,167710	0,000000	0,000000
4,661646	765,233639	106,720	0,168963	0,000000	0,000000
4,667657	769,371761	107,020	0,170610	0,000000	0,000000
4,673615	773,352848	107,321	0,172195	0,000000	0,000000
4,679644	777,192849	107,622	0,173723	0,000000	0,000000
4,685620	780,716326	107,923	0,175125	0,000000	0,000000
4,691613	784,330588	108,224	0,176564	0,000000	0,000000
4,697676	788,436813	108,525	0,178198	0,000000	0,000000
4,703682	792,217926	108,825	0,179703	0,000000	0,000000
4,709681	796,099639	109,125	0,181248	0,000000	0,000000
4,715623	800,005889	109,427	0,182803	0,000000	0,000000
4,721616	804,916919	109,728	0,184757	0,000000	0,000000
4,727647	807,434389	110,032	0,185759	0,000000	0,000000
4,733638	811,390939	110,334	0,187334	0,000000	0,000000
4,739650	816,119170	110,634	0,189216	0,000000	0,000000
4,745594	819,975120	110,934	0,190750	0,000000	0,000000
4,751610	823,781996	111,234	0,192266	0,000000	0,000000
4,757642	828,036668	111,534	0,193959	0,000000	0,000000
4,763598	830,895199	111,834	0,195097	0,000000	0,000000
4,769618	834,702075	112,135	0,196612	0,000000	0,000000
4,775563	838,699111	112,435	0,198203	0,000000	0,000000
4,781547	842,589412	112,737	0,199751	0,000000	0,000000
4,787640	846,469898	113,038	0,201295	0,000000	0,000000
4,793540	851,589490	113,340	0,203333	0,000000	0,000000
4,799622	853,965874	113,642	0,204279	0,000000	0,000000
4,805611	858,735818	113,942	0,206177	0,000000	0,000000
4,811578	861,395601	114,242	0,207236	0,000000	0,000000
4,817598	866,781417	114,543	0,209379	0,000000	0,000000
4,823595	869,215462	114,844	0,210348	0,000000	0,000000
4,829592	874,501904	115,144	0,212452	0,000000	0,000000
4,835521	878,291605	115,444	0,213960	0,000000	0,000000
4,841572	882,670187	115,745	0,215703	0,000000	0,000000
4,847574	884,748449	116,045	0,216530	0,000000	0,000000
4,853546	888,487849	116,345	0,218019	0,000000	0,000000
4,859621	893,882253	116,647	0,220166	0,000000	0,000000
4,865621	897,339481	116,948	0,221542	0,000000	0,000000
4,871541	900,065513	117,250	0,222626	0,000000	0,000000
4,877611	904,644070	117,550	0,224449	0,000000	0,000000
4,883530	908,865617	117,850	0,226129	0,000000	0,000000
4,889583	911,924123	118,151	0,227346	0,000000	0,000000
4,895621	916,112545	118,452	0,229013	0,000000	0,000000
4,901575	920,201594	118,752	0,230641	0,000000	0,000000
4,907586	923,907869	119,053	0,232116	0,000000	0,000000
4,913562	927,431346	119,353	0,233518	0,000000	0,000000
4,919530	931,828331	119,653	0,235268	0,000000	0,000000
4,925548	936,532025	119,954	0,237140	0,000000	0,000000
4,931578	938,742786	120,256	0,238020	0,000000	0,000000
4,937541	942,715285	120,556	0,239601	0,000000	0,000000
4,943624	946,554059	120,859	0,241129	0,000000	0,000000
4,949577	951,807377	121,160	0,243220	0,000000	0,000000
4,955561	955,588489	121,461	0,244725	0,000000	0,000000
4,961539	958,297346	121,761	0,245803	0,000000	0,000000
4,967509	962,985091	122,062	0,247668	0,000000	0,000000
4,973541	892,693448	122,364	0,219692	0,000000	0,000000
4,979558	892,627198	122,665	0,219666	0,000000	0,000000
4,985530	894,862496	122,966	0,220556	0,000000	0,000000
4,991550	896,491736	123,268	0,221204	0,000000	0,000000
4,997487	899,907251	123,569	0,222563	0,000000	0,000000
5,003468	903,164504	123,871	0,223860	0,000000	0,000000
5,009531	906,779994	124,172	0,225299	0,000000	0,000000
5,015496	910,336595	124,473	0,226714	0,000000	0,000000
5,021567	915,921159	124,773	0,228937	0,000000	0,000000
5,027571	917,974884	125,074	0,229754	0,000000	0,000000
5,033552	922,454067	125,374	0,231537	0,000000	0,000000
5,037530	926,343141	125,674	0,233085	0,000000	0,000000
5,037517	925,470860	125,975	0,232738	0,000000	0,000000
5,037520	924,747026	126,276	0,232450	0,000000	0,000000
5,037573	923,883333	126,578	0,232106	0,000000	0,000000
5,037509	923,817083	126,879	0,232080	0,000000	0,000000
5,037576	923,134962	127,179	0,231808	0,000000	0,000000
5,037533	922,720291	127,481	0,231643	0,000000	0,000000
5,037521	922,395179	127,781	0,231514	0,000000	0,000000
5,037597	921,655396	128,083	0,231219	0,000000	0,000000
5,037552	921,622272	128,383	0,231206	0,000000	0,000000
5,037480	921,032163	128,684	0,230971	0,000000	0,000000
5,037513	920,758578	128,984	0,230862	0,000000	0,000000
5,037531	920,325504	129,285	0,230690	0,000000	0,000000
5,037486	920,076457	129,585	0,230591	0,000000	0,000000
5,037534	919,985671	129,887	0,230555	0,000000	0,000000
5,037523	919,486348	130,189	0,230356	0,000000	0,000000
5,037524	919,104801	130,491	0,230204	0,000000	0,000000
5,037524	919,486348	130,791	0,230356	0,000000	0,000000
5,037480	918,572354	131,092	0,229992	0,000000	0,000000
5,037536	918,431268	131,392	0,229936	0,000000	0,000000
5,037490	918,232520	131,693	0,229857	0,000000	0,000000
5,037515	917,999421	131,994	0,229764	0,000000	0,000000
5,037555	918,131919	132,294	0,229817	0,000000	0,000000
5,037565	917,576162	132,594	0,229596	0,000000	0,000000
5,037490	917,167625	132,894	0,229433	0,000000	0,000000
5,037541	917,433849	133,195	0,229539	0,000000	0,000000
5,037554	916,918577	133,496	0,229334	0,000000	0,000000
5,037487	916,993414	133,797	0,229364	0,000000	0,000000
5,037536	917,052303	134,099	0,229387	0,000000	0,000000
5,037562	916,511267	134,401	0,229172	0,000000	0,000000
5,037452	916,178794	134,701	0,229040	0,000000	0,000000
5,037542	916,171433	135,001	0,229037	0,000000	0,000000
5,037501	915,830373	135,302	0,228901	0,000000	0,000000
5,037551	915,988635	135,605	0,228964	0,000000	0,000000
5,031554	912,040672	135,906	0,227393	0,000000	0,000000
5,025503	905,549476	136,206	0,224809	0,000000	0,000000
5,019484	899,948964	136,508	0,222580	0,000000	0,000000
5,013531	897,148094	136,811	0,221465	0,000000	0,000000
5,007620	891,887416	137,112	0,219372	0,000000	0,000000
5,001585	886,585025	137,412	0,217261	0,000000	0,000000
4,995514	881,416359	137,714	0,215204	0,000000	0,000000
4,989514	874,617227	138,014	0,212498	0,000000	0,000000
4,983518	869,988370	138,315	0,210656	0,000000	0,000000
4,977524	866,007283	138,615	0,209071	0,000000	0,000000
4,971534	860,473019	138,916	0,206869	0,000000	0,000000
4,965586	855,262641	139,216	0,204795	0,000000	0,000000
4,959485	851,140468	139,517	0,203154	0,000000	0,000000
4,953561	846,303048	139,817	0,201229	0,000000	0,000000
4,947526	840,086664	140,117	0,198755	0,000000	0,000000
4,941609	835,816043	140,418	0,197055	0,000000	0,000000
4,935502	831,369985	140,719	0,195286	0,000000	0,000000
4,929523	826,490853	141,020	0,193344	0,000000	0,000000
4,923586	821,612948	141,321	0,191402	0,000000	0,000000
4,917553	816,684742	141,624	0,189441	0,000000	0,000000
4,911561	811,490313	141,926	0,187374	0,000000	0,000000
4,905548	805,075181	142,229	0,184820	0,000000	0,000000
4,899510	801,999499	142,530	0,183596	0,000000	0,000000
4,893557	796,971920	142,830	0,181595	0,000000	0,000000
4,887604	790,564149	143,130	0,179045	0,000000	0,000000
4,881572	787,056621	143,432	0,177649	0,000000	0,000000
4,875580	780,965374	143,732	0,175225	0,000000	0,000000
4,869567	776,453066	144,034	0,173429	0,000000	0,000000
4,863582	771,425487	144,334	0,171428	0,000000	0,000000
4,857555	766,812579	144,635	0,169592	0,000000	0,000000
4,851577	762,582443	144,936	0,167908	0,000000	0,000000
4,845578	757,746251	145,237	0,165983	0,000000	0,000000
4,839566	752,642608	145,537	0,163952	0,000000	0,000000
4,833611	747,914377	145,837	0,162070	0,000000	0,000000
4,827591	743,151794	146,138	0,160175	0,000000	0,000000
4,821575	738,216228	146,440	0,158210	0,000000	0,000000
4,815612	732,099217	146,742	0,155776	0,000000	0,000000
4,809564	727,195548	147,043	0,153824	0,000000	0,000000
4,803614	722,293106	147,343	0,151873	0,000000	0,000000
4,797521	719,275086	147,643	0,150672	0,000000	0,000000
4,791548	714,381232	147,945	0,148724	0,000000	0,000000
4,785542	708,356234	148,245	0,146326	0,000000	0,000000
4,779579	703,120093	148,546	0,144242	0,000000	0,000000
4,773575	700,136424	148,846	0,143055	0,000000	0,000000
4,767648	695,516155	149,147	0,141216	0,000000	0,000000
4,761622	690,196588	149,447	0,139099	0,000000	0,000000
4,755527	685,243846	149,747	0,137127	0,000000	0,000000
4,749635	681,262759	150,048	0,135543	0,000000	0,000000
4,743570	676,468279	150,349	0,133635	0,000000	0,000000
4,737580	671,398987	150,650	0,131617	0,000000	0,000000
4,731577	666,121133	150,950	0,129517	0,000000	0,000000
4,725589	661,351190	151,251	0,127618	0,000000	0,000000
4,719612	657,495240	151,552	0,126083	0,000000	0,000000
4,713597	651,270267	151,852	0,123606	0,000000	0,000000
4,707627	648,112388	152,153	0,122349	0,000000	0,000000
4,701675	643,798828	152,455	0,120632	0,000000	0,000000
4,695662	639,169971	152,755	0,118790	0,000000	0,000000
4,689647	632,687363	153,057	0,116210	0,000000	0,000000
4,683660	627,842582	153,357	0,114282	0,000000	0,000000
4,677605	624,808613	153,659	0,113074	0,000000	0,000000
4,671592	620,329430	153,960	0,111292	0,000000	0,000000
4,665660	615,700573	154,260	0,109449	0,000000	0,000000
4,659652	610,514732	154,561	0,107385	0,000000	0,000000
4,653600	604,630820	154,862	0,105043	0,000000	0,000000
4,647611	599,951663	155,163	0,103181	0,000000	0,000000
4,641640	597,159381	155,464	0,102070	0,000000	0,000000
4,635623	591,890115	155,765	0,099973	0,000000	0,000000
4,629684	588,359277	156,065	0,098567	0,000000	0,000000
4,623658	582,000579	156,366	0,096037	0,000000	0,000000
4,617677	578,245230	156,668	0,094542	0,000000	0,000000
4,611686	572,460692	156,969	0,092240	0,000000	0,000000
4,605633	569,675771	157,269	0,091131	0,000000	0,000000
4,599585	563,750147	157,569	0,088773	0,000000	0,000000
4,593630	560,950504	157,870	0,087659	0,000000	0,000000
4,587626	556,321647	158,170	0,085816	0,000000	0,000000
4,581666	551,451103	158,471	0,083878	0,000000	0,000000
4,575695	545,633441	158,772	0,081562	0,000000	0,000000
4,569679	540,780072	159,075	0,079631	0,000000	0,000000
4,563661	536,624774	159,377	0,077977	0,000000	0,000000
4,557707	531,903904	159,678	0,076098	0,000000	0,000000
4,551649	527,765782	159,979	0,074451	0,000000	0,000000
4,545674	523,502522	160,281	0,072754	0,000000	0,000000
4,539656	519,904209	160,583	0,071322	0,000000	0,000000
4,533690	515,590649	160,885	0,069605	0,000000	0,000000
4,527704	511,261140	161,185	0,067882	0,000000	0,000000
4,521637	506,474020	161,486	0,065977	0,000000	0,000000
4,515660	502,036550	161,786	0,064211	0,000000	0,000000
4,509636	497,623616	162,086	0,062455	0,000000	0,000000
4,503686	492,129839	162,386	0,060268	0,000000	0,000000
4,497690	487,850630	162,687	0,058565	0,000000	0,000000
4,491663	484,733236	162,987	0,057324	0,000000	0,000000
4,485699	480,611063	163,287	0,055684	0,000000	0,000000
4,479693	474,303893	163,589	0,053173	0,000000	0,000000
4,473670	470,148595	163,891	0,051520	0,000000	0,000000
4,467713	467,189463	164,192	0,050342	0,000000	0,000000
4,461712	460,690906	164,492	0,047755	0,000000	0,000000
4,455687	457,075416	164,793	0,046316	0,000000	0,000000
4,449644	452,763083	165,095	0,044600	0,000000	0,000000
4,443699	448,358737	165,396	0,042847	0,000000	0,000000
4,437641	445,565228	165,697	0,041735	0,000000	0,000000
4,431740	440,811234	165,998	0,039843	0,000000	0,000000
4,425660	436,058466	166,298	0,037952	0,000000	0,000000
4,419708	430,956050	166,600	0,035921	0,000000	0,000000
4,413722	428,021455	166,900	0,034753	0,000000	0,000000
4,407695	423,434310	167,201	0,032927	0,000000	0,000000
4,401683	418,838578	167,501	0,031098	0,000000	0,000000
4,395704	413,262602	167,802	0,028879	0,000000	0,000000
4,389658	410,703419	168,102	0,027860	0,000000	0,000000
4,383722	406,240185	168,402	0,026084	0,000000	0,000000
4,377708	401,876325	168,702	0,024347	0,000000	0,000000
4,371689	397,322305	169,002	0,022535	0,000000	0,000000
4,365763	392,867659	169,303	0,020762	0,000000	0,000000
4,359688	388,172552	169,603	0,018893	0,000000	0,000000
4,353723	384,250353	169,903	0,017332	0,000000	0,000000
4,347748	379,753995	170,203	0,015542	0,000000	0,000000
4,341704	375,790083	170,504	0,013965	0,000000	0,000000
4,335723	369,598235	170,805	0,011500	0,000000	0,000000
4,329699	366,913915	171,105	0,010432	0,000000	0,000000
4,323739	361,038591	171,406	0,008094	0,000000	0,000000
4,317757	356,940955	171,707	0,006463	0,000000	0,000000
4,311760	353,367178	172,008	0,005041	0,000000	0,000000
4,305692	350,085388	172,309	0,003734	0,000000	0,000000
4,299724	345,747291	172,609	0,002008	0,000000	0,000000
4,293703	341,583405	172,910	0,000351	0,000000	0,000000
4,287739	335,765743	173,211	-0,001965	0,000000	0,000000
4,281719	332,350228	173,512	-0,003324	0,000000	0,000000
4,275756	328,161805	173,813	-0,004991	0,000000	0,000000
4,269700	324,056807	174,113	-0,006625	0,000000	0,000000
4,263725	321,172513	174,415	-0,007773	0,000000	0,000000
4,257734	316,510531	174,715	-0,009628	0,000000	0,000000
4,251745	311,963872	175,015	-0,011438	0,000000	0,000000
4,245734	308,473520	175,315	-0,012827	0,000000	0,000000
4,239769	304,751296	175,615	-0,014309	0,000000	0,000000
4,233729	300,470860	175,916	-0,016012	0,000000	0,000000
4,227769	296,408802	176,216	-0,017629	0,000000	0,000000
4,221766	292,466974	176,516	-0,019198	0,000000	0,000000
4,215775	287,406270	176,816	-0,021212	0,000000	0,000000
4,209719	284,356352	177,118	-0,022426	0,000000	0,000000
4,203797	280,408390	177,420	-0,023997	0,000000	0,000000
4,197741	276,004044	177,720	-0,025750	0,000000	0,000000
4,191710	272,846164	178,022	-0,027007	0,000000	0,000000
4,185769	267,136464	178,323	-0,029279	0,000000	0,000000
4,179712	263,621575	178,624	-0,030678	0,000000	0,000000
4,173767	260,704156	178,925	-0,031839	0,000000	0,000000
4,167843	255,551439	179,225	-0,033890	0,000000	0,000000
4,161814	252,959132	179,526	-0,034922	0,000000	0,000000
4,155734	247,308319	179,826	-0,037171	0,000000	0,000000
4,149791	243,243807	180,126	-0,038789	0,000000	0,000000
4,143723	241,306631	180,427	-0,039560	0,000000	0,000000
4,137771	235,281633	180,727	-0,041958	0,000000	0,000000
4,131793	232,929786	181,027	-0,042894	0,000000	0,000000
4,125811	228,102181	181,327	-0,044815	0,000000	0,000000
4,119784	223,879407	181,628	-0,046496	0,000000	0,000000
4,113723	221,752071	181,929	-0,047342	0,000000	0,000000
4,107750	217,439738	182,230	-0,049059	0,000000	0,000000
4,101777	213,998459	182,531	-0,050428	0,000000	0,000000
4,095786	210,117973	182,832	-0,051973	0,000000	0,000000
4,089740	204,789818	183,133	-0,054093	0,000000	0,000000
4,083755	202,188923	183,433	-0,055128	0,000000	0,000000
4,077751	198,399223	183,733	-0,056637	0,000000	0,000000
4,071778	194,884334	184,033	-0,058036	0,000000	0,000000
4,065734	190,978084	184,333	-0,059590	0,000000	0,000000
4,059816	186,049878	184,633	-0,061552	0,000000	0,000000
4,053769	182,442977	184,933	-0,062987	0,000000	0,000000
4,047805	178,587027	185,235	-0,064522	0,000000	0,000000
4,041770	176,867001	185,537	-0,065207	0,000000	0,000000
4,035816	171,331511	185,838	-0,067410	0,000000	0,000000
4,029764	167,799446	186,139	-0,068815	0,000000	0,000000
4,023766	166,021759	186,441	-0,069523	0,000000	0,000000
4,017714	162,355969	186,742	-0,070982	0,000000	0,000000
4,011767	157,876786	187,042	-0,072765	0,000000	0,000000
4,005790	153,505565	187,344	-0,074504	0,000000	0,000000
3,999781	150,389398	187,644	-0,075745	0,000000	0,000000
3,993796	146,914995	187,945	-0,077127	0,000000	0,000000
3,987835	144,115352	188,246	-0,078242	0,000000	0,000000
3,981756	140,640949	188,546	-0,079625	0,000000	0,000000
3,975789	137,150597	188,848	-0,081014	0,000000	0,000000
3,969769	133,759618	189,149	-0,082363	0,000000	0,000000
3,963818	130,867963	189,450	-0,083514	0,000000	0,000000
3,957806	127,676959	189,751	-0,084784	0,000000	0,000000
3,951821	124,169431	190,051	-0,086180	0,000000	0,000000
3,945776	121,709622	190,354	-0,087159	0,000000	0,000000
3,939782	118,492855	190,654	-0,088439	0,000000	0,000000
3,933818	115,227014	190,954	-0,089739	0,000000	0,000000
3,927848	111,379652	191,256	-0,091271	0,000000	0,000000
3,921781	109,468240	191,558	-0,092031	0,000000	0,000000
3,915836	108,561607	191,858	-0,092392	0,000000	0,000000
3,909849	106,484571	192,159	-0,093219	0,000000	0,000000
3,903806	105,528865	192,460	-0,093599	0,000000	0,000000
3,897731	103,334053	192,761	-0,094473	0,000000	0,000000
3,891810	102,710820	193,062	-0,094721	0,000000	0,000000
3,885851	102,769708	193,362	-0,094697	0,000000	0,000000
3,879767	104,306935	193,663	-0,094085	0,000000	0,000000
3,873808	109,060930	193,963	-0,092193	0,000000	0,000000
3,867785	119,025302	194,263	-0,088228	0,000000	0,000000
3,861859	214,123596	194,563	-0,050378	0,000000	0,000000
3,855825	216,026421	194,864	-0,049621	0,000000	0,000000
3,849829	214,846204	195,164	-0,050091	0,000000	0,000000
3,843870	212,859954	195,464	-0,050881	0,000000	0,000000
3,837809	210,549819	195,764	-0,051801	0,000000	0,000000
3,831827	207,632400	196,064	-0,052962	0,000000	0,000000
3,825846	205,040093	196,368	-0,053994	0,000000	0,000000
3,819805	200,585447	196,668	-0,055767	0,000000	0,000000
3,813786	197,401804	196,968	-0,057034	0,000000	0,000000
3,807840	194,194851	197,270	-0,058310	0,000000	0,000000
3,801821	192,847784	197,571	-0,058846	0,000000	0,000000
3,795813	188,119553	197,872	-0,060728	0,000000	0,000000
3,789835	184,554364	198,173	-0,062147	0,000000	0,000000
3,783809	182,127679	198,473	-0,063113	0,000000	0,000000
3,777801	178,104880	198,773	-0,064714	0,000000	0,000000
3,771810	174,938413	199,074	-0,065974	0,000000	0,000000
3,765804	172,245505	199,375	-0,067046	0,000000	0,000000
3,759823	168,996840	199,677	-0,068339	0,000000	0,000000
3,753869	164,658743	199,977	-0,070065	0,000000	0,000000
3,747860	162,098333	200,277	-0,071084	0,000000	0,000000
3,741773	158,301272	200,579	-0,072596	0,000000	0,000000
3,735815	154,943418	200,882	-0,073932	0,000000	0,000000
3,729808	151,461654	201,182	-0,075318	0,000000	0,000000
3,723812	146,699072	201,483	-0,077213	0,000000	0,000000
3,717802	144,637985	201,783	-0,078034	0,000000	0,000000
3,711846	139,701192	202,084	-0,079999	0,000000	0,000000
3,705843	137,357932	202,384	-0,080931	0,000000	0,000000
3,699806	133,917880	202,687	-0,082300	0,000000	0,000000
3,693801	129,022800	202,989	-0,084249	0,000000	0,000000
3,687816	127,053726	203,290	-0,085032	0,000000	0,000000
3,681797	123,711821	203,591	-0,086362	0,000000	0,000000
3,675822	120,104919	203,893	-0,087798	0,000000	0,000000
3,669863	116,390056	204,193	-0,089276	0,000000	0,000000
3,663868	112,434732	204,494	-0,090851	0,000000	0,000000
3,657811	109,043754	204,795	-0,092200	0,000000	0,000000
3,651788	105,985249	205,095	-0,093417	0,000000	0,000000
3,645833	102,461772	205,396	-0,094820	0,000000	0,000000
3,639841	98,946883	205,696	-0,096219	0,000000	0,000000
3,633863	95,564492	205,998	-0,097565	0,000000	0,000000
3,627793	90,777373	206,299	-0,099470	0,000000	0,000000
3,621904	88,791124	206,600	-0,100261	0,000000	0,000000
3,615772	85,283596	206,901	-0,101657	0,000000	0,000000
3,609815	81,560144	207,201	-0,103139	0,000000	0,000000
3,603805	78,428029	207,502	-0,104385	0,000000	0,000000
3,597834	73,458111	207,802	-0,106363	0,000000	0,000000
3,591821	70,225395	208,103	-0,107650	0,000000	0,000000
3,585838	68,455068	208,403	-0,108354	0,000000	0,000000
3,579803	63,202978	208,703	-0,110445	0,000000	0,000000
3,573866	60,285559	209,004	-0,111606	0,000000	0,000000
3,567845	58,125098	209,305	-0,112466	0,000000	0,000000
3,561857	55,348765	209,607	-0,113571	0,000000	0,000000
3,555826	51,543116	209,909	-0,115085	0,000000	0,000000
3,549869	49,116432	210,210	-0,116051	0,000000	0,000000
3,543820	45,318143	210,511	-0,117563	0,000000	0,000000
3,537833	41,337056	210,811	-0,119147	0,000000	0,000000
3,531835	39,625618	211,112	-0,119829	0,000000	0,000000
3,525843	35,977004	211,413	-0,121281	0,000000	0,000000
3,519882	32,361515	211,713	-0,122720	0,000000	0,000000
3,513807	28,855214	212,014	-0,124115	0,000000	0,000000
3,507896	25,812657	212,314	-0,125326	0,000000	0,000000
3,501858	21,267225	212,618	-0,127135	0,000000	0,000000
3,495889	17,527825	212,920	-0,128624	0,000000	0,000000
3,489862	14,436195	213,220	-0,129854	0,000000	0,000000
3,483833	11,245191	213,520	-0,131124	0,000000	0,000000
3,477839	7,645650	213,821	-0,132557	0,000000	0,000000
3,471861	5,725650	214,121	-0,133321	0,000000	0,000000
3,465952	1,155681	214,421	-0,135140	0,000000	0,000000
3,459882	-2,334671	214,721	-0,136529	0,000000	0,000000
3,453892	-4,719643	215,022	-0,137478	0,000000	0,000000
3,447881	-9,092091	215,322	-0,139218	0,000000	0,000000
3,441870	-12,706354	215,625	-0,140657	0,000000	0,000000
3,435798	-15,881409	215,925	-0,141920	0,000000	0,000000
3,429879	-18,059045	216,225	-0,142787	0,000000	0,000000
3,423949	-22,330893	216,526	-0,144487	0,000000	0,000000
3,417870	-26,319341	216,827	-0,146075	0,000000	0,000000
3,411848	-28,222166	217,127	-0,146832	0,000000	0,000000
3,405863	-31,505182	217,427	-0,148139	0,000000	0,000000
3,399911	-34,970998	217,728	-0,149518	0,000000	0,000000
3,393861	-39,217082	218,030	-0,151208	0,000000	0,000000
3,387879	-41,460967	218,330	-0,152101	0,000000	0,000000
3,381861	-44,876482	218,631	-0,153460	0,000000	0,000000
3,375867	-49,298004	218,933	-0,155220	0,000000	0,000000
3,369906	-52,922081	219,233	-0,156663	0,000000	0,000000
3,363877	-54,426184	219,534	-0,157261	0,000000	0,000000
3,357893	-59,270964	219,836	-0,159189	0,000000	0,000000
3,351842	-62,354006	220,137	-0,160417	0,000000	0,000000
3,345877	-65,619847	220,439	-0,161716	0,000000	0,000000
3,339919	-67,680934	220,740	-0,162537	0,000000	0,000000
3,333905	-71,479222	221,041	-0,164048	0,000000	0,000000
3,327868	-74,711939	221,343	-0,165335	0,000000	0,000000
3,321898	-78,343377	221,643	-0,166780	0,000000	0,000000
3,315899	-80,695224	221,943	-0,167716	0,000000	0,000000
3,309955	-84,136503	222,243	-0,169086	0,000000	0,000000
3,303925	-87,202369	222,544	-0,170306	0,000000	0,000000
3,297880	-90,718485	222,844	-0,171706	0,000000	0,000000
3,291861	-94,092288	223,145	-0,173048	0,000000	0,000000
3,285850	-96,477259	223,445	-0,173998	0,000000	0,000000
3,279880	-99,419215	223,747	-0,175168	0,000000	0,000000
3,273906	-103,616226	224,047	-0,176839	0,000000	0,000000
3,267874	-105,436852	224,349	-0,177563	0,000000	0,000000
3,261898	-108,220546	224,650	-0,178671	0,000000	0,000000
3,255914	-111,702310	224,951	-0,180057	0,000000	0,000000
3,249923	-114,403806	225,252	-0,181132	0,000000	0,000000
3,243886	-118,235219	225,552	-0,182657	0,000000	0,000000
3,237861	-120,030082	225,852	-0,183372	0,000000	0,000000
3,231897	-121,866658	226,152	-0,184103	0,000000	0,000000
3,225949	-125,165623	226,452	-0,185416	0,000000	0,000000
3,219934	-127,184997	226,752	-0,186219	0,000000	0,000000
3,213919	-128,855950	227,053	-0,186884	0,000000	0,000000
3,207851	-129,961330	227,353	-0,187324	0,000000	0,000000
3,201949	-131,996653	227,654	-0,188134	0,000000	0,000000
3,195899	-134,490813	227,955	-0,189127	0,000000	0,000000
3,189985	-134,964373	228,256	-0,189315	0,000000	0,000000
3,183940	-136,983747	228,557	-0,190119	0,000000	0,000000
3,177935	-137,565268	228,858	-0,190351	0,000000	0,000000
3,171945	-139,144207	229,160	-0,190979	0,000000	0,000000
3,165899	-140,615185	229,460	-0,191564	0,000000	0,000000
3,159913	-144,246624	229,761	-0,193010	0,000000	0,000000
3,153909	-146,648771	230,061	-0,193966	0,000000	0,000000
3,147986	-147,945538	230,362	-0,194482	0,000000	0,000000
3,141916	-150,570970	230,663	-0,195527	0,000000	0,000000
3,135976	-153,604939	230,964	-0,196734	0,000000	0,000000
3,129943	-156,081923	231,264	-0,197720	0,000000	0,000000
3,123867	-160,202870	231,565	-0,199360	0,000000	0,000000
3,117944	-162,596429	231,866	-0,200313	0,000000	0,000000
3,111983	-165,513849	232,167	-0,201474	0,000000	0,000000
3,105927	-167,982245	232,467	-0,202457	0,000000	0,000000
3,099854	-170,832188	232,768	-0,203591	0,000000	0,000000
3,093899	-173,009825	233,069	-0,204458	0,000000	0,000000
3,087955	-175,312598	233,370	-0,205374	0,000000	0,000000
3,081909	-179,209033	233,670	-0,206925	0,000000	0,000000
3,075927	-181,960830	233,971	-0,208020	0,000000	0,000000
3,069912	-185,101533	234,271	-0,209270	0,000000	0,000000
3,063922	-186,497674	234,571	-0,209826	0,000000	0,000000
3,057922	-190,346263	234,871	-0,211357	0,000000	0,000000
3,051936	-192,888269	235,171	-0,212369	0,000000	0,000000
3,045879	-194,767784	235,472	-0,213117	0,000000	0,000000
3,039869	-197,376040	235,773	-0,214155	0,000000	0,000000
3,033941	-199,927862	236,073	-0,215171	0,000000	0,000000
3,027861	-202,488271	236,374	-0,216190	0,000000	0,000000
3,021912	-205,089167	236,674	-0,217225	0,000000	0,000000
3,015934	-208,196745	236,974	-0,218462	0,000000	0,000000
3,009949	-209,909410	237,274	-0,219144	0,000000	0,000000
3,003923	-212,975277	237,574	-0,220364	0,000000	0,000000
2,997945	-215,020415	237,874	-0,221178	0,000000	0,000000
2,991889	-217,405386	238,174	-0,222127	0,000000	0,000000
2,985936	-220,197668	238,474	-0,223238	0,000000	0,000000
2,979922	-221,402422	238,774	-0,223718	0,000000	0,000000
2,973926	-223,081963	239,074	-0,224386	0,000000	0,000000
2,967966	-224,702615	239,374	-0,225031	0,000000	0,000000
2,961980	-225,649733	239,675	-0,225408	0,000000	0,000000
2,955952	-223,438972	239,976	-0,224528	0,000000	0,000000
2,949924	-169,336674	240,277	-0,202996	0,000000	0,000000
2,943946	-161,499637	240,577	-0,199876	0,000000	0,000000
2,937984	-159,687598	240,878	-0,199155	0,000000	0,000000
2,932003	-158,757655	241,178	-0,198785	0,000000	0,000000
2,925954	-158,209259	241,478	-0,198567	0,000000	0,000000
2,919975	-158,823905	241,779	-0,198812	0,000000	0,000000
2,914016	-158,790780	242,080	-0,198798	0,000000	0,000000
2,907955	-159,704774	242,381	-0,199162	0,000000	0,000000
2,901942	-160,536570	242,681	-0,199493	0,000000	0,000000
2,895994	-161,666487	242,982	-0,199943	0,000000	0,000000
2,889929	-162,230832	243,282	-0,200167	0,000000	0,000000
2,883927	-162,563305	243,583	-0,200300	0,000000	0,000000
2,877899	-163,826947	243,885	-0,200803	0,000000	0,000000
2,871973	-164,758117	244,186	-0,201173	0,000000	0,000000
2,866054	-163,269963	244,487	-0,200581	0,000000	0,000000
2,859969	-163,285912	244,787	-0,200587	0,000000	0,000000
2,854001	-163,752110	245,088	-0,200773	0,000000	0,000000
2,847935	-163,003739	245,388	-0,200475	0,000000	0,000000
2,842016	-161,083739	245,688	-0,199711	0,000000	0,000000
2,836025	-158,766243	245,991	-0,198789	0,000000	0,000000
2,829935	-149,233717	246,292	-0,194995	0,000000	0,000000
2,823974	-126,836575	246,592	-0,186081	0,000000	0,000000
2,817967	-0,764320	246,893	-0,135904	0,000000	0,000000
2,812045	-0,489508	247,195	-0,135794	0,000000	0,000000
2,806060	-0,506684	247,496	-0,135801	0,000000	0,000000
2,799926	-0,556984	247,796	-0,135821	0,000000	0,000000
2,793984	-0,440435	248,097	-0,135775	0,000000	0,000000
2,788036	-0,365598	248,398	-0,135745	0,000000	0,000000
2,781989	-0,266224	248,699	-0,135706	0,000000	0,000000
2,776019	-0,473559	248,999	-0,135788	0,000000	0,000000
2,769969	-0,282173	249,300	-0,135712	0,000000	0,000000
2,763975	-0,306709	249,601	-0,135722	0,000000	0,000000
2,757995	-0,348422	249,901	-0,135738	0,000000	0,000000
2,752029	-0,473559	250,202	-0,135788	0,000000	0,000000
2,746026	-0,381546	250,503	-0,135751	0,000000	0,000000
2,739976	-0,299348	250,803	-0,135719	0,000000	0,000000
2,733987	-0,456383	251,103	-0,135781	0,000000	0,000000
2,727993	-0,141086	251,403	-0,135656	0,000000	0,000000
2,721999	-0,473559	251,703	-0,135788	0,000000	0,000000
2,715960	-0,224511	252,003	-0,135689	0,000000	0,000000
2,709957	-0,224511	252,304	-0,135689	0,000000	0,000000
2,703968	-0,323885	252,605	-0,135729	0,000000	0,000000
2,698010	-0,372959	252,907	-0,135748	0,000000	0,000000
2,692005	-0,141086	253,207	-0,135656	0,000000	0,000000
2,685978	-0,182799	253,510	-0,135672	0,000000	0,000000
2,679998	-0,174211	253,811	-0,135669	0,000000	0,000000
2,674010	-0,299348	254,113	-0,135719	0,000000	0,000000
2,667999	-0,257636	254,414	-0,135702	0,000000	0,000000
2,662008	-0,357010	254,715	-0,135742	0,000000	0,000000
2,655958	-0,231872	255,017	-0,135692	0,000000	0,000000
2,649978	-0,365598	255,319	-0,135745	0,000000	0,000000
2,643948	-0,182799	255,621	-0,135672	0,000000	0,000000
2,638052	-0,116550	255,922	-0,135646	0,000000	0,000000
2,632046	0,125137	256,223	-0,135550	0,000000	0,000000
2,625966	-0,049073	256,524	-0,135619	0,000000	0,000000
2,619988	-0,049073	256,824	-0,135619	0,000000	0,000000
2,614035	-0,007361	257,125	-0,135603	0,000000	0,000000
2,607982	-0,099374	257,426	-0,135639	0,000000	0,000000
2,601984	-0,099374	257,726	-0,135639	0,000000	0,000000
2,595997	-0,099374	258,027	-0,135639	0,000000	0,000000
2,589976	-0,231872	258,328	-0,135692	0,000000	0,000000
2,584002	-0,015949	258,628	-0,135606	0,000000	0,000000
2,577906	-0,290760	258,929	-0,135715	0,000000	0,000000
2,572008	-0,190160	259,231	-0,135675	0,000000	0,000000
2,566023	-0,015949	259,531	-0,135606	0,000000	0,000000
2,559997	-0,049073	259,831	-0,135619	0,000000	0,000000
2,553989	0,107962	260,132	-0,135557	0,000000	0,000000
2,548012	-0,107962	260,434	-0,135643	0,000000	0,000000
2,541993	0,025764	260,734	-0,135589	0,000000	0,000000
2,537977	0,058888	260,934	-0,135576	0,000000	0,000000