File: Nanoindentation Datenauswertung/data/PDMS/EM-PDMS-50-10-50-1um-5
Quasi static measurement routine
Tip parameters (shape,radius, material...)
24.08.2022

Piezo position[nm]	MEMS displ.[nm]	Time[ms]	Cap [pf]	Temp [°C]	Rh [%]
eoh
2,551814	0,149674	0,243	-0,135781	22,700000	51,965000
2,555773	0,057661	0,443	-0,135818	22,700000	51,965000
2,559856	0,082198	0,643	-0,135808	22,700000	51,965000
2,563829	0,158262	0,843	-0,135778	22,700000	51,965000
2,567769	0,040486	1,044	-0,135825	22,700000	51,965000
2,571760	0,116550	1,244	-0,135794	22,700000	51,965000
2,575815	0,282173	1,444	-0,135729	22,700000	51,965000
2,579818	0,165623	1,644	-0,135775	22,700000	51,965000
2,583833	0,049073	1,844	-0,135821	22,700000	51,965000
2,587791	0,141086	2,044	-0,135785	22,700000	51,965000
2,591783	0,082198	2,246	-0,135808	22,700000	51,965000
2,595809	0,066249	2,447	-0,135814	22,700000	51,950000
2,599837	0,306709	2,648	-0,135719	22,700000	51,950000
2,603779	0,182799	2,849	-0,135768	22,700000	51,950000
2,607801	0,141086	3,051	-0,135785	22,700000	51,950000
2,611834	-0,008588	3,251	-0,135844	22,700000	51,950000
2,615833	0,191387	3,451	-0,135765	22,700000	51,950000
2,619812	-0,141086	3,651	-0,135897	22,700000	51,950000
2,623849	0,290760	3,851	-0,135725	22,700000	51,950000
2,627818	0,182799	4,052	-0,135768	22,700000	51,950000
2,631811	0,057661	4,252	-0,135818	22,700000	51,950000
2,635817	0,074837	4,452	-0,135811	22,700000	51,925000
2,639832	0,015949	4,653	-0,135834	22,700000	51,925000
2,643787	0,149674	4,853	-0,135781	22,700000	51,925000
2,647778	0,132498	5,053	-0,135788	22,700000	51,925000
2,651818	0,066249	5,255	-0,135814	22,700000	51,925000
2,655837	0,040486	5,457	-0,135825	22,700000	51,925000
2,659841	0,116550	5,659	-0,135794	22,700000	51,925000
2,663779	-0,017176	5,860	-0,135848	22,700000	51,925000
2,667802	0,074837	6,061	-0,135811	22,700000	51,925000
2,671769	0,024537	6,262	-0,135831	22,700000	51,925000
2,675832	-0,033125	6,462	-0,135854	22,700000	51,925000
2,679788	0,374185	6,663	-0,135692	22,700000	51,925000
2,683827	0,123911	6,864	-0,135792	22,700000	51,925000
2,687812	-0,024537	7,065	-0,135851	22,700000	51,925000
2,691752	0,066249	7,265	-0,135814	22,700000	51,925000
2,695775	0,057661	7,465	-0,135818	22,700000	51,925000
2,699802	-0,050300	7,666	-0,135861	22,700000	51,925000
2,703865	0,107962	7,867	-0,135798	22,700000	51,925000
2,707793	0,049073	8,067	-0,135821	22,700000	51,925000
2,711796	-0,125137	8,267	-0,135891	22,700000	51,925000
2,715808	-0,199974	8,468	-0,135920	22,690000	51,965000
2,719832	-0,083425	8,736	-0,135874	22,690000	51,965000
2,723815	-0,107962	8,936	-0,135884	22,690000	51,965000
2,727764	-0,083425	9,139	-0,135874	22,690000	51,965000
2,731773	-0,141086	9,341	-0,135897	22,690000	51,965000
2,735765	-0,083425	9,541	-0,135874	22,690000	51,965000
2,739810	-0,041712	9,742	-0,135857	22,690000	51,965000
2,743784	-0,107962	9,943	-0,135884	22,690000	51,965000
2,747771	-0,116550	10,143	-0,135887	22,690000	51,965000
2,751786	-0,407310	10,343	-0,136003	22,700000	51,925000
2,755815	-0,133725	10,543	-0,135894	22,700000	51,925000
2,759831	-0,107962	10,743	-0,135884	22,700000	51,925000
2,763821	-0,241687	10,944	-0,135937	22,700000	51,925000
2,767816	-0,290760	11,145	-0,135957	22,700000	51,925000
2,771808	-0,249048	11,346	-0,135940	22,700000	51,925000
2,775772	-0,041712	11,546	-0,135857	22,700000	51,925000
2,779810	-0,125137	11,746	-0,135891	22,700000	51,925000
2,783835	-0,024537	11,946	-0,135851	22,700000	51,925000
2,787767	0,066249	12,147	-0,135814	22,700000	51,925000
2,791755	-0,066249	12,347	-0,135867	22,700000	51,925000
2,795745	-0,391361	12,549	-0,135997	22,700000	51,925000
2,799835	-0,283399	12,749	-0,135954	22,700000	51,925000
2,803798	-0,215923	12,949	-0,135927	22,700000	51,925000
2,807760	-0,241687	13,149	-0,135937	22,700000	51,925000
2,811720	-0,274812	13,349	-0,135950	22,700000	51,925000
2,815826	-0,556984	13,551	-0,136063	22,700000	51,925000
2,819777	-0,058888	13,751	-0,135864	22,700000	51,925000
2,823801	-0,266224	13,951	-0,135947	22,700000	51,925000
2,827784	-0,449022	14,151	-0,136020	22,700000	51,925000
2,831756	-0,182799	14,352	-0,135914	22,700000	51,965000
2,835798	-0,215923	14,553	-0,135927	22,700000	51,965000
2,839787	-0,182799	14,754	-0,135914	22,700000	51,965000
2,843793	0,049073	14,954	-0,135821	22,700000	51,965000
2,847780	-0,266224	15,155	-0,135947	22,700000	51,965000
2,851746	-0,283399	15,357	-0,135954	22,700000	51,965000
2,855800	-0,307936	15,557	-0,135963	22,700000	51,965000
2,859805	-0,341061	15,757	-0,135977	22,700000	51,965000
2,863790	-0,215923	15,957	-0,135927	22,700000	51,965000
2,867736	-0,323885	16,157	-0,135970	22,700000	51,965000
2,871844	-0,241687	16,357	-0,135937	22,710000	51,940000
2,875757	-0,415898	16,557	-0,136006	22,710000	51,940000
2,879726	-0,490735	16,757	-0,136036	22,710000	51,940000
2,883755	-0,382773	16,958	-0,135993	22,710000	51,940000
2,887739	-0,365598	17,159	-0,135986	22,710000	51,940000
2,891766	-0,257636	17,360	-0,135943	22,710000	51,940000
2,895746	-0,382773	17,560	-0,135993	22,710000	51,940000
2,899833	-0,332473	17,761	-0,135973	22,710000	51,940000
2,903805	-0,141086	17,961	-0,135897	22,710000	51,940000
2,907788	-0,224511	18,161	-0,135930	22,710000	51,940000
2,911771	-0,374185	18,362	-0,135990	22,700000	51,935000
2,915792	-0,541035	18,562	-0,136056	22,700000	51,935000
2,919769	-0,499323	18,762	-0,136040	22,700000	51,935000
2,923802	-0,574160	18,962	-0,136069	22,700000	51,935000
2,927789	-0,316524	19,162	-0,135967	22,700000	51,935000
2,931790	-0,307936	19,362	-0,135963	22,700000	51,935000
2,935755	-0,565572	19,563	-0,136066	22,700000	51,935000
2,939748	-0,499323	19,763	-0,136040	22,700000	51,935000
2,943721	-0,548396	19,963	-0,136059	22,700000	51,935000
2,947728	-0,581521	20,163	-0,136072	22,700000	51,935000
2,951787	-0,399949	20,363	-0,136000	22,690000	51,950000
2,955746	-0,431847	20,564	-0,136013	22,690000	51,950000
2,959762	-0,548396	20,764	-0,136059	22,690000	51,950000
2,963751	-0,607284	20,965	-0,136083	22,690000	51,950000
2,967796	-0,482147	21,167	-0,136033	22,690000	51,950000
2,971720	-0,706658	21,367	-0,136122	22,690000	51,950000
2,975777	-0,515272	21,567	-0,136046	22,690000	51,950000
2,979762	-0,631821	21,769	-0,136092	22,690000	51,950000
2,983811	-0,506684	21,969	-0,136042	22,690000	51,950000
2,987730	-0,532447	22,170	-0,136053	22,690000	51,950000
2,991716	-0,590109	22,371	-0,136076	22,690000	51,950000
2,995751	-0,723834	22,572	-0,136129	22,690000	51,950000
2,999814	-0,856332	22,772	-0,136182	22,690000	51,950000
3,003764	-0,581521	22,973	-0,136072	22,690000	51,950000
3,007739	-0,790083	23,173	-0,136155	22,690000	51,950000
3,011737	-0,922582	23,373	-0,136208	22,690000	51,950000
3,015813	-0,840384	23,573	-0,136175	22,690000	51,950000
3,019735	-0,905406	23,773	-0,136201	22,690000	51,950000
3,023786	-0,349649	23,973	-0,135980	22,690000	51,950000
3,027813	-0,623233	24,173	-0,136089	22,690000	51,950000
3,031771	-0,756959	24,374	-0,136142	22,700000	51,925000
3,035762	-0,840384	24,576	-0,136175	22,700000	51,925000
3,039802	-0,648997	24,777	-0,136099	22,700000	51,925000
3,043781	-0,764320	24,977	-0,136145	22,700000	51,925000
3,047799	-0,955706	25,178	-0,136221	22,700000	51,925000
3,051720	-1,171630	25,379	-0,136307	22,700000	51,925000
3,055748	-1,138505	25,579	-0,136294	22,700000	51,925000
3,059694	-1,063668	25,780	-0,136264	22,700000	51,925000
3,063798	-1,105380	25,981	-0,136281	22,700000	51,925000
3,067746	-1,180217	26,181	-0,136311	22,700000	51,925000
3,071729	-69,219388	26,381	-0,163390	22,700000	51,925000
3,075730	-69,327350	26,581	-0,163433	22,700000	51,925000
3,079741	-69,078302	26,781	-0,163334	22,700000	51,925000
3,083758	-67,764359	26,982	-0,162811	22,700000	51,925000
3,087765	-66,178058	27,183	-0,162180	22,700000	51,925000
3,091754	-65,072678	27,384	-0,161740	22,700000	51,925000
3,095738	-63,916997	27,586	-0,161280	22,700000	51,925000
3,099727	-62,571157	27,787	-0,160744	22,700000	51,925000
3,103747	-60,186185	27,988	-0,159795	22,700000	51,925000
3,107764	-58,631782	28,190	-0,159176	22,700000	51,925000
3,111733	-58,607245	28,391	-0,159167	22,690000	51,935000
3,115819	-57,119092	28,592	-0,158574	22,690000	51,935000
3,119793	-54,269148	28,793	-0,157440	22,690000	51,935000
3,123699	-53,097519	28,993	-0,156974	22,690000	51,935000
3,127755	-52,598196	29,193	-0,156775	22,690000	51,935000
3,131729	-51,111269	29,393	-0,156183	22,690000	51,935000
3,135724	-49,639064	29,595	-0,155597	22,690000	51,935000
3,139775	-47,960751	29,795	-0,154929	22,690000	51,935000
3,143780	-46,540073	29,996	-0,154364	22,690000	51,935000
3,147758	-44,337900	30,196	-0,153487	22,690000	51,935000
3,151730	-42,666948	30,397	-0,152822	22,690000	51,935000
3,155700	-41,030347	30,597	-0,152171	22,690000	51,935000
3,159688	-39,467356	30,798	-0,151549	22,690000	51,935000
3,163753	-38,146053	30,999	-0,151023	22,690000	51,935000
3,167701	-37,056621	31,199	-0,150589	22,690000	51,935000
3,171753	-35,569694	31,399	-0,149998	22,690000	51,935000
3,175737	-33,350345	31,599	-0,149114	22,690000	51,935000
3,179717	-32,004505	31,799	-0,148579	22,690000	51,935000
3,183688	-30,143393	32,000	-0,147838	22,690000	51,935000
3,187746	-28,223392	32,200	-0,147074	22,690000	51,935000
3,191713	-26,087469	32,401	-0,146224	22,700000	51,935000
3,195780	-25,297385	32,602	-0,145909	22,700000	51,935000
3,199739	-23,752797	32,802	-0,145294	22,700000	51,935000
3,203754	-21,557985	33,004	-0,144421	22,700000	51,935000
3,207667	-20,294343	33,205	-0,143918	22,700000	51,935000
3,211722	-18,490892	33,405	-0,143200	22,700000	51,935000
3,215707	-16,788042	33,606	-0,142522	22,700000	51,935000
3,219709	-13,571274	33,806	-0,141242	22,700000	51,935000
3,223713	-13,238801	34,007	-0,141110	22,700000	51,935000
3,227702	-11,285676	34,207	-0,140333	22,700000	51,935000
3,231785	-9,490813	34,407	-0,139618	22,700000	51,950000
3,235729	-7,986711	34,608	-0,139020	22,700000	51,950000
3,239712	-5,011630	34,809	-0,137835	22,700000	51,950000
3,243718	-2,726033	35,009	-0,136926	22,700000	51,950000
3,247730	-0,847745	35,209	-0,136178	22,700000	51,950000
3,251733	0,821981	35,410	-0,135514	22,700000	51,950000
3,255679	2,659783	35,611	-0,134782	22,700000	51,950000
3,259648	4,604320	35,812	-0,134008	22,700000	51,950000
3,263748	5,434889	36,013	-0,133678	22,700000	51,950000
3,267759	7,337714	36,213	-0,132920	22,700000	51,950000
3,271652	8,858992	36,414	-0,132315	22,690000	51,965000
3,275717	11,193664	36,614	-0,131386	22,690000	51,965000
3,279715	13,362712	36,815	-0,130522	22,690000	51,965000
3,283764	15,233639	37,016	-0,129778	22,690000	51,965000
3,287679	16,588067	37,217	-0,129239	22,690000	51,965000
3,291688	18,906790	37,417	-0,128316	22,690000	51,965000
3,295798	20,743365	37,617	-0,127585	22,690000	51,965000
3,299718	22,521053	37,817	-0,126877	22,690000	51,965000
3,303694	24,980861	38,017	-0,125898	22,690000	51,965000
3,307672	26,552440	38,218	-0,125273	22,690000	51,965000
3,311692	28,563226	38,419	-0,124473	22,690000	51,910000
3,315701	30,399802	38,620	-0,123742	22,690000	51,910000
3,319675	32,137003	38,820	-0,123050	22,690000	51,910000
3,323747	35,169745	39,021	-0,121843	22,690000	51,910000
3,327713	37,148634	39,222	-0,121056	22,690000	51,910000
3,331665	38,769286	39,422	-0,120411	22,690000	51,910000
3,335688	39,441593	39,623	-0,120143	22,690000	51,910000
3,339707	41,469555	39,823	-0,119336	22,690000	51,910000
3,343686	43,131919	40,023	-0,118674	22,690000	51,910000
3,347707	46,173249	40,224	-0,117464	22,690000	51,910000
3,351705	47,062706	40,425	-0,117110	22,690000	51,950000
3,355698	48,650234	40,626	-0,116478	22,690000	51,950000
3,359692	51,757812	40,826	-0,115241	22,690000	51,950000
3,363652	53,728113	41,027	-0,114457	22,690000	51,950000
3,367696	55,697187	41,227	-0,113673	22,690000	51,950000
3,371717	57,317839	41,428	-0,113028	22,690000	51,950000
3,375658	46,871319	41,629	-0,117186	22,690000	51,950000
3,379661	33,590806	41,829	-0,122472	22,690000	51,950000
3,383703	31,903904	42,029	-0,123143	22,690000	51,950000
3,387730	33,408007	42,229	-0,122544	22,690000	51,950000
3,391663	35,253170	42,431	-0,121810	22,690000	51,925000
3,395696	37,197707	42,631	-0,121036	22,690000	51,925000
3,399748	38,876021	42,831	-0,120368	22,690000	51,925000
3,403682	41,236456	43,031	-0,119429	22,690000	51,925000
3,407643	42,940533	43,233	-0,118750	22,690000	51,925000
3,411693	45,616265	43,433	-0,117686	22,690000	51,925000
3,415655	48,150911	43,634	-0,116677	22,690000	51,925000
3,419663	49,531103	43,834	-0,116127	22,690000	51,925000
3,423659	50,835231	44,036	-0,115608	22,690000	51,925000
3,427665	52,581020	44,238	-0,114914	22,690000	51,925000
3,431658	56,062785	44,439	-0,113528	22,690000	51,950000
3,435606	57,676076	44,639	-0,112886	22,690000	51,950000
3,439702	59,878249	44,840	-0,112009	22,690000	51,950000
3,443666	59,927322	45,040	-0,111990	22,690000	51,950000
3,447652	61,323463	45,240	-0,111434	22,690000	51,950000
3,451706	62,411668	45,442	-0,111001	22,690000	51,950000
3,455650	63,650773	45,644	-0,110508	22,690000	51,950000
3,459619	65,736397	45,846	-0,109678	22,690000	51,950000
3,463671	67,872321	46,046	-0,108828	22,690000	51,950000
3,467765	68,288218	46,246	-0,108662	22,690000	51,950000
3,471683	69,767784	46,446	-0,108073	22,700000	51,950000
3,475657	71,122213	46,646	-0,107534	22,700000	51,950000
3,479615	71,745446	46,848	-0,107286	22,700000	51,950000
3,483695	73,456884	47,048	-0,106605	22,700000	51,950000
3,487604	75,784194	47,249	-0,105679	22,700000	51,950000
3,491632	77,396259	47,451	-0,105037	22,700000	51,950000
3,495658	78,783812	47,651	-0,104485	22,700000	51,950000
3,499705	80,978624	47,851	-0,103611	22,700000	51,950000
3,503671	83,196745	48,052	-0,102729	22,700000	51,950000
3,507689	85,100797	48,252	-0,101971	22,700000	51,950000
3,511667	86,911609	48,453	-0,101250	22,700000	51,950000
3,515642	88,765360	48,653	-0,100512	22,700000	51,950000
3,519678	91,101258	48,854	-0,099583	22,700000	51,950000
3,523662	94,450524	49,056	-0,098250	22,700000	51,950000
3,527637	96,327585	49,256	-0,097502	22,700000	51,950000
3,531715	98,463509	49,458	-0,096652	22,700000	51,950000
3,535665	100,449759	49,658	-0,095862	22,700000	51,950000
3,539697	101,563727	49,858	-0,095418	22,700000	51,950000
3,543698	104,979242	50,058	-0,094059	22,700000	51,950000
3,547674	107,097990	50,258	-0,093216	22,700000	51,950000
3,551696	109,176252	50,460	-0,092389	22,700000	51,935000
3,551690	108,586144	50,660	-0,092624	22,700000	51,935000
3,551670	108,046335	50,860	-0,092838	22,700000	51,935000
3,551667	107,804648	51,060	-0,092935	22,700000	51,935000
3,551667	107,497939	51,260	-0,093057	22,700000	51,935000
3,551665	107,015792	51,460	-0,093249	22,700000	51,935000
3,551713	107,090629	51,661	-0,093219	22,700000	51,935000
3,551669	106,474757	51,861	-0,093464	22,700000	51,935000
3,551656	106,707856	52,061	-0,093371	22,700000	51,935000
3,551673	106,201172	52,261	-0,093573	22,700000	51,935000
3,551720	106,342258	52,461	-0,093517	22,700000	51,935000
3,551652	106,192584	52,662	-0,093576	22,700000	51,935000
3,551580	105,959485	52,862	-0,093669	22,700000	51,935000
3,551608	105,577939	53,063	-0,093821	22,700000	51,935000
3,551668	105,760737	53,263	-0,093748	22,700000	51,935000
3,551620	105,734974	53,463	-0,093758	22,700000	51,935000
3,551652	105,560763	53,664	-0,093828	22,700000	51,935000
3,551632	105,469977	53,864	-0,093864	22,700000	51,935000
3,551696	105,287178	54,065	-0,093937	22,700000	51,935000
3,551641	105,254053	54,267	-0,093950	22,700000	51,935000
3,551662	105,012367	54,468	-0,094046	22,690000	51,950000
3,551624	105,137504	54,668	-0,093996	22,690000	51,950000
3,551635	104,846743	54,868	-0,094112	22,690000	51,950000
3,551671	104,530219	55,069	-0,094238	22,690000	51,950000
3,551635	104,846743	55,269	-0,094112	22,690000	51,950000
3,551607	104,589108	55,470	-0,094214	22,690000	51,950000
3,551667	104,780494	55,671	-0,094138	22,690000	51,950000
3,551638	104,272584	55,871	-0,094340	22,690000	51,950000
3,551671	104,730194	56,071	-0,094158	22,690000	51,950000
3,551676	104,331472	56,272	-0,094317	22,690000	51,950000
3,551678	104,497095	56,472	-0,094251	22,700000	51,910000
3,551651	104,223510	56,673	-0,094360	22,700000	51,910000
3,551653	104,322884	56,875	-0,094320	22,700000	51,910000
3,551688	104,289759	57,075	-0,094333	22,700000	51,910000
3,551687	104,239459	57,276	-0,094354	22,700000	51,910000
3,551662	103,807612	57,476	-0,094525	22,700000	51,910000
3,551679	104,190386	57,677	-0,094373	22,700000	51,910000
3,551685	104,115548	57,878	-0,094403	22,700000	51,910000
3,551703	103,832149	58,079	-0,094516	22,700000	51,910000
3,551671	103,774488	58,279	-0,094539	22,700000	51,910000
3,551646	103,499676	58,480	-0,094648	22,690000	51,935000
3,551665	103,600277	58,680	-0,094608	22,690000	51,935000
3,551761	103,567152	58,880	-0,094621	22,690000	51,935000
3,551661	103,358590	59,080	-0,094704	22,690000	51,935000
3,551698	103,607638	59,280	-0,094605	22,690000	51,935000
3,551630	103,724187	59,480	-0,094559	22,690000	51,935000
3,551716	103,433427	59,680	-0,094674	22,690000	51,935000
3,551661	103,109542	59,880	-0,094803	22,690000	51,935000
3,551661	103,358590	60,080	-0,094704	22,690000	51,935000
3,551698	103,499676	60,280	-0,094648	22,690000	51,935000
3,551620	103,142666	60,480	-0,094790	22,690000	51,950000
3,547642	101,398104	60,680	-0,095484	22,690000	51,950000
3,543664	99,262180	60,880	-0,096334	22,690000	51,950000
3,539660	96,095713	61,080	-0,097595	22,690000	51,950000
3,535730	93,136581	61,280	-0,098772	22,690000	51,950000
3,531638	90,419137	61,481	-0,099854	22,690000	51,950000
3,527660	88,349462	61,682	-0,100678	22,690000	51,950000
3,523725	85,831992	61,882	-0,101680	22,690000	51,950000
3,519654	83,321883	62,083	-0,102679	22,690000	51,950000
3,515643	79,291722	62,284	-0,104283	22,690000	51,950000
3,511656	78,219466	62,485	-0,104709	22,690000	51,950000
3,507627	74,180718	62,685	-0,106317	22,690000	51,950000
3,503704	73,258136	62,886	-0,106684	22,690000	51,950000
3,499625	69,202212	63,086	-0,108298	22,690000	51,950000
3,495655	68,138544	63,286	-0,108722	22,690000	51,950000
3,491642	64,282595	63,487	-0,110256	22,690000	51,950000
3,487715	61,830147	63,688	-0,111232	22,690000	51,950000
3,483675	59,204715	63,888	-0,112277	22,690000	51,950000
3,479673	57,027079	64,088	-0,113144	22,690000	51,950000
3,475672	55,664062	64,289	-0,113687	22,690000	51,950000
3,471690	53,336752	64,490	-0,114613	22,690000	51,965000
3,467591	49,938413	64,691	-0,115965	22,690000	51,965000
3,463724	48,234336	64,892	-0,116644	22,690000	51,965000
3,459635	45,466591	65,093	-0,117745	22,690000	51,965000
3,455688	43,273006	65,294	-0,118618	22,690000	51,965000
3,451693	40,280749	65,495	-0,119809	22,690000	51,965000
3,447655	37,946078	65,696	-0,120738	22,690000	51,965000
3,443657	35,552518	65,897	-0,121691	22,690000	51,965000
3,439675	33,408007	66,097	-0,122544	22,690000	51,965000
3,435658	31,031623	66,298	-0,123490	22,690000	51,965000
3,431683	28,838038	66,499	-0,124363	22,690000	51,965000
3,427692	25,321922	66,699	-0,125763	22,690000	51,965000
3,423673	23,610484	66,901	-0,126444	22,690000	51,965000
3,419738	22,254829	67,103	-0,126983	22,690000	51,965000
3,415661	19,937333	67,305	-0,127906	22,690000	51,965000
3,411730	16,081383	67,506	-0,129440	22,690000	51,965000
3,407728	13,870623	67,706	-0,130320	22,690000	51,965000
3,403694	12,798367	67,908	-0,130747	22,690000	51,965000
3,399717	9,208641	68,109	-0,132176	22,690000	51,965000
3,395721	6,839618	68,309	-0,133119	22,690000	51,965000
3,391693	4,686519	68,509	-0,133976	22,690000	51,965000
3,387688	2,301547	68,709	-0,134925	22,690000	51,965000
3,383633	-0,024537	68,910	-0,135851	22,690000	51,965000
3,379757	-2,360435	69,110	-0,136780	22,690000	51,965000
3,375687	-3,199592	69,310	-0,137114	22,690000	51,965000
3,371657	-6,980704	69,510	-0,138619	22,690000	51,965000
3,367681	-8,817280	69,710	-0,139350	22,690000	51,965000
3,363753	-9,840462	69,911	-0,139757	22,690000	51,965000
3,359658	-13,031466	70,112	-0,141027	22,690000	51,965000
3,355719	-15,075377	70,313	-0,141841	22,690000	51,965000
3,351718	-16,986789	70,514	-0,142602	22,690000	51,965000
3,347747	-19,247851	70,716	-0,143501	22,690000	51,965000
3,343721	-21,117551	70,917	-0,144246	22,690000	51,965000
3,339707	-24,109807	71,117	-0,145437	22,690000	51,965000
3,335685	-26,369641	71,319	-0,146336	22,690000	51,965000
3,331700	-28,223392	71,519	-0,147074	22,690000	51,965000
3,327671	-29,370485	71,720	-0,147530	22,690000	51,965000
3,323661	-31,422984	71,920	-0,148347	22,690000	51,965000
3,319762	-35,404071	72,121	-0,149932	22,690000	51,965000
3,315715	-36,192928	72,322	-0,150246	22,690000	51,965000
3,311738	-39,176596	72,523	-0,151433	22,690000	51,965000
3,307724	-39,434232	72,724	-0,151536	22,690000	51,965000
3,303697	-42,741785	72,925	-0,152852	22,690000	51,965000
3,299737	-45,234719	73,125	-0,153844	22,690000	51,965000
3,295703	-47,170668	73,326	-0,154615	22,690000	51,965000
3,291641	-48,533684	73,527	-0,155157	22,690000	51,965000
3,287747	-50,737084	73,727	-0,156034	22,690000	51,965000
3,283694	-51,052381	73,927	-0,156160	22,690000	51,965000
3,279758	-53,080343	74,127	-0,156967	22,690000	51,965000
3,275725	-55,564689	74,328	-0,157956	22,690000	51,965000
3,271740	-56,894580	74,529	-0,158485	22,690000	51,975000
3,267708	-57,891999	74,729	-0,158882	22,690000	51,975000
3,263684	-60,708818	74,929	-0,160003	22,690000	51,975000
3,259727	-62,005585	75,129	-0,160519	22,690000	51,975000
3,255704	-62,912217	75,329	-0,160880	22,690000	51,975000
3,251716	-65,105802	75,529	-0,161753	22,690000	51,975000
3,247757	-66,360857	75,729	-0,162252	22,690000	51,975000
3,243684	-66,709279	75,930	-0,162391	22,690000	51,975000
3,239756	-68,538493	76,130	-0,163119	22,690000	51,975000
3,235731	-69,385011	76,331	-0,163456	22,690000	51,975000
3,231711	-71,139388	76,531	-0,164154	22,690000	51,935000
3,227744	-73,981970	76,731	-0,165286	22,690000	51,935000
3,223721	-74,246967	76,931	-0,165391	22,690000	51,935000
3,219758	-75,145012	77,131	-0,165749	22,690000	51,935000
3,215715	-76,915338	77,331	-0,166453	22,690000	51,935000
3,211729	-79,956668	77,531	-0,167664	22,690000	51,935000
3,207721	-80,538189	77,732	-0,167895	22,690000	51,935000
3,203779	-83,422484	77,934	-0,169043	22,690000	51,935000
3,199691	-84,320528	78,134	-0,169400	22,690000	51,935000
3,195788	-87,452644	78,335	-0,170647	22,690000	51,935000
3,191677	-89,456069	78,537	-0,171444	22,700000	51,965000
3,187693	-90,403188	78,738	-0,171821	22,700000	51,965000
3,183672	-92,015252	78,939	-0,172463	22,700000	51,965000
3,179746	-95,122831	79,139	-0,173700	22,700000	51,965000
3,175747	-97,417017	79,340	-0,174613	22,700000	51,965000
3,171714	-98,207100	79,540	-0,174927	22,700000	51,965000
3,167712	-101,382155	79,740	-0,176191	22,700000	51,965000
3,163732	-102,120711	79,940	-0,176485	22,700000	51,965000
3,159744	-104,406309	80,140	-0,177395	22,700000	51,965000
3,155748	-106,526284	80,341	-0,178238	22,700000	51,925000
3,151803	-109,085466	80,542	-0,179257	22,700000	51,925000
3,147771	-111,080304	80,743	-0,180051	22,700000	51,925000
3,143710	-113,747448	80,943	-0,181112	22,700000	51,925000
3,139772	-114,952202	81,143	-0,181592	22,700000	51,925000
3,135810	-117,321225	81,343	-0,182535	22,700000	51,925000
3,131812	-118,510031	81,543	-0,183008	22,700000	51,925000
3,127728	-121,443399	81,743	-0,184175	22,700000	51,925000
3,123745	-123,121712	81,944	-0,184843	22,700000	51,925000
3,119759	-125,233099	82,145	-0,185684	22,700000	51,925000
3,115720	-126,737202	82,345	-0,186282	22,700000	51,925000
3,111790	-129,430110	82,545	-0,187354	22,700000	51,925000
3,107756	-130,742825	82,746	-0,187876	22,700000	51,925000
3,103724	-132,803912	82,947	-0,188697	22,700000	51,925000
3,099762	-134,649075	83,148	-0,189431	22,700000	51,925000
3,095760	-136,635325	83,348	-0,190222	22,700000	51,925000
3,091738	-138,454725	83,549	-0,190946	22,700000	51,925000
3,087719	-140,616412	83,749	-0,191806	22,700000	51,925000
3,083797	-142,268962	83,949	-0,192464	22,700000	51,925000
3,079793	-144,804835	84,149	-0,193473	22,700000	51,925000
3,075777	-146,815621	84,350	-0,194273	22,700000	51,925000
3,071765	-148,552823	84,551	-0,194965	22,700000	51,925000
3,067854	-150,497360	84,753	-0,195739	22,700000	51,925000
3,063752	-154,145974	84,953	-0,197191	22,700000	51,925000
3,059759	-155,799751	85,153	-0,197849	22,700000	51,925000
3,055778	-158,160186	85,354	-0,198789	22,700000	51,925000
3,051756	-160,228633	85,554	-0,199612	22,700000	51,925000
3,047738	-161,932710	85,755	-0,200290	22,700000	51,925000
3,043759	-162,564532	85,955	-0,200542	22,700000	51,925000
3,039789	-164,542193	86,156	-0,201329	22,700000	51,925000
3,035767	-167,151676	86,357	-0,202367	22,690000	51,950000
3,031774	-169,752571	86,557	-0,203402	22,690000	51,950000
3,027756	-170,193006	86,758	-0,203578	22,690000	51,950000
3,023780	-172,130182	86,958	-0,204349	22,690000	51,950000
3,019820	-174,198630	87,158	-0,205172	22,690000	51,950000
3,015779	-176,111269	87,358	-0,205933	22,690000	51,950000
3,011724	-178,928088	87,558	-0,207054	22,690000	51,950000
3,007781	-180,947462	87,758	-0,207858	22,690000	51,950000
3,003721	-182,883411	87,959	-0,208628	22,690000	51,950000
2,999800	-184,396102	88,159	-0,209230	22,690000	51,950000
2,995745	-185,186185	88,360	-0,209545	22,700000	51,910000
2,991787	-187,820205	88,560	-0,210593	22,700000	51,910000
2,987761	-189,266646	88,761	-0,211169	22,700000	51,910000
2,983737	-191,867541	88,961	-0,212204	22,700000	51,910000
2,979815	-193,056346	89,161	-0,212677	22,700000	51,910000
2,975765	-194,551861	89,362	-0,213272	22,700000	51,910000
2,971765	-196,280475	89,563	-0,213960	22,700000	51,910000
2,967791	-197,901127	89,763	-0,214605	22,700000	51,910000
2,963765	-200,011287	89,964	-0,215445	22,700000	51,910000
2,959793	-201,574278	90,164	-0,216067	22,700000	51,910000
2,955797	-203,759275	90,365	-0,216937	22,700000	51,910000
2,951756	-205,089167	90,566	-0,217466	22,700000	51,910000
2,947817	-207,840963	90,767	-0,218562	22,700000	51,910000
2,943808	-208,056886	90,967	-0,218647	22,700000	51,910000
2,939821	-209,402727	91,167	-0,219183	22,700000	51,910000
2,935810	-211,098216	91,367	-0,219858	22,700000	51,910000
2,931758	-213,740823	91,568	-0,220910	22,700000	51,910000
2,927734	-215,378651	91,769	-0,221562	22,700000	51,910000
2,923778	-216,409194	91,969	-0,221972	22,700000	51,910000
2,919738	-216,052185	92,170	-0,221830	22,700000	51,910000
2,915758	-216,084083	92,371	-0,221842	22,690000	51,965000
2,911741	-214,754191	92,572	-0,221313	22,690000	51,965000
2,907789	-162,679854	92,773	-0,200587	22,690000	51,965000
2,903759	-155,740863	92,973	-0,197826	22,690000	51,965000
2,899765	-150,896082	93,173	-0,195897	22,690000	51,965000
2,895790	-149,084043	93,373	-0,195176	22,690000	51,965000
2,891783	-148,203174	93,574	-0,194826	22,690000	51,965000
2,887773	-148,676733	93,774	-0,195014	22,690000	51,965000
2,883784	-148,594535	93,975	-0,194981	22,690000	51,965000
2,879764	-148,352848	94,176	-0,194885	22,690000	51,965000
2,875793	-148,020375	94,376	-0,194753	22,690000	51,965000
2,871792	-148,037551	94,577	-0,194760	22,690000	51,965000
2,867779	-148,594535	94,777	-0,194981	22,690000	51,965000
2,863741	-148,801871	94,977	-0,195064	22,690000	51,965000
2,859805	-149,176056	95,178	-0,195213	22,690000	51,965000
2,855752	-150,713283	95,379	-0,195825	22,690000	51,965000
2,851768	-150,006625	95,580	-0,195543	22,690000	51,965000
2,847777	-150,389398	95,781	-0,195696	22,690000	51,965000
2,843798	-150,713283	95,981	-0,195825	22,690000	51,965000
2,839785	-151,054344	96,181	-0,195960	22,690000	51,965000
2,835795	-151,611328	96,382	-0,196182	22,690000	51,925000
2,831755	-152,167085	96,583	-0,196403	22,690000	51,925000
2,827802	-152,408772	96,784	-0,196500	22,690000	51,925000
2,823764	-152,300811	96,984	-0,196457	22,690000	51,925000
2,819792	-152,998881	97,184	-0,196734	22,690000	51,925000
2,815810	-152,965757	97,384	-0,196721	22,690000	51,925000
2,811800	-152,125373	97,584	-0,196387	22,690000	51,925000
2,807788	-151,810076	97,784	-0,196261	22,690000	51,925000
2,803774	-150,929207	97,986	-0,195911	22,690000	51,925000
2,799791	-148,211762	98,186	-0,194829	22,690000	51,925000
2,795750	-144,039288	98,388	-0,193168	22,690000	51,925000
2,791738	-137,591031	98,588	-0,190602	22,690000	51,925000
2,787811	-128,540652	98,788	-0,187000	22,690000	51,925000
2,783833	-124,260217	98,988	-0,185296	22,690000	51,925000
2,779823	-117,387474	99,188	-0,182561	22,690000	51,925000
2,775769	-0,556984	99,389	-0,136063	22,690000	51,925000
2,771799	-0,399949	99,589	-0,136000	22,690000	51,925000
2,767738	-0,249048	99,789	-0,135940	22,690000	51,925000
2,763785	-0,233099	99,990	-0,135934	22,690000	51,925000
2,759794	-0,158262	100,190	-0,135904	22,690000	51,925000
2,755797	-0,257636	100,390	-0,135943	22,690000	51,950000
2,751826	-0,358236	100,590	-0,135983	22,690000	51,950000
2,747762	-0,332473	100,791	-0,135973	22,690000	51,950000
2,743812	-0,307936	100,991	-0,135963	22,690000	51,950000
2,739791	-0,332473	101,194	-0,135973	22,690000	51,950000
2,735752	0,008588	101,394	-0,135837	22,690000	51,950000
2,731868	-0,149674	101,596	-0,135900	22,690000	51,950000
2,727831	-0,074837	101,796	-0,135871	22,690000	51,950000
2,723739	-0,290760	101,996	-0,135957	22,690000	51,950000
2,719787	-0,041712	102,196	-0,135857	22,690000	51,950000
2,715825	-0,066249	102,398	-0,135867	22,690000	51,950000
2,711782	-0,058888	102,598	-0,135864	22,690000	51,950000
2,707807	-0,224511	102,798	-0,135930	22,690000	51,950000
2,703770	-0,257636	102,999	-0,135943	22,690000	51,950000
2,699690	0,107962	103,200	-0,135798	22,690000	51,950000
2,695796	0,090786	103,401	-0,135805	22,690000	51,950000
2,691819	-0,374185	103,601	-0,135990	22,690000	51,950000
2,687776	-0,382773	103,802	-0,135993	22,690000	51,950000
2,683758	-0,116550	104,002	-0,135887	22,690000	51,950000
2,679802	-0,024537	104,203	-0,135851	22,690000	51,950000
2,675807	-0,249048	104,403	-0,135940	22,690000	51,935000
2,671807	-0,199974	104,603	-0,135920	22,690000	51,935000
2,667827	0,015949	104,803	-0,135834	22,690000	51,935000
2,663791	0,049073	105,003	-0,135821	22,690000	51,935000
2,659784	-0,116550	105,204	-0,135887	22,690000	51,935000
2,655771	-0,050300	105,405	-0,135861	22,690000	51,935000
2,651764	0,099374	105,606	-0,135801	22,690000	51,935000
2,647756	0,224511	105,807	-0,135751	22,690000	51,935000
2,643845	0,132498	106,007	-0,135788	22,690000	51,935000
2,639749	0,123911	106,208	-0,135792	22,690000	51,935000
2,635815	0,040486	106,408	-0,135825	22,700000	51,925000
2,631803	-0,215923	106,609	-0,135927	22,700000	51,925000
2,627793	-0,100601	106,810	-0,135881	22,700000	51,925000
2,623775	0,149674	107,010	-0,135781	22,700000	51,925000
2,619797	-0,274812	107,210	-0,135950	22,700000	51,925000
2,615866	0,099374	107,411	-0,135801	22,700000	51,925000
2,611802	0,033125	107,611	-0,135828	22,700000	51,925000
2,607734	-0,008588	107,811	-0,135844	22,700000	51,925000
2,603717	0,233099	108,012	-0,135748	22,700000	51,925000
2,599766	0,149674	108,214	-0,135781	22,700000	51,925000
2,595791	0,149674	108,415	-0,135781	22,700000	51,925000
2,591800	-0,008588	108,615	-0,135844	22,700000	51,925000
2,587828	0,033125	108,816	-0,135828	22,700000	51,925000
2,583787	0,207336	109,017	-0,135758	22,700000	51,925000
2,579768	0,099374	109,217	-0,135801	22,700000	51,925000
2,575771	-0,041712	109,419	-0,135857	22,700000	51,925000
2,571807	0,257636	109,619	-0,135738	22,700000	51,925000
2,567783	-0,017176	109,820	-0,135848	22,700000	51,925000
2,563799	0,174211	110,021	-0,135771	22,700000	51,925000
2,559795	0,066249	110,223	-0,135814	22,700000	51,925000
2,555819	0,074837	110,425	-0,135811	22,690000	51,935000
2,551800	0,182799	110,627	-0,135768	22,690000	51,935000