File: Nanoindentation Datenauswertung/data/PDMS/EM-PDMS-50-10-50-1um-2
Quasi static measurement routine
Tip parameters (shape,radius, material...)
24.08.2022

Piezo position[nm]	MEMS displ.[nm]	Time[ms]	Cap [pf]	Temp [°C]	Rh [%]
eoh
2,625879	-0,017176	0,239	-0,135877	22,720000	52,310000
2,629858	-0,008588	0,439	-0,135874	22,730000	52,300000
2,633897	-0,033125	0,639	-0,135884	22,730000	52,300000
2,637925	-0,158262	0,839	-0,135934	22,730000	52,300000
2,641871	0,000000	1,039	-0,135871	22,730000	52,300000
2,645904	-0,132498	1,240	-0,135923	22,730000	52,300000
2,649864	-0,116550	1,440	-0,135917	22,730000	52,300000
2,653904	-0,008588	1,640	-0,135874	22,730000	52,300000
2,657890	-0,290760	1,840	-0,135986	22,730000	52,300000
2,661880	0,008588	2,041	-0,135867	22,730000	52,300000
2,665823	-0,382773	2,242	-0,136023	22,730000	52,300000
2,669850	0,000000	2,442	-0,135871	22,730000	52,300000
2,673844	-0,208562	2,642	-0,135954	22,730000	52,300000
2,677851	-0,041712	2,844	-0,135887	22,730000	52,300000
2,681909	-0,182799	3,045	-0,135943	22,730000	52,300000
2,685876	-0,083425	3,245	-0,135904	22,730000	52,300000
2,689935	-0,233099	3,446	-0,135963	22,730000	52,300000
2,693854	0,099374	3,646	-0,135831	22,730000	52,300000
2,697901	-0,058888	3,846	-0,135894	22,730000	52,300000
2,701876	-0,008588	4,047	-0,135874	22,730000	52,300000
2,705870	-0,132498	4,248	-0,135923	22,730000	52,300000
2,709883	-0,125137	4,450	-0,135920	22,730000	52,315000
2,713909	-0,182799	4,650	-0,135943	22,730000	52,315000
2,717905	0,141086	4,850	-0,135814	22,730000	52,315000
2,721875	-0,083425	5,050	-0,135904	22,730000	52,315000
2,725887	-0,033125	5,250	-0,135884	22,730000	52,315000
2,729809	-0,058888	5,450	-0,135894	22,730000	52,315000
2,733857	0,033125	5,652	-0,135857	22,730000	52,315000
2,737843	-0,257636	5,854	-0,135973	22,730000	52,315000
2,741827	-0,149674	6,056	-0,135930	22,730000	52,315000
2,745848	-0,125137	6,256	-0,135920	22,730000	52,315000
2,749858	-0,199974	6,456	-0,135950	22,730000	52,290000
2,753841	-0,158262	6,656	-0,135934	22,730000	52,290000
2,757865	-0,191387	6,857	-0,135947	22,730000	52,290000
2,761892	-0,092013	7,058	-0,135907	22,730000	52,290000
2,765871	-0,249048	7,259	-0,135970	22,730000	52,290000
2,769896	-0,107962	7,459	-0,135914	22,730000	52,290000
2,773860	0,000000	7,659	-0,135871	22,730000	52,290000
2,777818	-0,008588	7,861	-0,135874	22,730000	52,290000
2,781906	-0,299348	8,061	-0,135990	22,730000	52,290000
2,785847	-0,332473	8,261	-0,136003	22,730000	52,290000
2,789881	-0,374185	8,461	-0,136020	22,720000	52,295000
2,793864	-0,182799	8,662	-0,135943	22,720000	52,295000
2,797947	-0,299348	8,862	-0,135990	22,720000	52,295000
2,801841	-0,283399	9,063	-0,135983	22,720000	52,295000
2,805882	-0,274812	9,263	-0,135980	22,720000	52,295000
2,809857	-0,614645	9,463	-0,136115	22,720000	52,295000
2,813818	-0,349649	9,666	-0,136010	22,720000	52,295000
2,817900	-0,349649	9,866	-0,136010	22,720000	52,295000
2,821820	-0,424486	10,066	-0,136040	22,720000	52,295000
2,825830	-0,431847	10,267	-0,136042	22,720000	52,295000
2,829870	-0,457610	10,467	-0,136053	22,710000	52,295000
2,833865	-0,132498	10,668	-0,135923	22,710000	52,295000
2,837867	-0,249048	10,869	-0,135970	22,710000	52,295000
2,841859	-0,349649	11,070	-0,136010	22,710000	52,295000
2,845860	-0,341061	11,270	-0,136006	22,710000	52,295000
2,849832	-0,415898	11,471	-0,136036	22,710000	52,295000
2,853868	-0,332473	11,671	-0,136003	22,710000	52,295000
2,857838	-0,382773	11,871	-0,136023	22,710000	52,295000
2,861842	-0,382773	12,071	-0,136023	22,710000	52,295000
2,865849	-0,440435	12,271	-0,136046	22,710000	52,295000
2,869827	-0,349649	12,471	-0,136010	22,710000	52,295000
2,873797	-0,689483	12,672	-0,136145	22,710000	52,295000
2,877897	-0,574160	12,873	-0,136099	22,710000	52,295000
2,881868	-0,515272	13,074	-0,136076	22,710000	52,295000
2,885878	-0,449022	13,275	-0,136049	22,710000	52,295000
2,889871	-0,523860	13,475	-0,136079	22,710000	52,295000
2,893820	-0,431847	13,675	-0,136042	22,710000	52,295000
2,897903	-0,748371	13,875	-0,136168	22,710000	52,295000
2,901841	-0,431847	14,076	-0,136042	22,710000	52,295000
2,905856	-1,105380	14,278	-0,136311	22,710000	52,295000
2,909852	-0,598697	14,478	-0,136109	22,730000	52,300000
2,913898	-0,565572	14,678	-0,136096	22,730000	52,300000
2,917810	-0,390134	14,879	-0,136026	22,730000	52,300000
2,921872	-0,457610	15,079	-0,136053	22,730000	52,300000
2,925882	-0,673534	15,279	-0,136139	22,730000	52,300000
2,929874	-0,283399	15,479	-0,135983	22,730000	52,300000
2,933843	-0,482147	15,680	-0,136063	22,730000	52,300000
2,937812	-0,565572	15,880	-0,136096	22,730000	52,300000
2,941834	-0,590109	16,082	-0,136105	22,730000	52,300000
2,945825	-0,541035	16,283	-0,136086	22,730000	52,300000
2,949902	-0,623233	16,483	-0,136119	22,730000	52,300000
2,953854	-0,889457	16,684	-0,136225	22,730000	52,300000
2,957867	-0,723834	16,884	-0,136159	22,730000	52,300000
2,961803	-0,017176	17,085	-0,135877	22,730000	52,300000
2,965817	-0,466198	17,285	-0,136056	22,730000	52,300000
2,969831	-0,823208	17,485	-0,136198	22,730000	52,300000
2,973875	-0,648997	17,686	-0,136129	22,730000	52,300000
2,977815	-0,490735	17,887	-0,136066	22,730000	52,300000
2,981809	-0,715246	18,087	-0,136155	22,730000	52,300000
2,985883	-0,739783	18,287	-0,136165	22,730000	52,300000
2,989870	-0,715246	18,488	-0,136155	22,730000	52,275000
2,993864	-0,574160	18,688	-0,136099	22,730000	52,275000
2,997833	-0,765546	18,889	-0,136175	22,730000	52,275000
3,001855	-0,922582	19,090	-0,136238	22,730000	52,275000
3,005848	-0,723834	19,290	-0,136159	22,730000	52,275000
3,009867	-0,407310	19,490	-0,136033	22,730000	52,275000
3,013857	-0,823208	19,690	-0,136198	22,730000	52,275000
3,017786	-0,723834	19,891	-0,136159	22,730000	52,275000
3,021800	-0,715246	20,092	-0,136155	22,730000	52,275000
3,025804	-0,948345	20,292	-0,136248	22,730000	52,275000
3,029792	-0,856332	20,492	-0,136211	22,720000	52,320000
3,033772	-1,180217	20,692	-0,136340	22,720000	52,320000
3,037801	-0,689483	20,892	-0,136145	22,720000	52,320000
3,041804	-1,006007	21,092	-0,136271	22,720000	52,320000
3,045796	-1,047719	21,292	-0,136288	22,720000	52,320000
3,049829	-0,988831	21,493	-0,136264	22,720000	52,320000
3,053786	-0,772908	21,694	-0,136178	22,720000	52,320000
3,057803	-1,014594	21,894	-0,136274	22,720000	52,320000
3,061818	-1,105380	22,095	-0,136311	22,720000	52,320000
3,065815	-1,188805	22,297	-0,136344	22,720000	52,320000
3,069806	-1,089432	22,497	-0,136304	22,730000	52,315000
3,073787	-1,047719	22,697	-0,136288	22,730000	52,315000
3,077842	-0,931170	22,899	-0,136241	22,730000	52,315000
3,081756	-1,188805	23,100	-0,136344	22,730000	52,315000
3,085820	-1,014594	23,300	-0,136274	22,730000	52,315000
3,089784	-1,354428	23,501	-0,136410	22,730000	52,315000
3,093815	-1,006007	23,701	-0,136271	22,730000	52,315000
3,097856	-1,437853	23,902	-0,136443	22,730000	52,315000
3,101826	-1,363016	24,103	-0,136413	22,730000	52,315000
3,105833	-1,421904	24,304	-0,136437	22,730000	52,315000
3,109833	-1,288179	24,505	-0,136383	22,720000	52,295000
3,113851	-1,246467	24,705	-0,136367	22,720000	52,295000
3,117805	-1,371604	24,906	-0,136417	22,720000	52,295000
3,121825	-1,728614	25,106	-0,136559	22,720000	52,295000
3,125825	-1,686901	25,307	-0,136542	22,720000	52,295000
3,129838	-1,904052	25,507	-0,136628	22,720000	52,295000
3,133863	-1,904052	25,707	-0,136628	22,720000	52,295000
3,137825	-1,653777	25,908	-0,136529	22,720000	52,295000
3,141818	-1,994837	26,109	-0,136665	22,720000	52,295000
3,145779	-1,836575	26,310	-0,136602	22,720000	52,295000
3,149833	-2,344486	26,511	-0,136804	22,720000	52,295000
3,153805	-65,396563	26,711	-0,161898	22,720000	52,295000
3,157815	-64,381968	26,911	-0,161495	22,720000	52,295000
3,161776	-63,302352	27,113	-0,161065	22,720000	52,295000
3,165744	-62,837380	27,315	-0,160880	22,720000	52,295000
3,169838	-61,590914	27,516	-0,160384	22,720000	52,295000
3,173855	-61,972460	27,716	-0,160536	22,720000	52,295000
3,177805	-60,294147	27,917	-0,159868	22,720000	52,295000
3,181819	-57,634363	28,117	-0,158809	22,720000	52,295000
3,185830	-56,271347	28,317	-0,158267	22,720000	52,295000
3,189784	-54,509609	28,518	-0,157565	22,730000	52,300000
3,193766	-54,309634	28,718	-0,157486	22,730000	52,300000
3,197831	-52,589608	28,918	-0,156801	22,730000	52,300000
3,201791	-50,911295	29,118	-0,156133	22,730000	52,300000
3,205817	-48,110425	29,319	-0,155019	22,730000	52,300000
3,209799	-46,822246	29,519	-0,154506	22,730000	52,300000
3,213790	-45,401568	29,720	-0,153940	22,730000	52,300000
3,217842	-43,963715	29,920	-0,153368	22,730000	52,300000
3,221827	-43,082846	30,120	-0,153018	22,730000	52,300000
3,225701	-41,395945	30,320	-0,152346	22,730000	52,300000
3,229812	-39,742168	30,521	-0,151688	22,710000	52,295000
3,233800	-38,170589	30,722	-0,151063	22,710000	52,295000
3,237789	-36,426027	30,923	-0,150368	22,710000	52,295000
3,241782	-34,821323	31,123	-0,149729	22,710000	52,295000
3,245829	-33,235023	31,325	-0,149098	22,710000	52,295000
3,249824	-31,887955	31,526	-0,148562	22,710000	52,295000
3,253840	-29,967955	31,726	-0,147798	22,710000	52,295000
3,257767	-28,298229	31,927	-0,147133	22,710000	52,295000
3,261812	-27,167085	32,127	-0,146683	22,710000	52,295000
3,265779	-25,389398	32,327	-0,145976	22,710000	52,295000
3,269770	-23,793283	32,527	-0,145340	22,720000	52,295000
3,273771	-22,522279	32,727	-0,144834	22,720000	52,295000
3,277828	-20,652579	32,927	-0,144090	22,720000	52,295000
3,281773	-17,717984	33,128	-0,142922	22,720000	52,295000
3,285773	-15,898585	33,329	-0,142198	22,720000	52,295000
3,289763	-14,469319	33,529	-0,141629	22,720000	52,295000
3,293743	-13,795786	33,730	-0,141361	22,720000	52,295000
3,297847	-12,025459	33,931	-0,140657	22,720000	52,295000
3,301755	-10,404807	34,132	-0,140012	22,720000	52,295000
3,305784	-7,421139	34,333	-0,138824	22,720000	52,295000
3,309789	-5,551439	34,533	-0,138080	22,720000	52,295000
3,313804	-5,244730	34,733	-0,137958	22,720000	52,295000
3,317744	-3,390978	34,934	-0,137220	22,720000	52,295000
3,321864	-1,521278	35,134	-0,136476	22,720000	52,295000
3,325781	1,337253	35,334	-0,135338	22,720000	52,295000
3,329840	2,102799	35,535	-0,135034	22,720000	52,295000
3,333827	4,919618	35,736	-0,133913	22,720000	52,295000
3,337801	5,683937	35,936	-0,133608	22,720000	52,295000
3,341782	7,329126	36,136	-0,132954	22,720000	52,295000
3,345763	10,479644	36,336	-0,131700	22,720000	52,295000
3,349785	11,983747	36,537	-0,131101	22,730000	52,300000
3,353761	12,963990	36,737	-0,130711	22,730000	52,300000
3,357740	15,092553	36,937	-0,129864	22,730000	52,300000
3,361776	17,693448	37,137	-0,128829	22,730000	52,300000
3,365761	18,217307	37,337	-0,128620	22,730000	52,300000
3,369775	20,435429	37,538	-0,127737	22,730000	52,300000
3,373801	21,648771	37,739	-0,127254	22,730000	52,300000
3,377791	24,275430	37,940	-0,126209	22,730000	52,300000
3,381782	25,753769	38,142	-0,125621	22,730000	52,300000
3,385697	27,515507	38,342	-0,124919	22,730000	52,300000
3,389748	29,103035	38,544	-0,124288	22,720000	52,270000
3,393803	30,973962	38,745	-0,123543	22,720000	52,270000
3,397689	17,477524	38,946	-0,128915	22,720000	52,270000
3,401740	4,820244	39,146	-0,133952	22,720000	52,270000
3,405775	4,836193	39,347	-0,133946	22,720000	52,270000
3,409728	6,108423	39,548	-0,133439	22,720000	52,270000
3,413706	7,978123	39,749	-0,132695	22,720000	52,270000
3,417777	9,997497	39,951	-0,131892	22,720000	52,270000
3,421708	11,842661	40,151	-0,131157	22,720000	52,270000
3,425721	15,000540	40,352	-0,129900	22,720000	52,270000
3,429770	16,621192	40,553	-0,129255	22,730000	52,290000
3,433741	19,022113	40,754	-0,128300	22,730000	52,290000
3,437755	21,324886	40,954	-0,127383	22,730000	52,290000
3,441733	23,003200	41,154	-0,126715	22,730000	52,290000
3,445728	25,105999	41,355	-0,125878	22,730000	52,290000
3,449744	26,502140	41,555	-0,125323	22,730000	52,290000
3,453679	28,547277	41,755	-0,124509	22,730000	52,290000
3,457746	30,117629	41,955	-0,123884	22,730000	52,290000
3,461704	31,139585	42,156	-0,123477	22,730000	52,290000
3,465720	33,350345	42,356	-0,122597	22,730000	52,290000
3,469736	34,314640	42,557	-0,122213	22,730000	52,290000
3,473732	33,915917	42,758	-0,122372	22,730000	52,290000
3,477732	35,918116	42,960	-0,121575	22,730000	52,290000
3,481761	35,902167	43,160	-0,121582	22,730000	52,290000
3,485709	36,449337	43,361	-0,121364	22,730000	52,290000
3,489784	37,613605	43,561	-0,120900	22,730000	52,290000
3,493715	39,275970	43,762	-0,120239	22,730000	52,290000
3,497715	42,117325	43,963	-0,119108	22,730000	52,290000
3,501772	42,374961	44,163	-0,119005	22,730000	52,290000
3,505730	44,021376	44,364	-0,118350	22,720000	52,260000
3,509668	47,470016	44,565	-0,116978	22,720000	52,260000
3,513700	48,366834	44,765	-0,116621	22,720000	52,260000
3,517723	51,525940	44,965	-0,115363	22,720000	52,260000
3,521717	53,512190	45,165	-0,114573	22,720000	52,260000
3,525698	55,722951	45,367	-0,113693	22,720000	52,260000
3,529680	56,104497	45,567	-0,113541	22,720000	52,260000
3,533698	58,572894	45,767	-0,112559	22,720000	52,260000
3,537679	61,871859	45,967	-0,111246	22,720000	52,260000
3,541688	64,190582	46,168	-0,110323	22,720000	52,260000
3,545721	64,996614	46,368	-0,110002	22,720000	52,260000
3,549732	67,889496	46,570	-0,108851	22,720000	52,260000
3,553737	69,750609	46,770	-0,108110	22,720000	52,260000
3,557648	72,609139	46,971	-0,106972	22,720000	52,260000
3,561684	74,412590	47,171	-0,106254	22,720000	52,260000
3,565743	76,390252	47,372	-0,105467	22,720000	52,260000
3,569734	79,382508	47,572	-0,104276	22,720000	52,260000
3,573772	81,576093	47,772	-0,103403	22,720000	52,260000
3,577794	83,105959	47,972	-0,102794	22,720000	52,260000
3,581699	86,272427	48,173	-0,101534	22,720000	52,260000
3,585728	87,269845	48,375	-0,101137	22,720000	52,285000
3,589673	91,025194	48,577	-0,099643	22,720000	52,285000
3,593773	91,764977	48,777	-0,099348	22,720000	52,285000
3,597696	94,341336	48,977	-0,098323	22,720000	52,285000
3,601721	96,320224	49,178	-0,097535	22,720000	52,285000
3,605712	98,339598	49,378	-0,096731	22,720000	52,285000
3,609727	100,832532	49,578	-0,095739	22,720000	52,285000
3,613727	104,430846	49,778	-0,094307	22,720000	52,285000
3,617722	107,066092	49,978	-0,093258	22,720000	52,285000
3,621707	107,771524	50,179	-0,092978	22,720000	52,285000
3,625727	111,345301	50,380	-0,091555	22,720000	52,285000
3,625740	110,880329	50,580	-0,091740	22,720000	52,285000
3,625705	110,314757	50,780	-0,091965	22,720000	52,285000
3,625711	110,182259	50,980	-0,092018	22,720000	52,285000
3,625666	109,916035	51,181	-0,092124	22,720000	52,285000
3,625657	109,750412	51,382	-0,092190	22,720000	52,285000
3,625714	109,666987	51,583	-0,092223	22,720000	52,285000
3,625762	109,226553	51,784	-0,092398	22,720000	52,285000
3,625682	109,325927	51,984	-0,092359	22,720000	52,285000
3,625760	109,085466	52,185	-0,092455	22,720000	52,285000
3,625723	109,017990	52,385	-0,092481	22,720000	52,285000
3,625739	108,802067	52,586	-0,092567	22,720000	52,285000
3,625718	108,678156	52,786	-0,092617	22,720000	52,285000
3,625695	108,453645	52,986	-0,092706	22,720000	52,285000
3,625681	108,253671	53,188	-0,092786	22,720000	52,285000
3,625755	108,361632	53,389	-0,092743	22,720000	52,285000
3,625759	107,987447	53,590	-0,092892	22,720000	52,285000
3,625714	108,103997	53,790	-0,092845	22,720000	52,285000
3,625777	108,046335	53,990	-0,092868	22,720000	52,285000
3,625709	107,738399	54,190	-0,092991	22,720000	52,285000
3,625732	107,830412	54,390	-0,092954	22,730000	52,275000
3,625733	107,372802	54,590	-0,093136	22,730000	52,275000
3,625696	107,555600	54,790	-0,093063	22,730000	52,275000
3,625697	107,315140	54,991	-0,093159	22,730000	52,275000
3,625696	107,414514	55,191	-0,093120	22,730000	52,275000
3,625701	107,613262	55,391	-0,093041	22,730000	52,275000
3,625762	107,423102	55,592	-0,093116	22,730000	52,275000
3,625730	107,282016	55,793	-0,093172	22,730000	52,275000
3,625660	107,423102	55,993	-0,093116	22,730000	52,275000
3,625719	107,240303	56,193	-0,093189	22,730000	52,275000
3,625724	107,240303	56,394	-0,093189	22,730000	52,275000
3,625706	106,982667	56,594	-0,093292	22,730000	52,275000
3,625648	107,397338	56,795	-0,093126	22,730000	52,275000
3,625707	106,998616	56,995	-0,093285	22,730000	52,275000
3,625693	106,749568	57,196	-0,093384	22,730000	52,275000
3,625711	106,575357	57,396	-0,093454	22,730000	52,275000
3,625690	106,707856	57,596	-0,093401	22,730000	52,275000
3,625709	106,326309	57,797	-0,093553	22,730000	52,275000
3,625671	106,575357	57,999	-0,093454	22,730000	52,275000
3,625693	106,458808	58,199	-0,093500	22,730000	52,275000
3,625721	106,666143	58,399	-0,093417	22,720000	52,270000
3,625693	106,690680	58,600	-0,093408	22,720000	52,270000
3,625712	106,982667	58,800	-0,093292	22,720000	52,270000
3,625711	106,658782	59,000	-0,093420	22,720000	52,270000
3,625737	106,392558	59,201	-0,093526	22,720000	52,270000
3,625771	106,242884	59,401	-0,093586	22,720000	52,270000
3,625688	106,408507	59,602	-0,093520	22,720000	52,270000
3,625711	106,250245	59,803	-0,093583	22,720000	52,270000
3,625694	106,359434	60,003	-0,093540	22,720000	52,270000
3,625703	106,284597	60,204	-0,093569	22,720000	52,270000
3,625713	106,425683	60,404	-0,093513	22,720000	52,270000
3,621724	104,547395	60,604	-0,094261	22,720000	52,270000
3,617701	102,137887	60,804	-0,095220	22,720000	52,270000
3,613750	98,854870	61,004	-0,096526	22,720000	52,270000
3,609699	96,377886	61,206	-0,097512	22,720000	52,270000
3,605732	94,208837	61,407	-0,098375	22,720000	52,270000
3,601721	91,623891	61,607	-0,099404	22,720000	52,270000
3,597731	88,716287	61,808	-0,100562	22,720000	52,270000
3,593651	86,114165	62,008	-0,101597	22,720000	52,270000
3,589718	83,629819	62,208	-0,102586	22,720000	52,270000
3,585729	80,928323	62,408	-0,103661	22,710000	52,260000
3,581744	76,673651	62,610	-0,105354	22,710000	52,260000
3,577661	75,660284	62,812	-0,105758	22,710000	52,260000
3,573722	73,075338	63,012	-0,106787	22,710000	52,260000
3,569744	70,673190	63,213	-0,107743	22,710000	52,260000
3,565740	68,063707	63,414	-0,108781	22,710000	52,260000
3,561738	64,390556	63,614	-0,110243	22,710000	52,260000
3,557722	61,772485	63,815	-0,111285	22,710000	52,260000
3,553768	60,592268	64,015	-0,111755	22,710000	52,260000
3,549696	56,753494	64,215	-0,113283	22,710000	52,260000
3,545774	55,307053	64,416	-0,113858	22,710000	52,310000
3,541730	51,451103	64,616	-0,115393	22,710000	52,310000
3,537743	49,497978	64,816	-0,116170	22,710000	52,310000
3,533718	48,068713	65,016	-0,116739	22,710000	52,310000
3,529683	44,902246	65,216	-0,118000	22,710000	52,310000
3,525723	42,167625	65,416	-0,119088	22,710000	52,310000
3,521709	40,672111	65,616	-0,119683	22,710000	52,310000
3,517701	38,344800	65,816	-0,120609	22,710000	52,310000
3,513687	34,845860	66,016	-0,122002	22,710000	52,310000
3,509722	32,319802	66,217	-0,123007	22,710000	52,310000
3,505747	29,767981	66,418	-0,124023	22,710000	52,310000
3,501722	28,887111	66,618	-0,124374	22,710000	52,310000
3,497694	26,460427	66,819	-0,125339	22,710000	52,310000
3,493724	23,601896	67,020	-0,126477	22,710000	52,310000
3,489737	20,477142	67,221	-0,127721	22,710000	52,310000
3,485716	18,631978	67,422	-0,128455	22,710000	52,310000
3,481798	15,366137	67,623	-0,129755	22,710000	52,310000
3,477747	14,036246	67,824	-0,130284	22,710000	52,310000
3,473726	11,942034	68,024	-0,131118	22,710000	52,310000
3,469758	9,473638	68,224	-0,132100	22,710000	52,310000
3,465780	6,930404	68,426	-0,133112	22,720000	52,295000
3,461753	5,194429	68,627	-0,133803	22,720000	52,295000
3,457710	2,359208	68,827	-0,134932	22,720000	52,295000
3,453794	-0,872281	69,028	-0,136218	22,720000	52,295000
3,449753	-2,393560	69,228	-0,136823	22,720000	52,295000
3,445781	-4,446058	69,428	-0,137640	22,720000	52,295000
3,441797	-7,031005	69,630	-0,138669	22,720000	52,295000
3,437774	-9,233178	69,830	-0,139545	22,720000	52,295000
3,433742	-13,197089	70,031	-0,141123	22,720000	52,295000
3,429749	-14,011709	70,231	-0,141447	22,720000	52,295000
3,425772	-16,156221	70,431	-0,142301	22,730000	52,290000
3,421816	-19,895621	70,632	-0,143789	22,730000	52,290000
3,417739	-20,809614	70,833	-0,144153	22,730000	52,290000
3,413744	-23,660784	71,034	-0,145288	22,730000	52,290000
3,409702	-26,726651	71,234	-0,146508	22,730000	52,290000
3,405803	-27,948581	71,434	-0,146994	22,730000	52,290000
3,401755	-30,126217	71,634	-0,147861	22,730000	52,290000
3,397762	-32,495240	71,834	-0,148804	22,730000	52,290000
3,393813	-35,660480	72,035	-0,150063	22,730000	52,290000
3,389745	-38,095752	72,236	-0,151033	22,730000	52,290000
3,385785	-39,924967	72,436	-0,151761	22,710000	52,320000
3,381719	-42,143088	72,636	-0,152644	22,710000	52,320000
3,377784	-43,688904	72,837	-0,153259	22,710000	52,320000
3,373748	-46,531486	73,038	-0,154390	22,710000	52,320000
3,369756	-48,209799	73,239	-0,155058	22,710000	52,320000
3,365779	-50,371486	73,439	-0,155918	22,710000	52,320000
3,361709	-52,349148	73,639	-0,156706	22,710000	52,320000
3,357800	-54,692407	73,840	-0,157638	22,710000	52,320000
3,353773	-56,870044	74,040	-0,158505	22,710000	52,320000
3,349779	-60,559143	74,240	-0,159973	22,710000	52,320000
3,345827	-61,083003	74,440	-0,160182	22,710000	52,260000
3,341791	-63,418901	74,640	-0,161111	22,710000	52,260000
3,337769	-66,742403	74,842	-0,162434	22,710000	52,260000
3,333787	-67,200014	75,042	-0,162616	22,710000	52,260000
3,329809	-69,651235	75,242	-0,163592	22,710000	52,260000
3,325772	-71,837459	75,443	-0,164462	22,710000	52,260000
3,321819	-74,629740	75,643	-0,165573	22,710000	52,260000
3,317788	-75,535146	75,843	-0,165934	22,710000	52,260000
3,313756	-77,472323	76,044	-0,166705	22,710000	52,260000
3,309839	-80,720988	76,245	-0,167998	22,710000	52,260000
3,305807	-82,973461	76,447	-0,168894	22,720000	52,285000
3,301803	-84,668950	76,649	-0,169569	22,720000	52,285000
3,297814	-86,239302	76,850	-0,170194	22,720000	52,285000
3,293838	-88,317564	77,051	-0,171021	22,720000	52,285000
3,289781	-89,048759	77,252	-0,171312	22,720000	52,285000
3,285782	-90,711124	77,453	-0,171974	22,720000	52,285000
3,281765	-92,580824	77,654	-0,172718	22,720000	52,285000
3,277819	-94,300850	77,854	-0,173402	22,720000	52,285000
3,273832	-96,062588	78,054	-0,174104	22,720000	52,285000
3,269783	-98,489273	78,254	-0,175069	22,720000	52,285000
3,265802	-98,995956	78,454	-0,175271	22,720000	52,285000
3,261846	-100,433810	78,655	-0,175843	22,720000	52,285000
3,257739	-101,779650	78,855	-0,176379	22,720000	52,285000
3,253811	-102,918155	79,055	-0,176832	22,720000	52,285000
3,249794	-103,675114	79,256	-0,177133	22,720000	52,285000
3,245817	-105,611063	79,456	-0,177904	22,720000	52,285000
3,241822	-105,952124	79,656	-0,178040	22,720000	52,285000
3,237847	-108,387396	79,856	-0,179009	22,720000	52,285000
3,233783	-108,553019	80,056	-0,179075	22,720000	52,285000
3,229836	-109,783537	80,256	-0,179564	22,720000	52,285000
3,225876	-110,922042	80,457	-0,180018	22,730000	52,325000
3,221782	-113,514349	80,658	-0,181049	22,730000	52,325000
3,217811	-115,426988	80,859	-0,181811	22,730000	52,325000
3,213815	-115,799947	81,059	-0,181959	22,730000	52,325000
3,209782	-117,827909	81,260	-0,182766	22,730000	52,325000
3,205848	-119,706197	81,460	-0,183514	22,730000	52,325000
3,201838	-122,731578	81,660	-0,184718	22,730000	52,325000
3,197852	-124,900626	81,861	-0,185581	22,730000	52,325000
3,193807	-126,670952	82,061	-0,186286	22,730000	52,325000
3,189902	-128,490352	82,262	-0,187010	22,730000	52,325000
3,185857	-130,634864	82,463	-0,187863	22,720000	52,285000
3,181790	-132,812500	82,665	-0,188730	22,720000	52,285000
3,177799	-133,951005	82,866	-0,189183	22,720000	52,285000
3,173815	-136,351926	83,067	-0,190139	22,720000	52,285000
3,169842	-136,943261	83,268	-0,190374	22,720000	52,285000
3,165817	-139,643530	83,469	-0,191449	22,720000	52,285000
3,161774	-141,638368	83,669	-0,192243	22,720000	52,285000
3,157788	-144,023339	83,870	-0,193192	22,720000	52,285000
3,153774	-144,613448	84,070	-0,193427	22,720000	52,285000
3,149837	-147,297768	84,270	-0,194495	22,720000	52,285000
3,145796	-148,777334	84,470	-0,195084	22,720000	52,295000
3,141805	-151,253092	84,670	-0,196069	22,720000	52,295000
3,137845	-153,921463	84,870	-0,197131	22,720000	52,295000
3,133808	-156,031623	85,070	-0,197971	22,720000	52,295000
3,129833	-156,846243	85,271	-0,198295	22,720000	52,295000
3,125846	-159,913336	85,471	-0,199516	22,720000	52,295000
3,121828	-161,109503	85,671	-0,199992	22,720000	52,295000
3,117796	-163,852711	85,872	-0,201084	22,720000	52,295000
3,113838	-164,724992	86,073	-0,201431	22,720000	52,295000
3,109828	-167,658360	86,274	-0,202599	22,720000	52,295000
3,105824	-168,166271	86,474	-0,202801	22,710000	52,295000
3,101806	-171,614910	86,674	-0,204173	22,710000	52,295000
3,097822	-173,691946	86,874	-0,205000	22,710000	52,295000
3,093802	-174,323767	87,074	-0,205251	22,710000	52,295000
3,089761	-176,210643	87,274	-0,206002	22,710000	52,295000
3,085828	-179,368522	87,474	-0,207259	22,710000	52,295000
3,081776	-180,049417	87,674	-0,207530	22,710000	52,295000
3,077809	-183,141047	87,874	-0,208761	22,710000	52,295000
3,073806	-183,864881	88,074	-0,209049	22,710000	52,295000
3,069792	-187,113546	88,275	-0,210342	22,710000	52,295000
3,065828	-188,916997	88,475	-0,211060	22,710000	52,295000
3,061820	-191,044333	88,675	-0,211906	22,710000	52,295000
3,057859	-191,178058	88,875	-0,211959	22,710000	52,295000
3,053883	-192,972921	89,075	-0,212674	22,710000	52,295000
3,049831	-196,363900	89,276	-0,214023	22,710000	52,295000
3,045834	-198,009088	89,477	-0,214678	22,710000	52,295000
3,041837	-199,821127	89,677	-0,215399	22,710000	52,295000
3,037903	-201,067594	89,877	-0,215896	22,710000	52,295000
3,033849	-201,865038	90,077	-0,216213	22,710000	52,295000
3,029873	-204,732157	90,277	-0,217354	22,710000	52,295000
3,025860	-206,336860	90,478	-0,217993	22,720000	52,295000
3,021835	-207,882675	90,679	-0,218608	22,720000	52,295000
3,017845	-208,796669	90,880	-0,218972	22,720000	52,295000
3,013880	-210,765743	91,081	-0,219755	22,720000	52,295000
3,009817	-212,569194	91,283	-0,220473	22,720000	52,295000
3,005863	-213,641449	91,484	-0,220900	22,720000	52,295000
3,001848	-214,938216	91,684	-0,221416	22,720000	52,295000
2,997893	-215,777373	91,884	-0,221750	22,720000	52,295000
2,993838	-217,023840	92,084	-0,222246	22,720000	52,295000
2,989875	-218,669029	92,284	-0,222901	22,720000	52,295000
2,985881	-218,968377	92,485	-0,223020	22,730000	52,250000
2,981860	-219,906908	92,686	-0,223394	22,730000	52,250000
2,977929	-219,607559	92,887	-0,223274	22,730000	52,250000
2,973839	-218,461693	93,088	-0,222818	22,730000	52,250000
2,969840	-191,883490	93,290	-0,212240	22,730000	52,250000
2,965865	-163,793823	93,492	-0,201061	22,730000	52,250000
2,961914	-158,583445	93,692	-0,198987	22,730000	52,250000
2,957856	-156,938256	93,893	-0,198332	22,730000	52,250000
2,953842	-156,654856	94,094	-0,198219	22,730000	52,250000
2,949883	-155,425565	94,294	-0,197730	22,730000	52,250000
2,945858	-156,630320	94,494	-0,198209	22,720000	52,285000
2,941820	-156,165348	94,694	-0,198024	22,720000	52,285000
2,937854	-156,223010	94,895	-0,198047	22,720000	52,285000
2,933835	-156,987329	95,095	-0,198352	22,720000	52,285000
2,929846	-157,394639	95,295	-0,198514	22,720000	52,285000
2,925857	-157,502601	95,496	-0,198557	22,720000	52,285000
2,921831	-159,090128	95,696	-0,199188	22,720000	52,285000
2,917855	-159,222627	95,896	-0,199241	22,720000	52,285000
2,913850	-160,162384	96,096	-0,199615	22,720000	52,285000
2,909836	-161,583062	96,296	-0,200181	22,720000	52,285000
2,905865	-161,135266	96,496	-0,200002	22,720000	52,285000
2,901826	-161,659126	96,696	-0,200211	22,720000	52,285000
2,897863	-162,273771	96,896	-0,200456	22,720000	52,285000
2,893869	-162,298308	97,096	-0,200465	22,720000	52,285000
2,889853	-163,485886	97,297	-0,200938	22,720000	52,285000
2,885897	-162,946078	97,497	-0,200723	22,720000	52,285000
2,881844	-163,445401	97,697	-0,200922	22,720000	52,285000
2,877890	-163,229477	97,897	-0,200836	22,720000	52,285000
2,873851	-163,619612	98,097	-0,200991	22,720000	52,285000
2,869798	-163,162001	98,298	-0,200809	22,720000	52,285000
2,865853	-162,681081	98,499	-0,200618	22,730000	52,275000
2,861876	-161,300889	98,700	-0,200068	22,730000	52,275000
2,857892	-160,361132	98,901	-0,199694	22,730000	52,275000
2,853894	-159,198090	99,102	-0,199231	22,730000	52,275000
2,849882	-156,372684	99,304	-0,198107	22,730000	52,275000
2,845889	-153,853987	99,504	-0,197104	22,730000	52,275000
2,841910	-150,198012	99,705	-0,195649	22,730000	52,275000
2,837858	-141,105920	99,905	-0,192031	22,730000	52,275000
2,833898	-121,974619	100,105	-0,184417	22,730000	52,275000
2,829829	-0,731195	100,305	-0,136162	22,730000	52,275000
2,825879	-0,473559	100,506	-0,136059	22,730000	52,290000
2,821834	-0,839157	100,706	-0,136205	22,730000	52,290000
2,817859	-0,506684	100,906	-0,136072	22,730000	52,290000
2,813898	-1,006007	101,106	-0,136271	22,730000	52,290000
2,809883	-0,515272	101,307	-0,136076	22,730000	52,290000
2,805803	-0,316524	101,507	-0,135997	22,730000	52,290000
2,801824	-0,731195	101,707	-0,136162	22,730000	52,290000
2,797897	-0,623233	101,907	-0,136119	22,730000	52,290000
2,793860	-0,731195	102,107	-0,136162	22,730000	52,290000
2,789912	-0,623233	102,307	-0,136119	22,730000	52,290000
2,785885	-0,325112	102,507	-0,136000	22,710000	52,310000
2,781907	-0,731195	102,707	-0,136162	22,710000	52,310000
2,777911	-0,407310	102,907	-0,136033	22,710000	52,310000
2,773902	-0,614645	103,108	-0,136115	22,710000	52,310000
2,769824	-0,325112	103,308	-0,136000	22,710000	52,310000
2,765904	-0,506684	103,509	-0,136072	22,710000	52,310000
2,761902	-0,614645	103,709	-0,136115	22,710000	52,310000
2,757879	-0,473559	103,909	-0,136059	22,710000	52,310000
2,753870	-0,466198	104,109	-0,136056	22,710000	52,310000
2,749884	-0,814620	104,309	-0,136195	22,710000	52,310000
2,745900	-0,449022	104,511	-0,136049	22,710000	52,310000
2,741853	-0,473559	104,711	-0,136059	22,710000	52,310000
2,737908	-0,374185	104,911	-0,136020	22,710000	52,310000
2,733877	-0,349649	105,111	-0,136010	22,710000	52,310000
2,729884	-0,290760	105,312	-0,135986	22,710000	52,310000
2,725869	-0,440435	105,513	-0,136046	22,710000	52,310000
2,721926	-0,473559	105,713	-0,136059	22,710000	52,310000
2,717897	-0,431847	105,913	-0,136042	22,710000	52,310000
2,713842	-0,325112	106,114	-0,136000	22,710000	52,310000
2,709882	-0,490735	106,314	-0,136066	22,710000	52,310000
2,705882	-0,415898	106,514	-0,136036	22,730000	52,275000
2,701896	-0,431847	106,714	-0,136042	22,730000	52,275000
2,697848	-0,581521	106,914	-0,136102	22,730000	52,275000
2,693892	-0,191387	107,115	-0,135947	22,730000	52,275000
2,689917	-0,415898	107,315	-0,136036	22,730000	52,275000
2,685846	-0,224511	107,516	-0,135960	22,730000	52,275000
2,681942	-0,349649	107,716	-0,136010	22,730000	52,275000
2,677883	-0,249048	107,917	-0,135970	22,730000	52,275000
2,673898	-0,466198	108,118	-0,136056	22,730000	52,275000
2,669930	-0,499323	108,318	-0,136069	22,730000	52,275000
2,665917	-0,274812	108,519	-0,135980	22,730000	52,275000
2,661910	-0,407310	108,720	-0,136033	22,730000	52,275000
2,657892	-0,574160	108,920	-0,136099	22,730000	52,275000
2,653879	-0,357010	109,120	-0,136013	22,730000	52,275000
2,649892	-0,349649	109,320	-0,136010	22,730000	52,275000
2,645877	-0,365598	109,520	-0,136016	22,730000	52,275000
2,641907	-0,166850	109,721	-0,135937	22,730000	52,275000
2,637928	-0,249048	109,922	-0,135970	22,730000	52,275000
2,633909	-0,257636	110,123	-0,135973	22,730000	52,275000
2,629840	-0,365598	110,324	-0,136016	22,730000	52,275000
2,625884	-0,208562	110,524	-0,135954	22,720000	52,270000