File: Nanoindentation Datenauswertung/data/PDMS/EM-PDMS-50-10-50-0,8um-2
Quasi static measurement routine
Tip parameters (shape,radius, material...)
15.08.2022

Piezo position[nm]	MEMS displ.[nm]	Time[ms]	Cap [pf]	Temp [°C]	Rh [%]
eoh
2,559903	0,000000	0,214	-0,106108	22,370000	52,740000
2,562378	0,454689	0,371	-0,105923	22,370000	52,740000
2,564828	-0,195552	0,523	-0,106188	22,370000	52,740000
2,567138	-0,195552	0,674	-0,106188	22,370000	52,740000
2,569542	-0,326321	0,828	-0,106241	22,370000	52,740000
2,571921	0,000000	0,980	-0,106108	22,370000	52,740000
2,574366	-0,130768	1,130	-0,106162	22,370000	52,740000
2,576736	-0,391105	1,280	-0,106268	22,370000	52,730000
2,579191	-0,585458	1,430	-0,106347	22,370000	52,730000
2,581547	0,454689	1,581	-0,105923	22,370000	52,730000
2,583989	-0,391105	1,731	-0,106268	22,370000	52,730000
2,586342	0,000000	1,882	-0,106108	22,370000	52,730000
2,588778	-0,455889	2,032	-0,106294	22,370000	52,730000
2,591151	0,063585	2,182	-0,106083	22,370000	52,730000
2,593573	-0,260337	2,332	-0,106214	22,370000	52,730000
2,595961	0,194353	2,483	-0,106029	22,370000	52,730000
2,598372	-0,650242	2,635	-0,106373	22,370000	52,730000
2,600755	-0,130768	2,785	-0,106162	22,370000	52,730000
2,603140	0,194353	2,937	-0,106029	22,370000	52,730000
2,605507	-0,391105	3,088	-0,106268	22,370000	52,730000
2,608027	-0,716226	3,238	-0,106400	22,370000	52,755000
2,610367	-0,391105	3,388	-0,106268	22,370000	52,755000
2,612729	0,000000	3,539	-0,106108	22,370000	52,755000
2,615131	0,063585	3,690	-0,106083	22,370000	52,755000
2,617544	-0,065984	3,842	-0,106135	22,370000	52,755000
2,619950	-0,455889	3,994	-0,106294	22,370000	52,755000
2,622345	-0,585458	4,144	-0,106347	22,370000	52,755000
2,624725	-0,391105	4,295	-0,106268	22,370000	52,755000
2,627143	-0,716226	4,445	-0,106400	22,370000	52,755000
2,629578	-0,065984	4,595	-0,106135	22,370000	52,755000
2,631921	0,063585	4,746	-0,106083	22,370000	52,755000
2,634290	-0,260337	4,896	-0,106214	22,370000	52,755000
2,636731	-0,326321	5,046	-0,106241	22,370000	52,755000
2,639174	-0,195552	5,199	-0,106188	22,370000	52,755000
2,641602	0,259137	5,349	-0,106003	22,370000	52,755000
2,643968	-0,130768	5,499	-0,106162	22,370000	52,755000
2,646362	-0,391105	5,652	-0,106268	22,370000	52,755000
2,648748	-0,130768	5,846	-0,106162	22,370000	52,755000
2,651129	-0,716226	5,997	-0,106400	22,370000	52,755000
2,653530	-0,391105	6,151	-0,106268	22,370000	52,755000
2,655927	-0,391105	6,302	-0,106268	22,370000	52,755000
2,658426	0,000000	6,452	-0,106108	22,370000	52,755000
2,660767	-0,326321	6,602	-0,106241	22,370000	52,755000
2,663162	-0,260337	6,753	-0,106214	22,370000	52,755000
2,665517	-0,326321	6,903	-0,106241	22,370000	52,755000
2,667989	-0,195552	7,053	-0,106188	22,370000	52,755000
2,670371	0,323921	7,204	-0,105977	22,370000	52,715000
2,672720	0,129568	7,354	-0,106056	22,370000	52,715000
2,675136	-0,391105	7,504	-0,106268	22,370000	52,715000
2,677546	0,323921	7,655	-0,105977	22,370000	52,715000
2,679920	0,194353	7,805	-0,106029	22,370000	52,715000
2,682369	0,063585	7,955	-0,106083	22,370000	52,715000
2,684750	-0,391105	8,106	-0,106268	22,370000	52,715000
2,687132	0,129568	8,257	-0,106056	22,370000	52,715000
2,689581	-0,130768	8,408	-0,106162	22,370000	52,715000
2,691921	0,000000	8,559	-0,106108	22,370000	52,715000
2,694349	0,584258	8,710	-0,105871	22,370000	52,715000
2,696769	-0,326321	8,863	-0,106241	22,370000	52,715000
2,699137	-0,260337	9,014	-0,106214	22,370000	52,715000
2,701551	0,129568	9,165	-0,106056	22,370000	52,715000
2,703900	0,194353	9,316	-0,106029	22,370000	52,715000
2,706265	-0,391105	9,468	-0,106268	22,370000	52,715000
2,708734	0,129568	9,619	-0,106056	22,370000	52,715000
2,711120	-0,130768	9,774	-0,106162	22,370000	52,715000
2,713557	-0,391105	9,925	-0,106268	22,370000	52,715000
2,715966	0,063585	10,077	-0,106083	22,370000	52,715000
2,718300	-0,391105	10,227	-0,106268	22,370000	52,715000
2,720776	0,000000	10,377	-0,106108	22,370000	52,715000
2,723141	0,063585	10,527	-0,106083	22,370000	52,715000
2,725494	-0,130768	10,677	-0,106162	22,370000	52,715000
2,727902	-0,326321	10,827	-0,106241	22,370000	52,715000
2,730338	-0,976562	10,979	-0,106506	22,370000	52,715000
2,732728	-0,585458	11,129	-0,106347	22,370000	52,730000
2,735138	0,454689	11,281	-0,105923	22,370000	52,730000
2,737541	0,584258	11,435	-0,105871	22,370000	52,730000
2,739912	-0,781010	11,586	-0,106426	22,370000	52,730000
2,742353	-0,065984	11,736	-0,106135	22,370000	52,730000
2,744757	-0,195552	11,888	-0,106188	22,370000	52,730000
2,747089	-0,260337	12,038	-0,106214	22,370000	52,730000
2,749493	0,063585	12,189	-0,106083	22,370000	52,730000
2,751913	-0,326321	12,339	-0,106241	22,370000	52,730000
2,754356	-0,326321	12,491	-0,106241	22,370000	52,730000
2,756716	-0,455889	12,642	-0,106294	22,370000	52,730000
2,759174	0,129568	12,793	-0,106056	22,370000	52,730000
2,761541	-0,260337	12,944	-0,106214	22,370000	52,730000
2,763899	0,000000	13,094	-0,106108	22,370000	52,730000
2,766308	0,063585	13,244	-0,106083	22,370000	52,715000
2,768731	0,389905	13,395	-0,105950	22,370000	52,715000
2,771167	0,063585	13,546	-0,106083	22,370000	52,715000
2,773582	-0,065984	13,697	-0,106135	22,370000	52,715000
2,775987	-0,391105	13,852	-0,106268	22,370000	52,715000
2,778336	-0,195552	14,002	-0,106188	22,370000	52,715000
2,780757	0,129568	14,153	-0,106056	22,370000	52,715000
2,783138	-0,326321	14,303	-0,106241	22,370000	52,715000
2,785518	-0,065984	14,453	-0,106135	22,370000	52,715000
2,787894	-0,130768	14,604	-0,106162	22,370000	52,715000
2,790356	0,259137	14,754	-0,106003	22,370000	52,715000
2,792709	-0,326321	14,906	-0,106241	22,370000	52,715000
2,795124	0,000000	15,064	-0,106108	22,370000	52,715000
2,797481	-0,391105	15,215	-0,106268	22,370000	52,730000
2,799894	-0,391105	15,366	-0,106268	22,370000	52,730000
2,802352	-0,326321	15,517	-0,106241	22,370000	52,730000
2,804772	0,000000	15,667	-0,106108	22,370000	52,730000
2,807127	-1,821157	15,820	-0,106850	22,370000	52,730000
2,809518	-1,170915	15,972	-0,106585	22,370000	52,730000
2,811946	-1,300484	16,125	-0,106638	22,370000	52,730000
2,814356	-0,326321	16,279	-0,106241	22,370000	52,730000
2,816679	-0,585458	16,429	-0,106347	22,370000	52,730000
2,819122	0,323921	16,580	-0,105977	22,370000	52,730000
2,821553	0,519474	16,731	-0,105897	22,370000	52,730000
2,823920	0,713826	16,891	-0,105818	22,370000	52,730000
2,826351	0,909379	17,041	-0,105738	22,370000	52,730000
2,828735	1,169716	17,194	-0,105632	22,370000	52,730000
2,831075	1,559621	17,353	-0,105474	22,370000	52,730000
2,833549	1,819957	17,503	-0,105368	22,370000	52,730000
2,835926	1,819957	17,656	-0,105368	22,370000	52,730000
2,838329	1,884742	17,807	-0,105341	22,370000	52,730000
2,840707	2,209863	17,958	-0,105209	22,370000	52,730000
2,843132	3,055657	18,109	-0,104865	22,370000	52,730000
2,845492	2,989673	18,261	-0,104892	22,370000	52,730000
2,847887	3,314794	18,412	-0,104759	22,370000	52,730000
2,850294	3,379578	18,580	-0,104733	22,370000	52,730000
2,852708	4,160588	18,730	-0,104415	22,370000	52,730000
2,855123	3,769483	18,881	-0,104574	22,370000	52,730000
2,857529	4,810830	19,040	-0,104150	22,370000	52,730000
2,859909	4,875614	19,191	-0,104124	22,370000	52,730000
2,862343	5,134751	19,372	-0,104019	22,370000	52,730000
2,864725	5,915761	19,523	-0,103701	22,370000	52,730000
2,867155	5,655425	19,675	-0,103807	22,370000	52,730000
2,869540	6,240882	19,825	-0,103568	22,370000	52,730000
2,871902	6,305666	19,975	-0,103542	22,370000	52,730000
2,874352	6,955908	20,126	-0,103277	22,370000	52,730000
2,876681	6,760356	20,277	-0,103357	22,370000	52,730000
2,879096	7,345813	20,430	-0,103119	22,370000	52,730000
2,881533	7,410598	20,593	-0,103092	22,370000	52,730000
2,883908	8,126824	20,744	-0,102801	22,370000	52,730000
2,886355	7,931271	20,901	-0,102880	22,370000	52,730000
2,888678	8,385961	21,051	-0,102695	22,370000	52,730000
2,891116	8,516729	21,202	-0,102642	22,370000	52,740000
2,893552	8,971418	21,363	-0,102457	22,370000	52,740000
2,895933	8,775866	21,513	-0,102537	22,370000	52,740000
2,898285	9,881997	21,663	-0,102086	22,370000	52,740000
2,900700	9,816013	21,820	-0,102113	22,370000	52,740000
2,903142	10,336686	21,971	-0,101901	22,370000	52,740000
2,905557	9,751229	22,144	-0,102140	22,370000	52,740000
2,907979	10,532239	22,295	-0,101822	22,370000	52,740000
2,910320	11,246065	22,445	-0,101531	22,370000	52,740000
2,912694	11,182480	22,596	-0,101557	22,370000	52,740000
2,915142	11,831523	22,746	-0,101293	22,370000	52,740000
2,917501	11,896307	22,898	-0,101267	22,370000	52,740000
2,919892	12,546549	23,050	-0,101002	22,370000	52,740000
2,922255	13,002438	23,222	-0,100816	22,370000	52,715000
2,924726	13,977801	23,381	-0,100419	22,370000	52,715000
2,927172	14,301722	23,531	-0,100288	22,370000	52,715000
2,929529	13,587895	23,682	-0,100578	22,370000	52,715000
2,931924	13,977801	23,840	-0,100419	22,370000	52,715000
2,934339	14,042585	23,991	-0,100393	22,370000	52,715000
2,936654	14,301722	24,142	-0,100288	22,370000	52,715000
2,939100	14,692827	24,293	-0,100128	22,370000	52,715000
2,941476	14,628042	24,452	-0,100155	22,370000	52,715000
2,943910	14,692827	24,604	-0,100128	22,370000	52,715000
2,946339	15,732974	24,761	-0,099705	22,370000	52,715000
2,948681	15,993310	24,912	-0,099599	22,370000	52,715000
2,951119	15,862542	25,063	-0,099652	22,370000	52,715000
2,953526	16,122879	25,214	-0,099546	22,370000	52,715000
2,955897	16,058095	25,364	-0,099573	22,370000	52,715000
2,958323	16,708337	25,516	-0,099308	22,370000	52,715000
2,960720	17,748484	25,667	-0,098885	22,370000	52,715000
2,963109	17,293794	25,817	-0,099070	22,370000	52,715000
2,965520	17,942836	25,987	-0,098806	22,370000	52,715000
2,967967	18,788631	26,137	-0,098461	22,370000	52,715000
2,970335	18,008820	26,299	-0,098779	22,370000	52,715000
2,972706	18,203173	26,451	-0,098700	22,370000	52,715000
2,975105	18,073604	26,602	-0,098752	22,370000	52,715000
2,977527	18,918199	26,754	-0,098409	22,370000	52,715000
2,979867	19,633225	26,908	-0,098118	22,370000	52,715000
2,982299	19,633225	27,065	-0,098118	22,370000	52,715000
2,984669	19,309304	27,216	-0,098250	22,370000	52,740000
2,987122	19,699209	27,367	-0,098091	22,370000	52,740000
2,989501	19,503657	27,517	-0,098170	22,370000	52,740000
2,991936	20,153899	27,685	-0,097906	22,370000	52,740000
2,994287	20,089114	27,851	-0,097932	22,370000	52,740000
2,996700	20,868925	28,001	-0,097615	22,370000	52,740000
2,999130	20,218683	28,153	-0,097879	22,370000	52,740000
3,001496	20,414235	28,304	-0,097800	22,370000	52,740000
3,003976	20,933709	28,454	-0,097588	22,370000	52,740000
3,006329	20,414235	28,612	-0,097800	22,370000	52,740000
3,008701	20,998493	28,771	-0,097562	22,370000	52,740000
3,011145	20,998493	28,921	-0,097562	22,370000	52,740000
3,013519	21,323614	29,073	-0,097430	22,370000	52,740000
3,015903	21,258830	29,258	-0,097456	22,370000	52,730000
3,018334	21,844287	29,427	-0,097218	22,370000	52,730000
3,020734	21,844287	29,578	-0,097218	22,370000	52,730000
3,023107	22,494529	29,729	-0,096953	22,370000	52,730000
3,025527	22,884435	29,880	-0,096794	22,370000	52,730000
3,027905	22,429745	30,031	-0,096979	22,370000	52,730000
3,030271	23,469892	30,181	-0,096556	22,370000	52,730000
3,032724	23,014003	30,331	-0,096742	22,370000	52,730000
3,035121	23,924582	30,484	-0,096371	22,370000	52,730000
3,037514	23,534676	30,634	-0,096530	22,370000	52,730000
3,039916	24,314487	30,784	-0,096212	22,370000	52,730000
3,042301	24,314487	30,934	-0,096212	22,370000	52,730000
3,044685	23,924582	31,084	-0,096371	22,370000	52,730000
3,047133	24,574823	31,235	-0,096106	22,370000	52,730000
3,049512	24,899944	31,401	-0,095974	22,370000	52,730000
3,051935	25,875307	31,552	-0,095577	22,370000	52,730000
3,054369	25,810523	31,703	-0,095604	22,370000	52,730000
3,056699	25,940091	31,869	-0,095551	22,370000	52,730000
3,059108	25,810523	32,021	-0,095604	22,370000	52,730000
3,061452	26,394781	32,175	-0,095366	22,370000	52,730000
3,063944	27,370144	32,325	-0,094969	22,370000	52,730000
3,066295	27,305359	32,475	-0,094995	22,370000	52,730000
3,068756	27,500912	32,626	-0,094916	22,370000	52,730000
3,071084	28,280722	32,777	-0,094598	22,370000	52,730000
3,073510	28,670627	32,929	-0,094439	22,370000	52,730000
3,075926	29,320869	33,081	-0,094175	22,370000	52,730000
3,078250	28,735412	33,232	-0,094413	22,370000	52,740000
3,080690	30,165464	33,383	-0,093831	22,370000	52,740000
3,083052	29,581206	33,533	-0,094069	22,370000	52,740000
3,085502	30,946474	33,683	-0,093513	22,370000	52,740000
3,087845	30,621353	33,854	-0,093646	22,370000	52,740000
3,090319	31,205611	34,004	-0,093408	22,370000	52,740000
3,092693	31,205611	34,160	-0,093408	22,370000	52,740000
3,095106	30,815706	34,311	-0,093566	22,370000	52,740000
3,097450	31,205611	34,461	-0,093408	22,370000	52,740000
3,099911	31,205611	34,617	-0,093408	22,370000	52,740000
3,102281	32,766431	34,771	-0,092772	22,370000	52,740000
3,104701	31,465947	34,923	-0,093302	22,370000	52,740000
3,107177	32,116189	35,074	-0,093037	22,370000	52,740000
3,109509	32,766431	35,225	-0,092772	22,370000	52,740000
3,111847	33,091552	35,376	-0,092640	22,370000	52,740000
3,114320	32,766431	35,526	-0,092772	22,370000	52,740000
3,116687	32,831215	35,677	-0,092746	22,370000	52,740000
3,119127	32,116189	35,827	-0,093037	22,370000	52,740000
3,121533	33,806578	35,978	-0,092349	22,370000	52,740000
3,123891	34,066915	36,133	-0,092243	22,370000	52,740000
3,126331	34,262467	36,283	-0,092164	22,370000	52,740000
3,128650	34,717157	36,433	-0,091979	22,370000	52,740000
3,131090	34,912709	36,585	-0,091899	22,370000	52,740000
3,133546	35,627735	36,735	-0,091608	22,370000	52,740000
3,135914	36,213193	36,886	-0,091370	22,370000	52,740000
3,138249	36,213193	37,036	-0,091370	22,370000	52,740000
3,140678	36,797451	37,191	-0,091132	22,370000	52,715000
3,143104	36,993003	37,343	-0,091052	22,370000	52,715000
3,145573	37,708029	37,501	-0,090761	22,370000	52,715000
3,147893	37,708029	37,654	-0,090761	22,370000	52,715000
3,150309	37,643245	37,816	-0,090788	22,370000	52,715000
3,152688	38,358271	37,968	-0,090497	22,370000	52,715000
3,155097	39,073297	38,118	-0,090206	22,370000	52,715000
3,157496	39,202866	38,272	-0,090153	22,370000	52,715000
3,159913	40,373781	38,422	-0,089676	22,370000	52,715000
3,162298	40,503350	38,572	-0,089624	22,370000	52,715000
3,164683	40,503350	38,723	-0,089624	22,370000	52,715000
3,167058	40,763686	38,874	-0,089518	22,370000	52,715000
3,169481	40,308997	39,025	-0,089703	22,370000	52,715000
3,171894	41,803833	39,177	-0,089094	22,370000	52,740000
3,174283	42,064170	39,328	-0,088988	22,370000	52,740000
3,176725	42,518859	39,480	-0,088803	22,370000	52,740000
3,179108	42,193738	39,630	-0,088936	22,370000	52,740000
3,181490	42,843980	39,789	-0,088671	22,370000	52,740000
3,183874	43,884127	39,939	-0,088248	22,370000	52,740000
3,186283	44,079680	40,089	-0,088168	22,370000	52,740000
3,188660	44,013696	40,253	-0,088195	22,370000	52,740000
3,191093	44,079680	40,404	-0,088168	22,370000	52,740000
3,193481	45,314180	40,554	-0,087666	22,370000	52,740000
3,195883	45,053843	40,704	-0,087771	22,370000	52,740000
3,198252	46,354327	40,855	-0,087242	22,370000	52,740000
3,200720	46,614663	41,007	-0,087136	22,370000	52,740000
3,203111	46,614663	41,157	-0,087136	22,370000	52,715000
3,205457	46,485095	41,307	-0,087189	22,370000	52,715000
3,207881	46,614663	41,464	-0,087136	22,370000	52,715000
3,210303	47,395673	41,615	-0,086818	22,370000	52,715000
3,212670	47,719595	41,766	-0,086687	22,370000	52,715000
3,215042	48,044716	41,917	-0,086554	22,370000	52,715000
3,217430	48,044716	42,068	-0,086554	22,370000	52,715000
3,219937	48,369836	42,229	-0,086422	22,370000	52,715000
3,222272	49,605536	42,379	-0,085919	22,370000	52,715000
3,224694	49,084863	42,531	-0,086131	22,370000	52,715000
3,227072	49,930657	42,684	-0,085787	22,370000	52,715000
3,229485	49,540752	42,834	-0,085945	22,370000	52,715000
3,231923	49,475967	42,986	-0,085972	22,370000	52,715000
3,234295	49,801088	43,136	-0,085839	22,370000	52,715000
3,236694	50,451330	43,288	-0,085575	22,380000	52,715000
3,239064	50,841235	43,440	-0,085416	22,380000	52,715000
3,241513	50,451330	43,591	-0,085575	22,380000	52,715000
3,243840	50,775251	43,741	-0,085443	22,380000	52,715000
3,246306	51,425493	43,891	-0,085178	22,380000	52,715000
3,248709	52,140519	44,044	-0,084887	22,380000	52,715000
3,251064	52,140519	44,195	-0,084887	22,380000	52,715000
3,253452	52,271288	44,345	-0,084834	22,380000	52,715000
3,255848	52,596409	44,497	-0,084702	22,380000	52,715000
3,258246	53,051098	44,651	-0,084517	22,380000	52,715000
3,260655	52,466840	44,803	-0,084754	22,380000	52,715000
3,263135	52,271288	44,958	-0,084834	22,380000	52,715000
3,265441	53,117082	45,110	-0,084490	22,380000	52,715000
3,267846	53,766124	45,260	-0,084226	22,380000	52,715000
3,270294	53,896892	45,420	-0,084172	22,380000	52,715000
3,272665	54,937039	45,572	-0,083749	22,380000	52,715000
3,275112	54,547134	45,722	-0,083908	22,380000	52,715000
3,277480	55,391729	45,874	-0,083564	22,380000	52,715000
3,279899	56,041971	46,025	-0,083299	22,380000	52,715000
3,282250	55,652065	46,180	-0,083458	22,380000	52,715000
3,284663	55,846418	46,354	-0,083379	22,380000	52,715000
3,287034	56,496660	46,505	-0,083114	22,380000	52,715000
3,289477	56,496660	46,660	-0,083114	22,380000	52,715000
3,291870	57,342454	46,812	-0,082770	22,380000	52,715000
3,294255	56,756997	46,971	-0,083008	22,380000	52,715000
3,296705	57,861928	47,123	-0,082559	22,370000	52,740000
3,299057	57,536807	47,273	-0,082691	22,370000	52,740000
3,301431	58,772507	47,423	-0,082188	22,370000	52,740000
3,303837	58,902075	47,573	-0,082135	22,370000	52,740000
3,306235	58,772507	47,725	-0,082188	22,370000	52,740000
3,308686	59,357964	47,875	-0,081950	22,370000	52,740000
3,311069	60,267343	48,027	-0,081580	22,370000	52,740000
3,313481	60,072990	48,177	-0,081659	22,370000	52,740000
3,315889	60,398111	48,330	-0,081526	22,370000	52,740000
3,318279	60,527680	48,481	-0,081474	22,370000	52,740000
3,320675	60,527680	48,644	-0,081474	22,370000	52,740000
3,323053	61,373474	48,796	-0,081129	22,370000	52,740000
3,325430	61,763379	48,946	-0,080971	22,370000	52,740000
3,327843	61,828163	49,096	-0,080944	22,370000	52,740000
3,330264	62,738742	49,247	-0,080574	22,370000	52,730000
3,332649	62,803526	49,399	-0,080547	22,370000	52,730000
3,335083	63,908457	49,550	-0,080098	22,370000	52,730000
3,337423	64,493915	49,700	-0,079859	22,370000	52,730000
3,339805	63,973242	49,850	-0,080071	22,370000	52,730000
3,342294	64,104010	50,000	-0,080018	22,370000	52,730000
3,344598	65,079373	50,151	-0,079621	22,370000	52,730000
3,347034	65,663631	50,301	-0,079383	22,370000	52,730000
3,349468	65,144157	50,451	-0,079595	22,370000	52,730000
3,351845	65,923967	50,607	-0,079277	22,370000	52,730000
3,354243	66,638993	50,759	-0,078986	22,370000	52,730000
3,356648	66,638993	50,911	-0,078986	22,370000	52,730000
3,359030	67,549572	51,068	-0,078616	22,370000	52,730000
3,359803	66,899330	51,219	-0,078880	22,360000	52,740000
3,359856	67,159667	51,372	-0,078774	22,360000	52,740000
3,359857	66,769762	51,522	-0,078933	22,360000	52,740000
3,359857	65,988752	51,672	-0,079251	22,360000	52,740000
3,359882	66,769762	51,826	-0,078933	22,360000	52,740000
3,359826	66,119520	51,977	-0,079198	22,360000	52,740000
3,359841	65,794399	52,128	-0,079330	22,360000	52,740000
3,359867	65,339709	52,280	-0,079515	22,360000	52,740000
3,359848	65,598846	52,430	-0,079410	22,360000	52,740000
3,359858	65,663631	52,582	-0,079383	22,360000	52,740000
3,359851	65,144157	52,732	-0,079595	22,360000	52,740000
3,359866	65,273725	52,882	-0,079542	22,360000	52,740000
3,359849	65,273725	53,032	-0,079542	22,360000	52,740000
3,359854	65,469278	53,182	-0,079462	22,360000	52,740000
3,359898	64,819036	53,333	-0,079727	22,360000	52,740000
3,359920	65,534062	53,488	-0,079436	22,360000	52,740000
3,359859	64,883820	53,641	-0,079701	22,360000	52,740000
3,359885	64,623484	53,791	-0,079807	22,360000	52,740000
3,359866	65,534062	53,941	-0,079436	22,360000	52,740000
3,359776	64,883820	54,091	-0,079701	22,360000	52,740000
3,359825	65,469278	54,242	-0,079462	22,360000	52,740000
3,359895	64,299562	54,395	-0,079938	22,360000	52,740000
3,359875	65,208941	54,546	-0,079568	22,360000	52,740000
3,359845	65,469278	54,698	-0,079462	22,360000	52,740000
3,359892	64,948604	54,849	-0,079674	22,360000	52,740000
3,359834	65,079373	55,010	-0,079621	22,360000	52,740000
3,359833	65,013389	55,160	-0,079648	22,360000	52,725000
3,359845	64,883820	55,311	-0,079701	22,360000	52,725000
3,359869	65,208941	55,471	-0,079568	22,360000	52,725000
3,359881	63,843673	55,622	-0,080124	22,360000	52,725000
3,359867	64,104010	55,779	-0,080018	22,360000	52,725000
3,359824	64,558699	55,930	-0,079833	22,360000	52,725000
3,359863	63,583337	56,082	-0,080230	22,360000	52,725000
3,359847	64,429131	56,242	-0,079886	22,360000	52,725000
3,359830	63,973242	56,392	-0,080071	22,360000	52,725000
3,359888	64,558699	56,542	-0,079833	22,360000	52,725000
3,359843	63,649320	56,692	-0,080203	22,360000	52,725000
3,359865	64,233578	56,842	-0,079965	22,360000	52,725000
3,359836	64,039226	56,993	-0,080044	22,360000	52,725000
3,359890	63,843673	57,143	-0,080124	22,370000	52,770000
3,359882	64,039226	57,293	-0,080044	22,370000	52,770000
3,359862	64,299562	57,444	-0,079938	22,370000	52,770000
3,359805	63,649320	57,594	-0,080203	22,370000	52,770000
3,359826	64,168794	57,745	-0,079992	22,370000	52,770000
3,359821	64,233578	57,896	-0,079965	22,370000	52,770000
3,359834	63,843673	58,047	-0,080124	22,370000	52,770000
3,359880	63,649320	58,208	-0,080203	22,370000	52,770000
3,359826	63,843673	58,359	-0,080124	22,370000	52,770000
3,359814	63,973242	58,513	-0,080071	22,370000	52,770000
3,359848	63,453768	58,665	-0,080283	22,370000	52,770000
3,359864	63,128647	58,815	-0,080415	22,370000	52,770000
3,359832	62,673958	58,978	-0,080600	22,370000	52,770000
3,359839	63,193431	59,128	-0,080389	22,370000	52,770000
3,359823	62,933095	59,279	-0,080495	22,370000	52,770000
3,359871	63,258216	59,432	-0,080362	22,370000	52,770000
3,359865	63,193431	59,583	-0,080389	22,370000	52,770000
3,359852	62,999079	59,733	-0,080468	22,370000	52,770000
3,359910	63,518552	59,888	-0,080256	22,370000	52,770000
3,359810	62,607974	60,040	-0,080627	22,370000	52,770000
3,359786	63,258216	60,193	-0,080362	22,370000	52,770000
3,359866	63,193431	60,343	-0,080389	22,370000	52,770000
3,359876	63,063863	60,493	-0,080441	22,370000	52,770000
3,359892	62,478405	60,645	-0,080680	22,370000	52,770000
3,359834	62,284053	60,795	-0,080759	22,370000	52,770000
3,359890	62,607974	60,945	-0,080627	22,370000	52,770000
3,359863	62,738742	61,096	-0,080574	22,370000	52,770000
3,359895	62,803526	61,246	-0,080547	22,370000	52,730000
3,357509	61,503042	61,396	-0,081077	22,370000	52,730000
3,355065	60,333327	61,547	-0,081553	22,370000	52,730000
3,352646	60,462895	61,708	-0,081500	22,370000	52,730000
3,350280	58,968059	61,860	-0,082108	22,370000	52,730000
3,347823	59,097627	62,011	-0,082056	22,370000	52,730000
3,345421	57,277670	62,161	-0,082796	22,370000	52,730000
3,343069	56,496660	62,311	-0,083114	22,370000	52,730000
3,340632	55,716850	62,462	-0,083432	22,370000	52,730000
3,338263	55,001824	62,613	-0,083723	22,370000	52,730000
3,335838	54,416366	62,764	-0,083961	22,370000	52,730000
3,333474	53,571771	62,916	-0,084305	22,370000	52,730000
3,331038	52,336072	63,075	-0,084808	22,370000	52,730000
3,328654	51,750614	63,227	-0,085046	22,370000	52,730000
3,326262	51,556262	63,377	-0,085125	22,370000	52,730000
3,323902	50,580899	63,527	-0,085522	22,370000	52,730000
3,321431	49,475967	63,680	-0,085972	22,370000	52,730000
3,319067	48,955294	63,833	-0,086184	22,370000	52,730000
3,316644	48,044716	63,983	-0,086554	22,370000	52,730000
3,314273	47,785579	64,134	-0,086660	22,370000	52,730000
3,311848	47,525242	64,291	-0,086766	22,370000	52,730000
3,309489	46,159974	64,442	-0,087321	22,370000	52,730000
3,307055	45,899637	64,594	-0,087427	22,370000	52,730000
3,304684	45,184611	64,744	-0,087718	22,370000	52,730000
3,302289	43,948912	64,894	-0,088221	22,370000	52,730000
3,299919	43,689775	65,046	-0,088327	22,370000	52,730000
3,297483	43,494222	65,198	-0,088406	22,370000	52,730000
3,295084	43,298670	65,349	-0,088486	22,370000	52,730000
3,292712	42,258523	65,500	-0,088909	22,370000	52,730000
3,290328	42,388091	65,652	-0,088856	22,370000	52,730000
3,287813	41,478712	65,811	-0,089227	22,370000	52,730000
3,285470	40,958039	65,961	-0,089438	22,370000	52,730000
3,283086	40,243013	66,111	-0,089729	22,370000	52,730000
3,280679	40,308997	66,261	-0,089703	22,370000	52,730000
3,278291	39,268850	66,411	-0,090126	22,370000	52,730000
3,275885	38,618608	66,563	-0,090391	22,370000	52,730000
3,273458	38,033150	66,713	-0,090629	22,370000	52,730000
3,271051	37,512477	66,865	-0,090841	22,370000	52,730000
3,268643	37,643245	67,016	-0,090788	22,370000	52,730000
3,266234	36,797451	67,166	-0,091132	22,380000	52,740000
3,263862	36,147209	67,316	-0,091396	22,380000	52,740000
3,261512	35,171846	67,468	-0,091793	22,380000	52,740000
3,259067	34,521604	67,619	-0,092058	22,380000	52,740000
3,256662	34,521604	67,790	-0,092058	22,380000	52,740000
3,254293	34,781941	67,941	-0,091952	22,380000	52,740000
3,251887	33,741794	68,092	-0,092375	22,380000	52,740000
3,249482	33,026768	68,254	-0,092667	22,380000	52,740000
3,247073	33,091552	68,404	-0,092640	22,380000	52,740000
3,244664	32,961984	68,555	-0,092693	22,380000	52,740000
3,242256	31,921837	68,730	-0,093116	22,380000	52,740000
3,239834	31,791068	68,880	-0,093169	22,380000	52,740000
3,237450	30,946474	69,042	-0,093513	22,380000	52,740000
3,235085	30,361016	69,192	-0,093751	22,370000	52,715000
3,232647	30,750921	69,343	-0,093593	22,370000	52,715000
3,230331	29,841543	69,498	-0,093963	22,370000	52,715000
3,227878	29,450438	69,649	-0,094122	22,370000	52,715000
3,225493	29,320869	69,800	-0,094175	22,370000	52,715000
3,223094	27,826033	69,952	-0,094783	22,370000	52,715000
3,220680	28,345506	70,103	-0,094572	22,370000	52,715000
3,218255	27,240575	70,254	-0,095021	22,370000	52,715000
3,215876	27,370144	70,405	-0,094969	22,370000	52,715000
3,213495	26,265212	70,555	-0,095418	22,370000	52,715000
3,211093	26,394781	70,705	-0,095366	22,370000	52,715000
3,208686	26,525549	70,856	-0,095313	22,370000	52,715000
3,206292	26,590333	71,006	-0,095286	22,370000	52,715000
3,203913	25,940091	71,157	-0,095551	22,370000	52,740000
3,201472	25,810523	71,307	-0,095604	22,370000	52,740000
3,199091	25,289850	71,458	-0,095815	22,370000	52,740000
3,196738	24,574823	71,608	-0,096106	22,370000	52,740000
3,194319	24,639608	71,759	-0,096080	22,370000	52,740000
3,191866	23,664245	71,910	-0,096477	22,370000	52,740000
3,189498	23,534676	72,061	-0,096530	22,370000	52,740000
3,187087	23,405108	72,213	-0,096583	22,370000	52,740000
3,184628	22,624098	72,363	-0,096900	22,370000	52,740000
3,182290	22,688882	72,513	-0,096874	22,370000	52,740000
3,179848	22,298977	72,664	-0,097033	22,370000	52,740000
3,177562	21,454382	72,814	-0,097376	22,370000	52,740000
3,175041	21,454382	72,964	-0,097376	22,370000	52,740000
3,172692	20,479020	73,116	-0,097773	22,370000	52,740000
3,170251	21,064477	73,269	-0,097535	22,370000	52,730000
3,167853	20,673372	73,427	-0,097694	22,370000	52,730000
3,165432	19,438872	73,589	-0,098197	22,370000	52,730000
3,163091	19,178536	73,741	-0,098303	22,370000	52,730000
3,160658	19,503657	73,902	-0,098170	22,370000	52,730000
3,158259	18,528294	74,052	-0,098567	22,370000	52,730000
3,155897	18,659062	74,203	-0,098514	22,370000	52,730000
3,153513	18,593078	74,354	-0,098541	22,370000	52,730000
3,151104	18,333941	74,505	-0,098646	22,370000	52,730000
3,148703	17,878052	74,672	-0,098832	22,370000	52,730000
3,146319	17,683699	74,824	-0,098911	22,370000	52,730000
3,143907	17,293794	74,975	-0,099070	22,370000	52,730000
3,141515	16,643552	75,131	-0,099334	22,370000	52,740000
3,139158	16,122879	75,282	-0,099546	22,370000	52,740000
3,136676	14,692827	75,440	-0,100128	22,370000	52,740000
3,134261	16,122879	75,591	-0,099546	22,370000	52,740000
3,131904	15,407853	75,741	-0,099837	22,370000	52,740000
3,129480	15,212300	75,900	-0,099917	22,370000	52,740000
3,127104	14,628042	76,050	-0,100155	22,370000	52,740000
3,124705	14,432490	76,207	-0,100234	22,370000	52,740000
3,122312	13,521911	76,358	-0,100605	22,370000	52,740000
3,119921	13,977801	76,510	-0,100419	22,370000	52,740000
3,117484	13,652680	76,662	-0,100552	22,370000	52,740000
3,115039	12,742101	76,812	-0,100922	22,370000	52,740000
3,112683	11,831523	76,965	-0,101293	22,370000	52,740000
3,110323	12,091859	77,130	-0,101187	22,370000	52,740000
3,107873	11,637170	77,281	-0,101372	22,370000	52,740000
3,105468	11,506402	77,439	-0,101425	22,370000	52,740000
3,103084	10,205918	77,591	-0,101955	22,370000	52,740000
3,100710	10,922144	77,743	-0,101663	22,370000	52,740000
3,098328	10,076349	77,900	-0,102007	22,370000	52,740000
3,095900	10,401470	78,051	-0,101875	22,370000	52,740000
3,093527	9,621660	78,205	-0,102192	22,370000	52,740000
3,091072	9,426108	78,355	-0,102272	22,370000	52,740000
3,088751	8,581513	78,506	-0,102616	22,370000	52,740000
3,086319	9,361323	78,658	-0,102298	22,370000	52,740000
3,083938	9,296539	78,809	-0,102325	22,370000	52,740000
3,081470	8,190408	78,960	-0,102775	22,370000	52,740000
3,079110	7,735719	79,119	-0,102960	22,360000	52,700000
3,076734	7,670934	79,270	-0,102986	22,360000	52,700000
3,074266	7,085477	79,427	-0,103225	22,360000	52,700000
3,071918	5,980546	79,578	-0,103674	22,360000	52,700000
3,069500	6,435235	79,729	-0,103489	22,360000	52,700000
3,067151	6,630787	79,880	-0,103410	22,360000	52,700000
3,064681	5,915761	80,031	-0,103701	22,360000	52,700000
3,062244	5,461072	80,184	-0,103886	22,360000	52,700000
3,059913	6,045330	80,335	-0,103648	22,360000	52,700000
3,057512	5,850977	80,486	-0,103727	22,360000	52,700000
3,055131	5,395088	80,649	-0,103913	22,360000	52,700000
3,052678	5,915761	80,799	-0,103701	22,360000	52,700000
3,050278	4,940398	80,949	-0,104098	22,360000	52,700000
3,047887	4,225372	81,104	-0,104389	22,360000	52,700000
3,045518	4,225372	81,254	-0,104389	22,370000	52,715000
3,043087	4,029820	81,406	-0,104468	22,370000	52,715000
3,040710	3,769483	81,557	-0,104574	22,370000	52,715000
3,038267	3,900251	81,707	-0,104521	22,370000	52,715000
3,035907	3,314794	81,859	-0,104759	22,370000	52,715000
3,033497	2,795320	82,009	-0,104971	22,370000	52,715000
3,031107	2,599768	82,160	-0,105050	22,370000	52,715000
3,028690	2,599768	82,310	-0,105050	22,370000	52,715000
3,026314	2,079094	82,463	-0,105262	22,370000	52,715000
3,023886	2,145078	82,622	-0,105235	22,370000	52,715000
3,021528	1,884742	82,772	-0,105341	22,370000	52,715000
3,019085	1,884742	82,922	-0,105341	22,370000	52,715000
3,016713	1,299284	83,073	-0,105580	22,370000	52,715000
3,014285	1,755173	83,223	-0,105394	22,370000	52,730000
3,011915	1,234500	83,374	-0,105606	22,370000	52,730000
3,009523	0,974163	83,524	-0,105712	22,370000	52,730000
3,007122	1,234500	83,674	-0,105606	22,370000	52,730000
3,004685	0,063585	83,839	-0,106083	22,370000	52,730000
3,002313	0,519474	83,991	-0,105897	22,370000	52,730000
2,999920	0,194353	84,142	-0,106029	22,370000	52,730000
2,997485	-0,195552	84,295	-0,106188	22,370000	52,730000
2,995127	-0,520673	84,446	-0,106320	22,370000	52,730000
2,992662	-0,650242	84,606	-0,106373	22,370000	52,730000
2,990317	-0,976562	84,756	-0,106506	22,370000	52,730000
2,987887	-0,845794	84,907	-0,106453	22,370000	52,730000
2,985530	-1,106131	85,059	-0,106559	22,370000	52,730000
2,983126	-0,326321	85,211	-0,106241	22,370000	52,730000
2,980666	-0,195552	85,363	-0,106188	22,370000	52,730000
2,978338	-0,976562	85,521	-0,106506	22,370000	52,730000
2,975916	-1,235699	85,672	-0,106611	22,370000	52,730000
2,973487	-1,366468	85,824	-0,106665	22,370000	52,730000
2,971135	-1,235699	85,975	-0,106611	22,370000	52,730000
2,968684	-1,235699	86,128	-0,106611	22,370000	52,730000
2,966303	-2,146278	86,280	-0,106982	22,370000	52,730000
2,963947	-2,665752	86,432	-0,107193	22,370000	52,730000
2,961492	-2,600967	86,583	-0,107167	22,370000	52,730000
2,959107	-2,081494	86,754	-0,106956	22,370000	52,730000
2,956715	-2,861304	86,904	-0,107273	22,370000	52,730000
2,954361	-2,600967	87,065	-0,107167	22,370000	52,730000
2,951892	-2,992072	87,216	-0,107326	22,370000	52,700000
2,949529	-2,406615	87,368	-0,107088	22,370000	52,700000
2,947110	-2,275847	87,520	-0,107035	22,370000	52,700000
2,944704	-2,665752	87,672	-0,107193	22,370000	52,700000
2,942285	-2,341830	87,823	-0,107062	22,370000	52,700000
2,939948	-2,600967	87,973	-0,107167	22,370000	52,700000
2,937525	-2,600967	88,124	-0,107167	22,370000	52,700000
2,935123	-2,275847	88,289	-0,107035	22,370000	52,700000
2,932721	-3,315994	88,440	-0,107458	22,370000	52,700000
2,930280	-2,146278	88,591	-0,106982	22,370000	52,700000
2,927910	-2,211062	88,752	-0,107008	22,370000	52,700000
2,925485	-2,016710	88,903	-0,106929	22,370000	52,700000
2,923180	-2,081494	89,068	-0,106956	22,370000	52,700000
2,920718	-1,625605	89,220	-0,106770	22,370000	52,740000
2,918298	-1,950726	89,372	-0,106902	22,370000	52,740000
2,915946	-1,691589	89,537	-0,106797	22,370000	52,740000
2,913510	-2,211062	89,687	-0,107008	22,370000	52,740000
2,911143	-2,536183	89,853	-0,107141	22,370000	52,740000
2,908715	-2,211062	90,005	-0,107008	22,370000	52,740000
2,906253	-2,211062	90,156	-0,107008	22,370000	52,740000
2,903930	-2,341830	90,309	-0,107062	22,370000	52,740000
2,901486	-2,665752	90,459	-0,107193	22,370000	52,740000
2,899142	-2,275847	90,614	-0,107035	22,370000	52,740000
2,896708	-1,821157	90,765	-0,106850	22,370000	52,740000
2,894330	-2,471399	90,917	-0,107114	22,370000	52,740000
2,891858	-2,926088	91,069	-0,107299	22,370000	52,740000
2,889593	-2,796520	91,220	-0,107247	22,370000	52,740000
2,887081	-3,121641	91,372	-0,107379	22,370000	52,740000
2,884749	-3,641114	91,522	-0,107590	22,370000	52,740000
2,882337	-3,771883	91,674	-0,107644	22,370000	52,740000
2,879933	-3,315994	91,835	-0,107458	22,370000	52,740000
2,877499	-3,836667	91,987	-0,107670	22,370000	52,740000
2,875091	-3,901451	92,138	-0,107696	22,370000	52,740000
2,872699	-3,705899	92,302	-0,107617	22,370000	52,740000
2,870326	-3,641114	92,452	-0,107590	22,370000	52,740000
2,867948	-4,161788	92,613	-0,107802	22,370000	52,740000
2,865512	-4,941598	92,764	-0,108120	22,370000	52,740000
2,863146	-4,226572	92,915	-0,107829	22,370000	52,740000
2,860722	-3,966235	93,071	-0,107723	22,370000	52,740000
2,858347	-4,226572	93,223	-0,107829	22,370000	52,740000
2,855901	-3,966235	93,375	-0,107723	22,370000	52,740000
2,853527	-3,966235	93,526	-0,107723	22,370000	52,740000
2,851113	-4,161788	93,678	-0,107802	22,370000	52,740000
2,848720	-4,226572	93,829	-0,107829	22,370000	52,740000
2,846322	-4,356141	93,979	-0,107881	22,370000	52,740000
2,843914	-4,422125	94,133	-0,107908	22,370000	52,740000
2,841545	-4,226572	94,304	-0,107829	22,370000	52,740000
2,839154	-4,356141	94,454	-0,107881	22,370000	52,740000
2,836732	-3,966235	94,610	-0,107723	22,370000	52,740000
2,834309	-5,201935	94,762	-0,108226	22,370000	52,740000
2,831927	-5,721409	94,914	-0,108437	22,370000	52,740000
2,829511	-4,422125	95,070	-0,107908	22,370000	52,740000
2,827147	-5,266719	95,221	-0,108252	22,370000	52,740000
2,824729	-6,177298	95,372	-0,108623	22,370000	52,740000
2,822325	-6,242082	95,527	-0,108649	22,370000	52,740000
2,819911	-5,656624	95,678	-0,108411	22,370000	52,740000
2,817541	-6,177298	95,829	-0,108623	22,370000	52,740000
2,815101	-6,502419	95,979	-0,108755	22,370000	52,740000
2,812721	-5,916961	96,130	-0,108517	22,370000	52,740000
2,810332	-5,331503	96,281	-0,108278	22,370000	52,740000
2,807896	-5,331503	96,432	-0,108278	22,370000	52,740000
2,805530	-4,812030	96,583	-0,108067	22,370000	52,740000
2,803160	-5,072366	96,733	-0,108173	22,370000	52,740000
2,800739	-4,486909	96,884	-0,107935	22,370000	52,740000
2,798317	-4,876814	97,035	-0,108093	22,370000	52,740000
2,795932	-4,747245	97,187	-0,108041	22,380000	52,730000
2,793534	-4,681262	97,337	-0,108014	22,380000	52,730000
2,791153	-4,291356	97,504	-0,107855	22,380000	52,730000
2,788716	-3,901451	97,655	-0,107696	22,380000	52,730000
2,786339	-3,641114	97,823	-0,107590	22,380000	52,730000
2,783961	-3,576330	97,973	-0,107564	22,380000	52,730000
2,781522	-2,600967	98,123	-0,107167	22,380000	52,730000
2,779091	-2,275847	98,273	-0,107035	22,380000	52,730000
2,776708	-1,691589	98,424	-0,106797	22,380000	52,730000
2,774295	-0,065984	98,575	-0,106135	22,380000	52,730000
2,771981	-0,260337	98,726	-0,106214	22,380000	52,730000
2,769487	-0,130768	98,878	-0,106162	22,380000	52,730000
2,767081	-0,391105	99,057	-0,106268	22,380000	52,730000
2,764739	-0,391105	99,207	-0,106268	22,370000	52,755000
2,762390	-0,650242	99,357	-0,106373	22,370000	52,755000
2,759915	0,259137	99,510	-0,106003	22,370000	52,755000
2,757507	0,129568	99,661	-0,106056	22,370000	52,755000
2,755178	0,454689	99,823	-0,105923	22,370000	52,755000
2,752734	-0,391105	99,974	-0,106268	22,370000	52,755000
2,750368	-0,260337	100,124	-0,106214	22,370000	52,755000
2,747900	0,000000	100,274	-0,106108	22,370000	52,755000
2,745502	-0,326321	100,424	-0,106241	22,370000	52,755000
2,743148	-0,391105	100,575	-0,106268	22,370000	52,755000
2,740741	0,519474	100,732	-0,105897	22,370000	52,755000
2,738303	0,649042	100,884	-0,105844	22,370000	52,755000
2,735879	-0,781010	101,049	-0,106426	22,370000	52,755000
2,733530	-0,391105	101,201	-0,106268	22,370000	52,755000
2,731099	0,129568	101,353	-0,106056	22,370000	52,755000
2,728709	0,129568	101,521	-0,106056	22,370000	52,755000
2,726332	0,129568	101,672	-0,106056	22,370000	52,755000
2,723946	0,323921	101,822	-0,105977	22,370000	52,755000
2,721527	-0,065984	101,972	-0,106135	22,370000	52,755000
2,719153	0,129568	102,123	-0,106056	22,370000	52,755000
2,716728	0,063585	102,280	-0,106083	22,370000	52,755000
2,714346	-0,130768	102,431	-0,106162	22,370000	52,755000
2,711906	0,713826	102,582	-0,105818	22,370000	52,755000
2,709539	-0,391105	102,752	-0,106268	22,370000	52,755000
2,707140	-0,326321	102,902	-0,106241	22,370000	52,755000
2,704785	-0,391105	103,061	-0,106268	22,370000	52,755000
2,702272	0,063585	103,212	-0,106083	22,370000	52,715000
2,699935	0,129568	103,364	-0,106056	22,370000	52,715000
2,697498	0,063585	103,522	-0,106083	22,370000	52,715000
2,695165	0,063585	103,672	-0,106083	22,370000	52,715000
2,692767	0,000000	103,831	-0,106108	22,370000	52,715000
2,690352	0,000000	103,982	-0,106108	22,370000	52,715000
2,687942	-0,716226	104,133	-0,106400	22,370000	52,715000
2,685509	0,000000	104,301	-0,106108	22,370000	52,715000
2,683124	-0,391105	104,452	-0,106268	22,370000	52,715000
2,680747	-0,391105	104,619	-0,106268	22,370000	52,715000
2,678305	0,323921	104,772	-0,105977	22,370000	52,715000
2,675915	0,323921	104,924	-0,105977	22,370000	52,715000
2,673490	-0,455889	105,087	-0,106294	22,370000	52,730000
2,671183	-0,065984	105,237	-0,106135	22,370000	52,730000
2,668698	0,000000	105,387	-0,106108	22,370000	52,730000
2,666284	-0,326321	105,538	-0,106241	22,370000	52,730000
2,663945	0,000000	105,688	-0,106108	22,370000	52,730000
2,661494	-0,065984	105,858	-0,106135	22,370000	52,730000
2,659137	0,000000	106,009	-0,106108	22,370000	52,730000
2,656701	0,000000	106,159	-0,106108	22,370000	52,730000
2,654309	-0,260337	106,325	-0,106214	22,370000	52,730000
2,651977	0,000000	106,478	-0,106108	22,370000	52,730000
2,649543	0,323921	106,629	-0,105977	22,370000	52,730000
2,647127	-0,520673	106,783	-0,106320	22,370000	52,730000
2,644715	0,129568	106,935	-0,106056	22,370000	52,730000
2,642354	-0,391105	107,089	-0,106268	22,370000	52,730000
2,639966	-0,260337	107,240	-0,106214	22,370000	52,715000
2,637479	0,323921	107,391	-0,105977	22,370000	52,715000
2,635161	-0,260337	107,543	-0,106214	22,370000	52,715000
2,632757	-0,130768	107,693	-0,106162	22,370000	52,715000
2,630333	0,000000	107,860	-0,106108	22,370000	52,715000
2,627893	0,000000	108,012	-0,106108	22,370000	52,715000
2,625497	-0,391105	108,162	-0,106268	22,370000	52,715000
2,623132	-0,455889	108,330	-0,106294	22,370000	52,715000
2,620780	-0,260337	108,481	-0,106214	22,370000	52,715000
2,618370	0,129568	108,640	-0,106056	22,370000	52,715000
2,615945	0,129568	108,791	-0,106056	22,370000	52,715000
2,613535	-0,260337	108,942	-0,106214	22,370000	52,715000
2,611129	-0,326321	109,092	-0,106241	22,370000	52,715000
2,608793	-0,195552	109,244	-0,106188	22,370000	52,755000
2,606321	0,000000	109,395	-0,106108	22,370000	52,755000
2,603961	0,129568	109,565	-0,106056	22,370000	52,755000
2,601559	0,194353	109,717	-0,106029	22,370000	52,755000
2,599205	-0,391105	109,883	-0,106268	22,370000	52,755000
2,596699	0,259137	110,034	-0,106003	22,370000	52,755000
2,594341	-0,065984	110,185	-0,106135	22,370000	52,755000
2,591918	0,129568	110,336	-0,106056	22,370000	52,755000
2,589550	0,129568	110,504	-0,106056	22,370000	52,755000
2,587112	-0,326321	110,681	-0,106241	22,370000	52,755000
2,584753	-0,260337	110,832	-0,106214	22,370000	52,755000
2,582303	0,129568	110,983	-0,106056	22,370000	52,755000
2,579932	-0,130768	111,134	-0,106162	22,370000	52,730000
2,577507	-0,130768	111,286	-0,106162	22,370000	52,730000
2,575127	0,000000	111,436	-0,106108	22,370000	52,730000
2,572741	0,129568	111,586	-0,106056	22,370000	52,730000
2,570358	-0,326321	111,757	-0,106241	22,370000	52,730000
2,567922	0,063585	111,927	-0,106083	22,370000	52,730000
2,565606	0,129568	112,078	-0,106056	22,370000	52,730000
2,563116	-0,391105	112,236	-0,106268	22,370000	52,730000
2,560741	0,129568	112,387	-0,106056	22,370000	52,730000
2,559885	-0,455889	112,437	-0,106294	22,370000	52,730000