File: Nanoindentation Datenauswertung/data/PDMS/EM-PDMS-50-10-50-1um-4
Quasi static measurement routine
Tip parameters (shape,radius, material...)
24.08.2022

Piezo position[nm]	MEMS displ.[nm]	Time[ms]	Cap [pf]	Temp [°C]	Rh [%]
eoh
2,633670	0,182799	0,264	-0,135226	22,710000	52,165000
2,637668	-0,008588	0,464	-0,135302	22,710000	52,165000
2,641666	-0,175438	0,664	-0,135368	22,710000	52,165000
2,645662	0,207336	0,864	-0,135216	22,710000	52,165000
2,649714	-0,290760	1,064	-0,135414	22,710000	52,165000
2,653692	-0,233099	1,264	-0,135391	22,710000	52,165000
2,657696	0,015949	1,465	-0,135292	22,710000	52,165000
2,661704	-0,133725	1,667	-0,135352	22,710000	52,165000
2,665668	-0,199974	1,868	-0,135378	22,710000	52,165000
2,669711	-0,017176	2,068	-0,135305	22,710000	52,165000
2,673693	-0,066249	2,269	-0,135325	22,710000	52,165000
2,677684	-0,050300	2,470	-0,135318	22,710000	52,165000
2,681671	-0,307936	2,672	-0,135421	22,710000	52,165000
2,685744	0,249048	2,873	-0,135199	22,710000	52,165000
2,689705	-0,050300	3,074	-0,135318	22,710000	52,165000
2,693718	-0,274812	3,274	-0,135408	22,710000	52,165000
2,697690	-0,125137	3,475	-0,135348	22,710000	52,165000
2,701701	-0,142313	3,675	-0,135355	22,710000	52,165000
2,705677	-0,142313	3,877	-0,135355	22,710000	52,165000
2,709720	-0,224511	4,077	-0,135388	22,710000	52,165000
2,713682	-0,249048	4,277	-0,135397	22,710000	52,165000
2,717701	-0,299348	4,477	-0,135417	22,710000	52,165000
2,721712	-0,050300	4,677	-0,135318	22,710000	52,165000
2,725773	-0,142313	4,879	-0,135355	22,710000	52,165000
2,729713	-0,107962	5,079	-0,135341	22,710000	52,165000
2,733701	-0,224511	5,280	-0,135388	22,710000	52,165000
2,737676	-0,249048	5,480	-0,135397	22,710000	52,165000
2,741671	-0,158262	5,681	-0,135361	22,710000	52,165000
2,745672	-0,391361	5,882	-0,135454	22,710000	52,165000
2,749722	-0,024537	6,083	-0,135308	22,710000	52,165000
2,753752	-0,249048	6,284	-0,135397	22,710000	52,165000
2,757686	-0,316524	6,484	-0,135424	22,710000	52,165000
2,761709	-0,365598	6,685	-0,135444	22,710000	52,165000
2,765707	-0,374185	6,886	-0,135447	22,710000	52,165000
2,769684	-0,024537	7,086	-0,135308	22,710000	52,165000
2,773694	-0,391361	7,287	-0,135454	22,710000	52,165000
2,777709	-0,482147	7,487	-0,135490	22,710000	52,165000
2,781636	-0,191387	7,688	-0,135375	22,710000	52,165000
2,785732	-0,092013	7,889	-0,135335	22,720000	52,165000
2,789706	-0,739783	8,090	-0,135593	22,720000	52,165000
2,793677	-0,274812	8,290	-0,135408	22,720000	52,165000
2,797684	-0,290760	8,491	-0,135414	22,720000	52,165000
2,801661	-0,299348	8,692	-0,135417	22,720000	52,165000
2,805641	-0,208562	8,892	-0,135381	22,720000	52,165000
2,809745	-0,290760	9,092	-0,135414	22,720000	52,165000
2,813729	-0,142313	9,292	-0,135355	22,720000	52,165000
2,817691	-0,374185	9,494	-0,135447	22,720000	52,165000
2,821700	-0,257636	9,694	-0,135401	22,720000	52,165000
2,825767	-0,391361	9,894	-0,135454	22,700000	52,160000
2,829685	-0,449022	10,094	-0,135477	22,700000	52,160000
2,833709	-0,440435	10,295	-0,135474	22,700000	52,160000
2,837761	-0,341061	10,496	-0,135434	22,700000	52,160000
2,841681	-0,440435	10,696	-0,135474	22,700000	52,160000
2,845692	-0,415898	10,897	-0,135464	22,700000	52,160000
2,849754	-0,349649	11,097	-0,135438	22,700000	52,160000
2,853737	-0,466198	11,298	-0,135484	22,700000	52,160000
2,857720	-0,299348	11,499	-0,135417	22,700000	52,160000
2,861709	-0,556984	11,700	-0,135520	22,700000	52,160000
2,865717	-0,515272	11,901	-0,135503	22,700000	52,160000
2,869725	-0,457610	12,101	-0,135480	22,700000	52,160000
2,873654	-0,590109	12,302	-0,135533	22,700000	52,160000
2,877706	-0,689483	12,503	-0,135573	22,700000	52,160000
2,881718	-0,358236	12,704	-0,135441	22,700000	52,160000
2,885715	-0,640409	12,905	-0,135553	22,700000	52,160000
2,889709	-0,399949	13,105	-0,135458	22,700000	52,160000
2,893692	-0,515272	13,305	-0,135503	22,700000	52,160000
2,897666	-0,673534	13,506	-0,135566	22,700000	52,160000
2,901741	-0,506684	13,708	-0,135500	22,700000	52,160000
2,905690	-0,698070	13,910	-0,135576	22,730000	52,185000
2,909688	-0,922582	14,110	-0,135666	22,730000	52,185000
2,913717	-0,598697	14,310	-0,135537	22,730000	52,185000
2,917710	-0,607284	14,510	-0,135540	22,730000	52,185000
2,921653	-0,523860	14,710	-0,135507	22,730000	52,185000
2,925648	-0,856332	14,912	-0,135639	22,730000	52,185000
2,929684	-0,532447	15,112	-0,135510	22,730000	52,185000
2,933671	-0,640409	15,313	-0,135553	22,730000	52,185000
2,937647	-0,615872	15,513	-0,135543	22,730000	52,185000
2,941770	-0,241687	15,713	-0,135395	22,730000	52,185000
2,945780	-0,574160	15,913	-0,135527	22,710000	52,180000
2,949672	-0,931170	16,113	-0,135669	22,710000	52,180000
2,953634	-0,906633	16,313	-0,135659	22,710000	52,180000
2,957631	-0,590109	16,514	-0,135533	22,710000	52,180000
2,961675	-0,607284	16,715	-0,135540	22,710000	52,180000
2,965701	-0,607284	16,915	-0,135540	22,710000	52,180000
2,969712	-0,823208	17,117	-0,135626	22,710000	52,180000
2,973669	-0,882096	17,318	-0,135649	22,710000	52,180000
2,977691	-0,457610	17,519	-0,135480	22,710000	52,180000
2,981632	-0,856332	17,719	-0,135639	22,710000	52,180000
2,985634	-0,598697	17,919	-0,135537	22,720000	52,165000
2,989649	-0,772908	18,120	-0,135606	22,720000	52,165000
2,993636	-0,706658	18,321	-0,135580	22,720000	52,165000
2,997646	-0,790083	18,522	-0,135613	22,720000	52,165000
3,001640	-0,798671	18,722	-0,135616	22,720000	52,165000
3,005650	-0,864920	18,922	-0,135643	22,720000	52,165000
3,009660	-0,772908	19,122	-0,135606	22,720000	52,165000
3,013595	-0,631821	19,322	-0,135550	22,720000	52,165000
3,017720	-0,947118	19,522	-0,135675	22,720000	52,165000
3,021678	-1,080844	19,722	-0,135729	22,720000	52,165000
3,025585	-0,889457	19,922	-0,135652	22,720000	52,150000
3,029664	-1,171630	20,123	-0,135765	22,720000	52,150000
3,033634	-0,947118	20,323	-0,135675	22,720000	52,150000
3,037680	-0,947118	20,523	-0,135675	22,720000	52,150000
3,041701	-1,056307	20,723	-0,135719	22,720000	52,150000
3,045612	-0,939757	20,923	-0,135672	22,720000	52,150000
3,049684	-1,072256	21,123	-0,135725	22,720000	52,150000
3,053682	-1,230518	21,323	-0,135788	22,720000	52,150000
3,057637	-1,030543	21,523	-0,135708	22,720000	52,150000
3,061656	-1,147093	21,724	-0,135755	22,720000	52,150000
3,065686	-1,014594	21,926	-0,135702	22,710000	52,150000
3,069693	-1,180217	22,126	-0,135768	22,710000	52,150000
3,073677	-1,272230	22,326	-0,135805	22,710000	52,150000
3,077626	-1,180217	22,526	-0,135768	22,710000	52,150000
3,081656	-1,396141	22,726	-0,135854	22,710000	52,150000
3,085649	-1,255055	22,927	-0,135798	22,710000	52,150000
3,089666	-1,221930	23,129	-0,135785	22,710000	52,150000
3,093708	-1,404729	23,329	-0,135857	22,710000	52,150000
3,097672	-1,197393	23,529	-0,135775	22,710000	52,150000
3,101716	-1,363016	23,730	-0,135841	22,710000	52,150000
3,105698	-1,296767	23,930	-0,135814	22,710000	52,165000
3,109628	-1,272230	24,130	-0,135805	22,710000	52,165000
3,113652	-1,470978	24,331	-0,135884	22,710000	52,165000
3,117701	-1,662365	24,531	-0,135960	22,710000	52,165000
3,121703	-1,578940	24,731	-0,135927	22,710000	52,165000
3,125642	-1,612064	24,931	-0,135940	22,710000	52,165000
3,129633	-1,147093	25,132	-0,135755	22,710000	52,165000
3,133668	-1,869700	25,332	-0,136042	22,710000	52,165000
3,137603	-68,812078	25,533	-0,162686	22,710000	52,165000
3,141648	-68,056346	25,734	-0,162385	22,710000	52,165000
3,145645	-66,244307	25,936	-0,161664	22,710000	52,165000
3,149655	-65,845585	26,136	-0,161505	22,710000	52,165000
3,153694	-64,134147	26,336	-0,160824	22,710000	52,165000
3,157670	-64,033547	26,537	-0,160784	22,710000	52,165000
3,161625	-62,945342	26,739	-0,160351	22,710000	52,165000
3,165634	-61,498901	26,939	-0,159775	22,710000	52,165000
3,169680	-60,177597	27,139	-0,159249	22,710000	52,165000
3,173612	-58,889418	27,339	-0,158736	22,710000	52,165000
3,177631	-56,329008	27,539	-0,157717	22,710000	52,165000
3,181690	-54,875206	27,741	-0,157139	22,710000	52,165000
3,185635	-53,179717	27,941	-0,156464	22,710000	52,150000
3,189608	-53,063167	28,141	-0,156417	22,710000	52,150000
3,193624	-50,935832	28,343	-0,155571	22,710000	52,150000
3,197643	-50,030426	28,546	-0,155210	22,710000	52,150000
3,201652	-48,002463	28,747	-0,154403	22,710000	52,150000
3,205651	-45,908252	28,948	-0,153570	22,710000	52,150000
3,209661	-44,968495	29,149	-0,153196	22,710000	52,150000
3,213691	-44,096213	29,350	-0,152849	22,710000	52,150000
3,217623	-42,094015	29,550	-0,152052	22,710000	52,150000
3,221657	-40,598500	29,750	-0,151457	22,710000	52,150000
3,225671	-39,293145	29,951	-0,150937	22,710000	52,150000
3,229635	-37,822167	30,151	-0,150352	22,710000	52,150000
3,233604	-36,226052	30,352	-0,149716	22,710000	52,150000
3,237628	-34,347764	30,552	-0,148969	22,710000	52,150000
3,241591	-32,636326	30,752	-0,148288	22,710000	52,150000
3,245633	-31,065974	30,952	-0,147663	22,710000	52,150000
3,249604	-29,511572	31,152	-0,147044	22,710000	52,150000
3,253682	-27,957169	31,352	-0,146425	22,710000	52,150000
3,257628	-25,880133	31,553	-0,145599	22,710000	52,150000
3,261639	-24,691328	31,755	-0,145125	22,710000	52,150000
3,265602	-22,879289	31,956	-0,144404	22,710000	52,150000
3,269632	-21,333474	32,156	-0,143789	22,710000	52,150000
3,273587	-19,738586	32,357	-0,143154	22,710000	52,150000
3,277634	-17,992796	32,557	-0,142459	22,710000	52,150000
3,281648	-15,158802	32,757	-0,141332	22,710000	52,150000
3,285621	-14,112310	32,957	-0,140915	22,710000	52,150000
3,289638	-11,818124	33,158	-0,140002	22,710000	52,150000
3,293583	-9,990136	33,360	-0,139274	22,710000	52,150000
3,297673	-8,444321	33,561	-0,138659	22,710000	52,150000
3,301637	-6,715707	33,763	-0,137971	22,710000	52,150000
3,305666	-6,332934	33,963	-0,137819	22,710000	52,150000
3,309638	-4,379809	34,164	-0,137042	22,710000	52,150000
3,313660	-2,135924	34,364	-0,136148	22,710000	52,150000
3,317637	-0,307936	34,565	-0,135421	22,710000	52,150000
3,321603	0,788856	34,765	-0,134984	22,710000	52,150000
3,325624	3,224128	34,965	-0,134015	22,710000	52,150000
3,329649	4,877905	35,165	-0,133357	22,710000	52,150000
3,333638	6,897279	35,365	-0,132553	22,710000	52,150000
3,337571	8,542468	35,566	-0,131898	22,710000	52,150000
3,341618	9,731274	35,766	-0,131425	22,710000	52,150000
3,345582	11,668450	35,967	-0,130654	22,710000	52,150000
3,349601	13,463313	36,168	-0,129940	22,710000	52,150000
3,353605	15,449562	36,368	-0,129149	22,710000	52,150000
3,357657	17,277550	36,568	-0,128422	22,710000	52,150000
3,361625	19,986407	36,769	-0,127344	22,710000	52,150000
3,365601	21,699072	36,970	-0,126662	22,710000	52,150000
3,369612	22,148094	37,171	-0,126483	22,710000	52,150000
3,373621	24,092631	37,372	-0,125709	22,710000	52,150000
3,377645	26,958523	37,572	-0,124569	22,710000	52,150000
3,381603	27,922817	37,772	-0,124185	22,710000	52,150000
3,385586	29,959367	37,973	-0,123375	22,710000	52,150000
3,389585	31,754230	38,174	-0,122660	22,710000	52,150000
3,393617	33,341758	38,374	-0,122028	22,710000	52,150000
3,397616	36,349963	38,574	-0,120831	22,710000	52,150000
3,401632	38,320263	38,775	-0,120047	22,710000	52,150000
3,405593	25,305973	38,975	-0,125227	22,710000	52,150000
3,409570	23,676733	39,176	-0,125875	22,710000	52,150000
3,413625	14,776029	39,376	-0,129417	22,710000	52,150000
3,417624	15,390674	39,576	-0,129173	22,710000	52,150000
3,421573	16,445754	39,776	-0,128753	22,710000	52,165000
3,425606	13,587223	39,977	-0,129891	22,710000	52,165000
3,429640	12,108884	40,178	-0,130479	22,710000	52,165000
3,433648	12,598392	40,379	-0,130284	22,710000	52,165000
3,437591	12,274507	40,580	-0,130413	22,710000	52,165000
3,441584	14,593230	40,781	-0,129490	22,710000	52,165000
3,445640	15,815160	40,981	-0,129004	22,710000	52,165000
3,449569	16,969614	41,181	-0,128544	22,710000	52,165000
3,453589	19,695646	41,381	-0,127459	22,710000	52,165000
3,457603	20,485729	41,582	-0,127145	22,710000	52,165000
3,461593	22,338254	41,783	-0,126408	22,730000	52,170000
3,465624	24,009206	41,984	-0,125743	22,730000	52,170000
3,469560	26,028580	42,185	-0,124939	22,730000	52,170000
3,473558	29,303009	42,386	-0,123636	22,730000	52,170000
3,477597	31,263495	42,587	-0,122855	22,730000	52,170000
3,481637	33,000697	42,788	-0,122164	22,730000	52,170000
3,485608	35,618768	42,989	-0,121122	22,730000	52,170000
3,489549	36,275126	43,190	-0,120861	22,730000	52,170000
3,493575	38,236838	43,390	-0,120080	22,730000	52,170000
3,497579	41,909989	43,590	-0,118618	22,730000	52,170000
3,501569	44,519472	43,790	-0,117580	22,710000	52,205000
3,505623	46,605096	43,992	-0,116750	22,710000	52,205000
3,509568	48,940994	44,193	-0,115820	22,710000	52,205000
3,513591	50,777569	44,394	-0,115089	22,710000	52,205000
3,517626	53,096292	44,595	-0,114166	22,710000	52,205000
3,521590	55,639526	44,795	-0,113154	22,710000	52,205000
3,525603	56,187922	44,996	-0,112936	22,710000	52,205000
3,529640	58,947079	45,196	-0,111837	22,710000	52,205000
3,533591	61,822786	45,396	-0,110693	22,710000	52,205000
3,537574	64,099796	45,596	-0,109787	22,710000	52,205000
3,541591	66,725228	45,796	-0,108742	22,710000	52,165000
3,545594	67,822020	45,996	-0,108305	22,710000	52,165000
3,549559	70,166506	46,196	-0,107372	22,710000	52,165000
3,553599	72,609139	46,398	-0,106400	22,710000	52,165000
3,557521	75,302047	46,598	-0,105328	22,710000	52,165000
3,561627	77,105498	46,798	-0,104610	22,710000	52,165000
3,565585	80,179952	46,998	-0,103387	22,710000	52,165000
3,569540	82,357589	47,198	-0,102520	22,710000	52,165000
3,573585	84,700848	47,399	-0,101587	22,710000	52,165000
3,577571	86,338676	47,599	-0,100936	22,710000	52,165000
3,581575	88,965334	47,799	-0,099890	22,710000	52,165000
3,585620	91,174868	47,999	-0,099011	22,710000	52,165000
3,589544	93,651853	48,199	-0,098025	22,710000	52,165000
3,593570	95,887151	48,399	-0,097135	22,710000	52,165000
3,597567	98,546934	48,599	-0,096077	22,710000	52,165000
3,601568	100,815356	48,799	-0,095174	22,710000	52,165000
3,605536	103,267804	49,000	-0,094198	22,710000	52,165000
3,609575	105,668724	49,202	-0,093242	22,710000	52,165000
3,613554	108,976278	49,402	-0,091926	22,710000	52,165000
3,617535	110,006821	49,603	-0,091516	22,710000	52,165000
3,621523	112,283831	49,803	-0,090609	22,700000	52,120000
3,625597	115,201250	50,003	-0,089448	22,700000	52,120000
3,629590	117,295462	50,204	-0,088615	22,700000	52,120000
3,633549	119,464510	50,405	-0,087751	22,700000	52,120000
3,633584	120,336791	50,606	-0,087404	22,700000	52,120000
3,633590	120,312255	50,807	-0,087414	22,700000	52,120000
3,633605	120,179756	51,009	-0,087467	22,700000	52,120000
3,633554	119,971194	51,209	-0,087550	22,700000	52,120000
3,633604	119,481686	51,410	-0,087745	22,700000	52,120000
3,633538	119,124676	51,611	-0,087887	22,700000	52,120000
3,633556	119,248587	51,811	-0,087837	22,720000	52,180000
3,633566	118,990951	52,012	-0,087940	22,720000	52,180000
3,633570	118,882989	52,212	-0,087983	22,720000	52,180000
3,633607	118,600817	52,414	-0,088095	22,720000	52,180000
3,633547	118,708778	52,614	-0,088052	22,720000	52,180000
3,633588	118,575053	52,814	-0,088105	22,720000	52,180000
3,633529	118,667066	53,016	-0,088069	22,720000	52,180000
3,633564	118,467091	53,218	-0,088148	22,720000	52,180000
3,633635	118,043832	53,419	-0,088317	22,720000	52,180000
3,633537	118,151794	53,621	-0,088274	22,720000	52,180000
3,633580	118,284293	53,821	-0,088221	22,720000	52,180000
3,633519	117,993532	54,021	-0,088337	22,720000	52,180000
3,633493	117,504024	54,221	-0,088532	22,720000	52,180000
3,633564	117,719947	54,422	-0,088446	22,720000	52,180000
3,633592	117,935871	54,623	-0,088360	22,720000	52,180000
3,633577	117,761660	54,823	-0,088429	22,720000	52,180000
3,633611	117,478260	55,024	-0,088542	22,720000	52,180000
3,633545	117,262337	55,224	-0,088628	22,720000	52,180000
3,633596	117,063589	55,425	-0,088707	22,720000	52,180000
3,633507	117,013289	55,625	-0,088727	22,720000	52,180000
3,633558	117,229212	55,825	-0,088641	22,710000	52,150000
3,633554	117,070950	56,026	-0,088704	22,710000	52,150000
3,633503	116,947040	56,226	-0,088753	22,710000	52,150000
3,633571	117,304050	56,427	-0,088611	22,710000	52,150000
3,633563	117,037826	56,629	-0,088717	22,710000	52,150000
3,633547	116,846439	56,829	-0,088793	22,710000	52,150000
3,633576	116,971577	57,029	-0,088744	22,710000	52,150000
3,633553	116,813315	57,230	-0,088807	22,710000	52,150000
3,633615	116,722529	57,430	-0,088843	22,710000	52,150000
3,633609	116,821902	57,631	-0,088803	22,710000	52,150000
3,633559	116,564267	57,832	-0,088906	22,700000	52,175000
3,633565	116,456305	58,032	-0,088949	22,700000	52,175000
3,633581	116,522554	58,232	-0,088922	22,700000	52,175000
3,633554	116,513966	58,433	-0,088926	22,700000	52,175000
3,633577	116,464893	58,635	-0,088945	22,700000	52,175000
3,633554	116,623155	58,836	-0,088882	22,700000	52,175000
3,633603	116,240382	59,037	-0,089035	22,700000	52,175000
3,633590	116,289455	59,238	-0,089015	22,700000	52,175000
3,633605	116,315219	59,438	-0,089005	22,700000	52,175000
3,633575	116,190081	59,639	-0,089055	22,700000	52,175000
3,633595	116,323807	59,840	-0,089001	22,720000	52,140000
3,633536	116,066171	60,041	-0,089104	22,720000	52,140000
3,633555	116,040407	60,243	-0,089114	22,720000	52,140000
3,633563	116,240382	60,443	-0,089035	22,720000	52,140000
3,629580	114,611142	60,643	-0,089683	22,720000	52,140000
3,625568	110,814080	60,845	-0,091194	22,720000	52,140000
3,621593	107,547012	61,045	-0,092495	22,720000	52,140000
3,617542	105,386552	61,246	-0,093354	22,720000	52,140000
3,613566	102,801606	61,447	-0,094383	22,720000	52,140000
3,609474	100,233835	61,648	-0,095405	22,720000	52,140000
3,605580	97,740902	61,848	-0,096397	22,730000	52,170000
3,601535	95,646690	62,049	-0,097231	22,730000	52,170000
3,597565	92,537885	62,250	-0,098468	22,730000	52,170000
3,593587	90,203213	62,450	-0,099397	22,730000	52,170000
3,589595	87,942152	62,650	-0,100297	22,730000	52,170000
3,585596	85,557180	62,851	-0,101247	22,730000	52,170000
3,581570	82,698649	63,052	-0,102384	22,730000	52,170000
3,577513	80,130879	63,252	-0,103406	22,730000	52,170000
3,573566	77,429383	63,452	-0,104481	22,730000	52,170000
3,569519	73,573434	63,653	-0,106016	22,730000	52,170000
3,565568	71,063324	63,854	-0,107015	22,720000	52,150000
3,561559	69,924819	64,054	-0,107468	22,720000	52,150000
3,557574	67,050340	64,254	-0,108612	22,720000	52,150000
3,553588	65,005202	64,455	-0,109426	22,720000	52,150000
3,549552	62,304933	64,656	-0,110501	22,720000	52,150000
3,545565	58,431807	64,856	-0,112042	22,720000	52,150000
3,541602	55,822325	65,057	-0,113081	22,720000	52,150000
3,537563	53,387052	65,259	-0,114050	22,720000	52,150000
3,533589	51,026617	65,460	-0,114990	22,720000	52,150000
3,529525	49,837812	65,660	-0,115463	22,720000	52,150000
3,525573	47,146131	65,861	-0,116534	22,710000	52,165000
3,521535	44,768520	66,062	-0,117480	22,710000	52,165000
3,517608	42,392136	66,262	-0,118426	22,710000	52,165000
3,513625	39,283331	66,462	-0,119664	22,710000	52,165000
3,509636	36,525400	66,663	-0,120761	22,710000	52,165000
3,505622	34,563688	66,865	-0,121542	22,710000	52,165000
3,501589	32,335751	67,065	-0,122429	22,710000	52,165000
3,497591	29,485808	67,265	-0,123563	22,710000	52,165000
3,493590	26,909450	67,466	-0,124588	22,710000	52,165000
3,489565	24,823826	67,667	-0,125418	22,710000	52,165000
3,485627	22,554177	67,868	-0,126322	22,720000	52,165000
3,481582	18,831953	68,069	-0,127803	22,720000	52,165000
3,477571	17,584259	68,271	-0,128300	22,720000	52,165000
3,473604	15,374725	68,471	-0,129179	22,720000	52,165000
3,469649	12,981166	68,671	-0,130132	22,720000	52,165000
3,465630	10,695568	68,871	-0,131042	22,720000	52,165000
3,461557	8,061548	69,071	-0,132090	22,720000	52,165000
3,457591	6,074072	69,273	-0,132881	22,720000	52,165000
3,453598	2,019374	69,473	-0,134495	22,720000	52,165000
3,449554	-0,548396	69,674	-0,135517	22,720000	52,165000
3,445621	-2,950544	69,875	-0,136473	22,720000	52,165000
3,441624	-5,917036	70,077	-0,137653	22,720000	52,165000
3,437591	-7,455490	70,278	-0,138266	22,720000	52,165000
3,433599	-8,651657	70,479	-0,138742	22,720000	52,165000
3,429599	-11,610788	70,680	-0,139919	22,720000	52,165000
3,425617	-14,385894	70,881	-0,141024	22,720000	52,165000
3,421604	-16,048259	71,081	-0,141686	22,720000	52,165000
3,417607	-18,939914	71,281	-0,142836	22,720000	52,165000
3,413600	-20,361819	71,481	-0,143402	22,720000	52,165000
3,409618	-23,286599	71,682	-0,144566	22,720000	52,165000
3,405593	-25,264261	71,884	-0,145354	22,710000	52,150000
3,401633	-27,774370	72,084	-0,146353	22,710000	52,150000
3,397614	-31,132224	72,286	-0,147689	22,710000	52,150000
3,393611	-31,887955	72,488	-0,147990	22,710000	52,150000
3,389595	-36,259177	72,689	-0,149729	22,710000	52,150000
3,385686	-36,915535	72,889	-0,149991	22,710000	52,150000
3,381590	-39,134883	73,090	-0,150874	22,710000	52,150000
3,377613	-42,874284	73,290	-0,152362	22,710000	52,150000
3,373644	-44,703498	73,491	-0,153090	22,710000	52,150000
3,369678	-47,495780	73,691	-0,154202	22,710000	52,150000
3,365604	-49,680777	73,891	-0,155071	22,710000	52,150000
3,361631	-50,753033	74,091	-0,155498	22,710000	52,150000
3,357577	-53,030043	74,291	-0,156404	22,710000	52,150000
3,353603	-56,819743	74,492	-0,157913	22,710000	52,150000
3,349611	-57,792625	74,694	-0,158300	22,710000	52,150000
3,345645	-61,332051	74,894	-0,159708	22,710000	52,150000
3,341661	-63,751374	75,094	-0,160671	22,710000	52,150000
3,337648	-65,471400	75,295	-0,161356	22,710000	52,150000
3,333689	-68,239145	75,495	-0,162458	22,710000	52,150000
3,329595	-69,061126	75,695	-0,162785	22,710000	52,150000
3,325581	-71,936833	75,896	-0,163929	22,710000	52,165000
3,321610	-73,482648	76,097	-0,164544	22,710000	52,165000
3,317596	-75,477485	76,298	-0,165338	22,710000	52,165000
3,313601	-77,895581	76,498	-0,166301	22,710000	52,165000
3,309716	-80,264604	76,700	-0,167244	22,710000	52,165000
3,305627	-82,317103	76,901	-0,168061	22,710000	52,165000
3,301626	-84,278816	77,101	-0,168841	22,710000	52,165000
3,297659	-86,571775	77,302	-0,169754	22,710000	52,165000
3,293616	-88,674574	77,502	-0,170591	22,710000	52,165000
3,289691	-90,735661	77,703	-0,171411	22,710000	52,165000
3,285603	-92,920658	77,903	-0,172281	22,720000	52,165000
3,281646	-95,214844	78,103	-0,173194	22,720000	52,165000
3,277631	-96,960633	78,305	-0,173889	22,720000	52,165000
3,273620	-99,253592	78,506	-0,174801	22,720000	52,165000
3,269636	-101,639791	78,706	-0,175751	22,720000	52,165000
3,265598	-105,121555	78,907	-0,177137	22,720000	52,165000
3,261647	-105,362015	79,107	-0,177232	22,720000	52,165000
3,257626	-107,764163	79,307	-0,178188	22,720000	52,165000
3,253625	-109,692751	79,507	-0,178956	22,720000	52,165000
3,249664	-113,407614	79,709	-0,180435	22,720000	52,165000
3,245697	-115,476062	79,909	-0,181258	22,720000	52,165000
3,241634	-117,453724	80,109	-0,182045	22,720000	52,165000
3,237632	-119,556523	80,310	-0,182882	22,720000	52,165000
3,233634	-121,683859	80,510	-0,183729	22,720000	52,165000
3,229655	-122,183182	80,711	-0,183927	22,720000	52,165000
3,225635	-124,409891	80,911	-0,184813	22,720000	52,165000
3,221635	-127,210761	81,112	-0,185928	22,720000	52,165000
3,217691	-128,698914	81,312	-0,186521	22,720000	52,165000
3,213649	-130,601739	81,512	-0,187278	22,720000	52,165000
3,209571	-131,865382	81,713	-0,187781	22,720000	52,165000
3,205630	-134,831874	81,913	-0,188961	22,730000	52,195000
3,201638	-135,679619	82,113	-0,189299	22,730000	52,195000
3,197730	-138,081766	82,314	-0,190255	22,730000	52,195000
3,193692	-140,059428	82,515	-0,191042	22,730000	52,195000
3,189599	-141,255594	82,715	-0,191518	22,730000	52,195000
3,185583	-143,631978	82,915	-0,192464	22,730000	52,195000
3,181623	-145,353231	83,115	-0,193149	22,730000	52,195000
3,177689	-146,342062	83,316	-0,193542	22,730000	52,195000
3,173585	-147,663366	83,516	-0,194068	22,730000	52,195000
3,169618	-148,968721	83,717	-0,194588	22,730000	52,195000
3,165655	-151,286216	83,917	-0,195510	22,710000	52,140000
3,161670	-151,096056	84,119	-0,195435	22,710000	52,140000
3,157671	-151,843200	84,320	-0,195732	22,710000	52,140000
3,153645	-153,481028	84,521	-0,196384	22,710000	52,140000
3,149651	-152,857795	84,721	-0,196136	22,710000	52,140000
3,145639	-154,377846	84,921	-0,196741	22,710000	52,140000
3,141660	-155,093092	85,122	-0,197025	22,710000	52,140000
3,137664	-157,403227	85,322	-0,197945	22,710000	52,140000
3,133698	-157,270729	85,522	-0,197892	22,710000	52,140000
3,129630	-159,896160	85,722	-0,198937	22,710000	52,140000
3,125633	-161,243228	85,923	-0,199473	22,730000	52,185000
3,121702	-161,783036	86,124	-0,199688	22,730000	52,185000
3,117678	-163,445401	86,325	-0,200350	22,730000	52,185000
3,113637	-165,281976	86,526	-0,201081	22,730000	52,185000
3,109651	-166,960290	86,726	-0,201749	22,730000	52,185000
3,105639	-169,005428	86,928	-0,202563	22,730000	52,185000
3,101692	-171,705696	87,130	-0,203637	22,730000	52,185000
3,097668	-174,066131	87,331	-0,204577	22,730000	52,185000
3,093690	-174,232981	87,532	-0,204643	22,730000	52,185000
3,089667	-177,639909	87,733	-0,205999	22,730000	52,185000
3,085646	-178,263142	87,934	-0,206247	22,720000	52,190000
3,081654	-180,058005	88,135	-0,206961	22,720000	52,190000
3,077679	-181,836919	88,335	-0,207669	22,720000	52,190000
3,073679	-183,648958	88,535	-0,208391	22,720000	52,190000
3,069689	-185,825367	88,735	-0,209257	22,720000	52,190000
3,065665	-187,304933	88,936	-0,209846	22,720000	52,190000
3,061675	-189,099796	89,136	-0,210560	22,720000	52,190000
3,057629	-192,332512	89,337	-0,211847	22,720000	52,190000
3,053692	-194,127375	89,539	-0,212561	22,720000	52,190000
3,049657	-194,576398	89,739	-0,212740	22,720000	52,190000
3,045647	-196,546698	89,940	-0,213524	22,710000	52,150000
3,041671	-199,455530	90,140	-0,214682	22,710000	52,150000
3,037658	-201,017293	90,340	-0,215303	22,710000	52,150000
3,033742	-202,961831	90,541	-0,216077	22,710000	52,150000
3,029705	-204,474521	90,741	-0,216679	22,710000	52,150000
3,025683	-205,189767	90,941	-0,216964	22,710000	52,150000
3,021676	-206,709819	91,142	-0,217569	22,710000	52,150000
3,017712	-208,471557	91,342	-0,218270	22,710000	52,150000
3,013670	-210,375609	91,544	-0,219028	22,710000	52,150000
3,009643	-212,511532	91,744	-0,219878	22,710000	52,150000
3,005698	-213,275852	91,944	-0,220182	22,710000	52,150000
3,001675	-215,053539	92,145	-0,220890	22,710000	52,150000
2,997672	-217,398025	92,347	-0,221823	22,710000	52,150000
2,993717	-218,677617	92,548	-0,222332	22,710000	52,150000
2,989709	-220,604978	92,749	-0,223099	22,710000	52,150000
2,985687	-220,838077	92,950	-0,223192	22,710000	52,150000
2,981658	-222,815739	93,152	-0,223979	22,710000	52,150000
2,977659	-222,949464	93,352	-0,224032	22,710000	52,150000
2,973709	-224,619190	93,554	-0,224697	22,710000	52,150000
2,969702	-225,035088	93,754	-0,224862	22,710000	52,150000
2,965704	-224,337017	93,954	-0,224584	22,710000	52,150000
2,961673	-223,664710	94,154	-0,224317	22,710000	52,150000
2,957767	-177,065749	94,355	-0,205771	22,710000	52,150000
2,953696	-165,656162	94,555	-0,201229	22,710000	52,150000
2,949659	-161,949886	94,756	-0,199754	22,710000	52,150000
2,945619	-159,772250	94,956	-0,198888	22,710000	52,150000
2,941691	-158,741707	95,156	-0,198478	22,710000	52,150000
2,937712	-157,902550	95,357	-0,198144	22,710000	52,150000
2,933666	-157,070754	95,558	-0,197813	22,710000	52,150000
2,929671	-156,863419	95,759	-0,197730	22,710000	52,150000
2,925678	-156,456109	95,959	-0,197568	22,700000	52,135000
2,921698	-156,572658	96,159	-0,197614	22,700000	52,135000
2,917670	-156,805757	96,359	-0,197707	22,700000	52,135000
2,913727	-157,287904	96,559	-0,197899	22,700000	52,135000
2,909739	-157,178716	96,759	-0,197855	22,700000	52,135000
2,905640	-157,287904	96,959	-0,197899	22,700000	52,135000
2,901731	-157,752876	97,160	-0,198084	22,700000	52,135000
2,897710	-157,462115	97,360	-0,197968	22,700000	52,135000
2,893677	-157,511189	97,560	-0,197988	22,700000	52,135000
2,889658	-158,492659	97,760	-0,198378	22,700000	52,135000
2,885625	-158,832493	97,960	-0,198514	22,700000	52,135000
2,881717	-158,616569	98,161	-0,198428	22,700000	52,135000
2,877679	-157,827713	98,361	-0,198114	22,700000	52,135000
2,873676	-157,328390	98,561	-0,197915	22,700000	52,135000
2,869706	-157,586026	98,761	-0,198018	22,700000	52,135000
2,865680	-156,788582	98,961	-0,197700	22,700000	52,135000
2,861693	-157,246192	99,163	-0,197882	22,700000	52,135000
2,857692	-156,123636	99,364	-0,197436	22,700000	52,135000
2,853656	-154,744671	99,564	-0,196887	22,700000	52,135000
2,849721	-150,497360	99,764	-0,195196	22,700000	52,135000
2,845666	-143,184183	99,964	-0,192286	22,710000	52,180000
2,841685	-133,493395	100,165	-0,188429	22,710000	52,180000
2,837716	-126,778914	100,365	-0,185756	22,710000	52,180000
2,833691	-117,404650	100,565	-0,182025	22,710000	52,180000
2,829701	-1,504103	100,765	-0,135897	22,710000	52,180000
2,825692	-1,288179	100,967	-0,135811	22,710000	52,180000
2,821700	-1,138505	101,167	-0,135751	22,710000	52,180000
2,817723	-1,122556	101,368	-0,135745	22,710000	52,180000
2,813692	-1,023182	101,568	-0,135706	22,710000	52,180000
2,809713	-1,305355	101,769	-0,135818	22,710000	52,190000
2,805741	-1,113968	101,969	-0,135742	22,710000	52,190000
2,801646	-1,164269	102,169	-0,135762	22,710000	52,190000
2,797696	-1,296767	102,369	-0,135814	22,710000	52,190000
2,793690	-1,089432	102,569	-0,135732	22,710000	52,190000
2,789707	-1,371604	102,769	-0,135844	22,710000	52,190000
2,785764	-1,164269	102,969	-0,135762	22,710000	52,190000
2,781628	-0,882096	103,169	-0,135649	22,710000	52,190000
2,777712	-1,239106	103,369	-0,135792	22,710000	52,190000
2,773651	-1,347067	103,570	-0,135834	22,710000	52,190000
2,769701	-1,305355	103,770	-0,135818	22,720000	52,180000
2,765695	-1,039131	103,972	-0,135712	22,720000	52,180000
2,761671	-1,239106	104,173	-0,135792	22,720000	52,180000
2,757660	-1,122556	104,374	-0,135745	22,720000	52,180000
2,753695	-1,080844	104,575	-0,135729	22,720000	52,180000
2,749731	-0,947118	104,775	-0,135675	22,720000	52,180000
2,745675	-1,072256	104,975	-0,135725	22,720000	52,180000
2,741703	-1,180217	105,175	-0,135768	22,720000	52,180000
2,737635	-0,955706	105,376	-0,135679	22,720000	52,180000
2,733745	-1,072256	105,576	-0,135725	22,720000	52,180000
2,729703	-1,030543	105,776	-0,135708	22,720000	52,165000
2,725724	-1,039131	105,977	-0,135712	22,720000	52,165000
2,721700	-1,272230	106,178	-0,135805	22,720000	52,165000
2,717730	-1,129917	106,379	-0,135748	22,720000	52,165000
2,713714	-1,147093	106,580	-0,135755	22,720000	52,165000
2,709665	-1,129917	106,780	-0,135748	22,720000	52,165000
2,705717	-0,939757	106,980	-0,135672	22,720000	52,165000
2,701670	-0,898045	107,181	-0,135656	22,720000	52,165000
2,697706	-0,889457	107,382	-0,135652	22,720000	52,165000
2,693677	-0,939757	107,582	-0,135672	22,720000	52,165000
2,689710	-1,023182	107,782	-0,135706	22,720000	52,165000
2,685674	-1,129917	107,982	-0,135748	22,720000	52,165000
2,681742	-0,922582	108,183	-0,135666	22,720000	52,165000
2,677697	-0,856332	108,383	-0,135639	22,720000	52,165000
2,673689	-1,072256	108,583	-0,135725	22,720000	52,165000
2,669725	-0,988831	108,783	-0,135692	22,720000	52,165000
2,665722	-1,221930	108,983	-0,135785	22,720000	52,165000
2,661682	-0,906633	109,184	-0,135659	22,720000	52,165000
2,657698	-0,964294	109,384	-0,135682	22,720000	52,165000
2,653706	-0,873508	109,585	-0,135646	22,720000	52,165000
2,649706	-0,814620	109,785	-0,135623	22,720000	52,165000
2,645717	-0,798671	109,986	-0,135616	22,720000	52,165000
2,641709	-1,155681	110,187	-0,135758	22,720000	52,165000
2,637744	-0,856332	110,388	-0,135639	22,720000	52,165000
2,633721	-0,814620	110,588	-0,135623	22,720000	52,165000