File: Nanoindentation Datenauswertung/data/PDMS/EM-PDMS-50-10-50-0,5um-1
Quasi static measurement routine
Tip parameters (shape,radius, material...)
12.08.2022

Piezo position[nm]	MEMS displ.[nm]	Time[ms]	Cap [pf]	Temp [°C]	Rh [%]
eoh
2,040028	-0,259137	0,185	-0,106373	22,350000	47,335000
2,041473	-0,650242	0,335	-0,106532	22,350000	47,335000
2,043059	-0,454689	0,487	-0,106453	22,350000	47,335000
2,044440	-0,454689	0,638	-0,106453	22,350000	47,335000
2,046001	-0,389905	0,792	-0,106426	22,350000	47,335000
2,047487	-0,454689	0,942	-0,106453	22,350000	47,335000
2,049029	0,260337	1,114	-0,106162	22,350000	47,335000
2,050536	-0,585458	1,265	-0,106506	22,350000	47,335000
2,052051	0,064784	1,416	-0,106241	22,350000	47,335000
2,053541	-0,129568	1,576	-0,106320	22,350000	47,335000
2,055001	-0,454689	1,726	-0,106453	22,360000	47,350000
2,056528	-0,325121	1,898	-0,106400	22,360000	47,350000
2,057981	0,195552	2,049	-0,106188	22,360000	47,350000
2,059519	0,585458	2,201	-0,106029	22,360000	47,350000
2,061002	-0,454689	2,353	-0,106453	22,360000	47,350000
2,062506	-0,064784	2,511	-0,106294	22,360000	47,350000
2,064047	-0,129568	2,662	-0,106320	22,360000	47,350000
2,065515	-0,519474	2,812	-0,106479	22,360000	47,350000
2,066972	-0,129568	2,963	-0,106320	22,360000	47,350000
2,068476	0,195552	3,114	-0,106188	22,360000	47,350000
2,070014	-0,259137	3,264	-0,106373	22,360000	47,350000
2,071501	0,064784	3,414	-0,106241	22,360000	47,350000
2,073039	-0,519474	3,565	-0,106479	22,360000	47,350000
2,074526	-0,650242	3,717	-0,106532	22,350000	47,320000
2,075926	-0,064784	3,884	-0,106294	22,350000	47,320000
2,077504	0,260337	4,034	-0,106162	22,350000	47,320000
2,079034	-0,325121	4,185	-0,106400	22,350000	47,320000
2,080523	0,000000	4,335	-0,106268	22,350000	47,320000
2,081948	-0,909379	4,487	-0,106638	22,350000	47,320000
2,083485	-0,454689	4,643	-0,106453	22,350000	47,320000
2,084977	0,325121	4,795	-0,106135	22,350000	47,320000
2,086505	-0,844595	4,946	-0,106611	22,350000	47,320000
2,088027	0,325121	5,122	-0,106135	22,350000	47,320000
2,089483	-0,064784	5,272	-0,106294	22,350000	47,320000
2,090967	-0,650242	5,424	-0,106532	22,350000	47,320000
2,092536	0,454689	5,574	-0,106083	22,350000	47,320000
2,093965	0,000000	5,725	-0,106268	22,350000	47,320000
2,095489	-0,129568	5,894	-0,106320	22,350000	47,320000
2,097011	-0,715026	6,047	-0,106559	22,350000	47,320000
2,098549	-0,650242	6,198	-0,106532	22,350000	47,320000
2,100007	-0,650242	6,349	-0,106532	22,350000	47,320000
2,101486	-0,909379	6,501	-0,106638	22,350000	47,320000
2,103030	0,130768	6,651	-0,106214	22,350000	47,320000
2,104476	-0,585458	6,801	-0,106506	22,350000	47,320000
2,105950	0,130768	6,951	-0,106214	22,350000	47,320000
2,107481	-0,519474	7,104	-0,106479	22,350000	47,320000
2,109008	-0,064784	7,255	-0,106294	22,350000	47,320000
2,110485	-0,064784	7,408	-0,106294	22,350000	47,320000
2,112000	-0,389905	7,564	-0,106426	22,350000	47,320000
2,113526	-0,194353	7,714	-0,106347	22,350000	47,350000
2,114958	-0,129568	7,865	-0,106320	22,350000	47,350000
2,116506	-0,129568	8,015	-0,106320	22,350000	47,350000
2,118008	-0,519474	8,165	-0,106479	22,350000	47,350000
2,119500	0,260337	8,315	-0,106162	22,350000	47,350000
2,120979	0,000000	8,466	-0,106268	22,350000	47,350000
2,122469	-0,519474	8,616	-0,106479	22,350000	47,350000
2,124005	-0,129568	8,768	-0,106320	22,350000	47,350000
2,125451	-0,454689	8,920	-0,106453	22,350000	47,350000
2,126987	0,000000	9,070	-0,106268	22,350000	47,350000
2,128488	0,325121	9,222	-0,106135	22,350000	47,350000
2,129983	-0,454689	9,372	-0,106453	22,350000	47,350000
2,131476	0,064784	9,522	-0,106241	22,350000	47,350000
2,132934	-0,325121	9,672	-0,106400	22,350000	47,350000
2,134514	0,000000	9,823	-0,106268	22,350000	47,350000
2,135955	0,391105	9,973	-0,106108	22,350000	47,350000
2,137475	-0,064784	10,125	-0,106294	22,350000	47,350000
2,138964	-0,650242	10,275	-0,106532	22,350000	47,350000
2,140446	0,195552	10,425	-0,106188	22,350000	47,350000
2,141994	-0,454689	10,575	-0,106453	22,350000	47,350000
2,143460	-0,519474	10,726	-0,106479	22,350000	47,350000
2,145007	0,130768	10,877	-0,106214	22,350000	47,350000
2,146432	-0,389905	11,027	-0,106426	22,350000	47,350000
2,148015	-0,454689	11,177	-0,106453	22,350000	47,350000
2,149461	-0,454689	11,329	-0,106453	22,350000	47,350000
2,151027	-0,715026	11,480	-0,106559	22,350000	47,350000
2,152464	-0,779810	11,631	-0,106585	22,360000	47,335000
2,153985	0,195552	11,781	-0,106188	22,360000	47,335000
2,155483	-0,454689	11,931	-0,106453	22,360000	47,335000
2,156979	-0,779810	12,085	-0,106585	22,360000	47,335000
2,158486	-0,454689	12,235	-0,106453	22,360000	47,335000
2,159990	-0,519474	12,386	-0,106479	22,360000	47,335000
2,161481	-0,129568	12,538	-0,106320	22,360000	47,335000
2,162962	-0,259137	12,688	-0,106373	22,360000	47,335000
2,164484	0,195552	12,840	-0,106188	22,360000	47,335000
2,165912	-0,454689	12,990	-0,106453	22,360000	47,335000
2,167543	-0,194353	13,141	-0,106347	22,360000	47,335000
2,168957	-0,650242	13,292	-0,106532	22,360000	47,335000
2,170548	0,000000	13,443	-0,106268	22,360000	47,335000
2,172038	-0,129568	13,595	-0,106320	22,360000	47,335000
2,173512	-0,389905	13,746	-0,106426	22,350000	47,350000
2,175021	-0,259137	13,896	-0,106373	22,350000	47,350000
2,176516	0,195552	14,047	-0,106188	22,350000	47,350000
2,178033	0,325121	14,198	-0,106135	22,350000	47,350000
2,179499	-0,454689	14,350	-0,106453	22,350000	47,350000
2,181018	-0,325121	14,500	-0,106400	22,350000	47,350000
2,182501	-0,519474	14,651	-0,106479	22,350000	47,350000
2,183980	-0,389905	14,802	-0,106426	22,350000	47,350000
2,185492	-0,325121	14,952	-0,106400	22,350000	47,350000
2,187000	-0,325121	15,110	-0,106400	22,350000	47,350000
2,188500	-0,650242	15,261	-0,106532	22,350000	47,350000
2,189973	0,000000	15,412	-0,106268	22,350000	47,350000
2,191474	-0,325121	15,570	-0,106400	22,350000	47,350000
2,192979	-0,129568	15,722	-0,106320	22,350000	47,350000
2,194503	-0,129568	15,873	-0,106320	22,350000	47,350000
2,196010	-0,064784	16,023	-0,106294	22,350000	47,350000
2,197511	-0,454689	16,174	-0,106453	22,350000	47,350000
2,198995	-0,064784	16,325	-0,106294	22,350000	47,350000
2,200510	-0,129568	16,475	-0,106320	22,350000	47,350000
2,201990	0,130768	16,627	-0,106214	22,350000	47,350000
2,203475	-0,779810	16,779	-0,106585	22,350000	47,350000
2,204941	-0,975363	16,930	-0,106665	22,350000	47,350000
2,206433	-0,454689	17,081	-0,106453	22,350000	47,350000
2,207987	-0,519474	17,232	-0,106479	22,350000	47,350000
2,209462	0,000000	17,383	-0,106268	22,350000	47,350000
2,211002	0,195552	17,534	-0,106188	22,350000	47,350000
2,212427	-0,259137	17,684	-0,106373	22,350000	47,350000
2,213967	-0,259137	17,837	-0,106373	22,350000	47,350000
2,215515	-6,111314	17,987	-0,108755	22,350000	47,350000
2,217025	-5,330304	18,139	-0,108437	22,350000	47,350000
2,218487	-4,031020	18,321	-0,107908	22,350000	47,350000
2,219994	-4,095804	18,471	-0,107935	22,350000	47,350000
2,221503	-2,795320	18,622	-0,107405	22,350000	47,350000
2,222944	-2,990873	18,775	-0,107485	22,350000	47,350000
2,224545	-2,340631	18,925	-0,107220	22,350000	47,350000
2,225992	-1,884742	19,077	-0,107035	22,350000	47,350000
2,227466	-1,884742	19,230	-0,107035	22,350000	47,350000
2,228958	-1,234500	19,380	-0,106770	22,350000	47,350000
2,230459	-0,389905	19,531	-0,106426	22,350000	47,350000
2,231958	-0,259137	19,682	-0,106373	22,350000	47,350000
2,233450	0,845794	19,832	-0,105923	22,350000	47,350000
2,235035	0,520673	19,982	-0,106056	22,350000	47,350000
2,236456	0,454689	20,133	-0,106083	22,350000	47,350000
2,238039	1,496036	20,300	-0,105659	22,350000	47,350000
2,239488	1,496036	20,451	-0,105659	22,350000	47,350000
2,240940	1,885941	20,601	-0,105500	22,350000	47,350000
2,242551	1,560820	20,764	-0,105632	22,350000	47,350000
2,243972	2,015510	20,915	-0,105447	22,350000	47,350000
2,245479	2,536183	21,089	-0,105235	22,350000	47,350000
2,247025	3,641114	21,241	-0,104786	22,350000	47,350000
2,248479	4,551693	21,393	-0,104415	22,350000	47,350000
2,250040	4,876814	21,544	-0,104283	22,350000	47,350000
2,251508	4,291356	21,695	-0,104521	22,350000	47,350000
2,252973	5,462272	21,846	-0,104044	22,350000	47,350000
2,254535	6,111314	22,002	-0,103780	22,350000	47,350000
2,255963	5,852177	22,153	-0,103886	22,350000	47,350000
2,257477	6,761556	22,340	-0,103516	22,350000	47,350000
2,258931	7,541366	22,491	-0,103198	22,350000	47,350000
2,260450	7,672134	22,641	-0,103145	22,350000	47,350000
2,261960	7,867687	22,803	-0,103065	22,350000	47,350000
2,263489	8,322376	22,955	-0,102880	22,350000	47,350000
2,264941	8,517928	23,153	-0,102801	22,350000	47,350000
2,266481	9,102186	23,303	-0,102563	22,350000	47,350000
2,267958	9,102186	23,455	-0,102563	22,350000	47,350000
2,269500	9,881997	23,613	-0,102246	22,350000	47,350000
2,271003	9,947981	23,764	-0,102219	22,350000	47,350000
2,272492	10,988128	23,932	-0,101795	22,350000	47,350000
2,273941	10,727791	24,083	-0,101901	22,350000	47,350000
2,275476	11,182480	24,234	-0,101716	22,350000	47,350000
2,276920	11,117696	24,418	-0,101743	22,350000	47,350000
2,278473	12,743301	24,571	-0,101081	22,350000	47,350000
2,279977	12,808085	24,749	-0,101055	22,350000	47,350000
2,281477	12,872869	24,900	-0,101028	22,350000	47,350000
2,282973	13,262774	25,051	-0,100870	22,350000	47,350000
2,284473	13,913016	25,213	-0,100605	22,350000	47,350000
2,285977	14,368905	25,363	-0,100419	22,350000	47,350000
2,287503	13,783448	25,531	-0,100658	22,350000	47,350000
2,288992	14,692827	25,684	-0,100288	22,340000	47,335000
2,290508	14,953163	25,834	-0,100182	22,340000	47,335000
2,292007	15,083932	26,011	-0,100128	22,340000	47,335000
2,293457	16,253647	26,162	-0,099652	22,340000	47,335000
2,294984	16,578768	26,314	-0,099520	22,340000	47,335000
2,296531	16,644752	26,464	-0,099493	22,340000	47,335000
2,297942	17,489347	26,614	-0,099149	22,340000	47,335000
2,299463	18,333941	26,769	-0,098806	22,340000	47,335000
2,300950	18,659062	26,919	-0,098673	22,340000	47,335000
2,302461	18,919399	27,081	-0,098567	22,340000	47,335000
2,304006	18,594278	27,233	-0,098700	22,340000	47,335000
2,305480	19,374088	27,385	-0,098382	22,340000	47,335000
2,307017	19,894762	27,539	-0,098170	22,340000	47,335000
2,308503	20,545003	27,690	-0,097906	22,360000	47,335000
2,309996	20,414235	27,840	-0,097959	22,360000	47,335000
2,311494	21,130461	28,010	-0,097667	22,360000	47,335000
2,312978	21,130461	28,160	-0,097667	22,360000	47,335000
2,314476	22,690082	28,313	-0,097033	22,360000	47,335000
2,315956	22,950418	28,463	-0,096927	22,360000	47,335000
2,317498	23,340324	28,614	-0,096768	22,360000	47,335000
2,318984	24,121334	28,774	-0,096450	22,360000	47,335000
2,320462	24,380471	28,925	-0,096345	22,360000	47,335000
2,321985	24,901144	29,083	-0,096133	22,360000	47,335000
2,323491	25,355833	29,233	-0,095948	22,360000	47,335000
2,324958	26,201628	29,384	-0,095604	22,360000	47,335000
2,326447	26,266412	29,557	-0,095577	22,360000	47,335000
2,327976	26,201628	29,709	-0,095604	22,360000	47,350000
2,329497	26,981438	29,860	-0,095286	22,360000	47,350000
2,330995	27,046222	30,014	-0,095260	22,360000	47,350000
2,332518	28,151154	30,165	-0,094810	22,360000	47,350000
2,333957	27,892017	30,334	-0,094916	22,360000	47,350000
2,335493	29,582406	30,485	-0,094228	22,360000	47,350000
2,336967	28,671827	30,635	-0,094598	22,360000	47,350000
2,338478	29,582406	30,807	-0,094228	22,360000	47,350000
2,339986	30,687337	30,958	-0,093778	22,360000	47,350000
2,341534	30,687337	31,134	-0,093778	22,360000	47,350000
2,342983	31,596716	31,284	-0,093408	22,360000	47,350000
2,344451	31,533131	31,435	-0,093434	22,360000	47,350000
2,345957	31,987821	31,592	-0,093249	22,360000	47,350000
2,347545	33,872562	31,743	-0,092481	22,340000	47,375000
2,349064	33,417873	31,894	-0,092667	22,340000	47,375000
2,350498	35,108262	32,044	-0,091979	22,340000	47,375000
2,351956	34,328451	32,194	-0,092296	22,340000	47,375000
2,353522	35,108262	32,347	-0,091979	22,340000	47,375000
2,354971	35,627735	32,498	-0,091767	22,340000	47,375000
2,356479	36,343961	32,649	-0,091476	22,340000	47,375000
2,357899	36,408745	32,801	-0,091449	22,340000	47,375000
2,359515	37,318124	32,953	-0,091079	22,340000	47,375000
2,361023	37,578461	33,113	-0,090973	22,340000	47,375000
2,362499	37,838798	33,263	-0,090867	22,340000	47,375000
2,364001	37,709229	33,413	-0,090920	22,340000	47,375000
2,365477	38,163919	33,572	-0,090735	22,340000	47,375000
2,367017	38,359471	33,723	-0,090655	22,360000	47,350000
2,368523	38,553824	33,874	-0,090576	22,360000	47,350000
2,369965	38,618608	34,024	-0,090550	22,360000	47,350000
2,371524	40,179428	34,175	-0,089915	22,360000	47,350000
2,372948	40,373781	34,347	-0,089835	22,360000	47,350000
2,374483	40,634118	34,499	-0,089729	22,360000	47,350000
2,375980	40,700102	34,651	-0,089703	22,360000	47,350000
2,377455	40,700102	34,802	-0,089703	22,360000	47,350000
2,378960	41,349144	34,954	-0,089438	22,360000	47,350000
2,380476	41,740249	35,123	-0,089279	22,360000	47,350000
2,381969	41,349144	35,273	-0,089438	22,360000	47,350000
2,383504	42,130154	35,423	-0,089121	22,360000	47,350000
2,384947	42,520059	35,582	-0,088962	22,360000	47,350000
2,386456	42,649628	35,735	-0,088909	22,360000	47,350000
2,387996	43,235085	35,897	-0,088671	22,360000	47,350000
2,389543	43,689775	36,049	-0,088486	22,360000	47,350000
2,390976	43,495422	36,202	-0,088565	22,360000	47,350000
2,392480	44,470785	36,352	-0,088168	22,360000	47,350000
2,393977	44,145664	36,502	-0,088300	22,360000	47,350000
2,395536	44,731121	36,653	-0,088062	22,360000	47,350000
2,397021	45,315379	36,804	-0,087824	22,360000	47,350000
2,398474	45,900837	36,954	-0,087586	22,360000	47,350000
2,399956	45,771268	37,105	-0,087639	22,360000	47,350000
2,401504	46,290742	37,255	-0,087427	22,360000	47,350000
2,402991	46,811415	37,406	-0,087215	22,360000	47,350000
2,404521	45,705284	37,557	-0,087666	22,360000	47,350000
2,406033	47,395673	37,708	-0,086978	22,350000	47,320000
2,407473	47,070552	37,861	-0,087110	22,350000	47,320000
2,408962	47,201321	38,013	-0,087057	22,350000	47,320000
2,410519	47,460458	38,163	-0,086951	22,350000	47,320000
2,411979	47,851562	38,322	-0,086792	22,350000	47,320000
2,413457	49,216830	38,473	-0,086236	22,350000	47,320000
2,414999	49,541951	38,623	-0,086104	22,350000	47,320000
2,416557	49,996641	38,779	-0,085919	22,350000	47,320000
2,417995	49,281615	38,930	-0,086210	22,350000	47,320000
2,419508	50,061425	39,112	-0,085893	22,350000	47,320000
2,421019	51,426693	39,263	-0,085337	22,350000	47,320000
2,422480	51,166356	39,414	-0,085443	22,350000	47,320000
2,424035	51,491477	39,581	-0,085311	22,350000	47,320000
2,425504	52,597608	39,732	-0,084860	22,350000	47,350000
2,426971	52,857945	39,895	-0,084754	22,350000	47,350000
2,428523	54,222013	40,045	-0,084199	22,350000	47,350000
2,429980	54,222013	40,196	-0,084199	22,350000	47,350000
2,431455	55,197376	40,349	-0,083802	22,350000	47,350000
2,433067	55,328144	40,500	-0,083749	22,350000	47,350000
2,434469	55,782834	40,650	-0,083564	22,350000	47,350000
2,436012	56,693412	40,803	-0,083193	22,350000	47,350000
2,437511	57,148102	40,955	-0,083008	22,350000	47,350000
2,438978	57,993896	41,140	-0,082664	22,350000	47,350000
2,440490	57,863128	41,291	-0,082717	22,350000	47,350000
2,441999	58,903275	41,443	-0,082294	22,350000	47,350000
2,443455	59,619501	41,605	-0,082002	22,350000	47,350000
2,444942	60,268543	41,756	-0,081738	22,350000	47,350000
2,446442	60,399311	41,907	-0,081685	22,350000	47,350000
2,447985	60,593664	42,057	-0,081606	22,350000	47,350000
2,449490	62,219268	42,207	-0,080944	22,350000	47,350000
2,450953	62,284053	42,374	-0,080918	22,350000	47,350000
2,452520	63,129847	42,525	-0,080574	22,350000	47,350000
2,453968	62,934294	42,675	-0,080653	22,350000	47,350000
2,455473	63,974441	42,837	-0,080230	22,350000	47,350000
2,457010	64,754252	42,988	-0,079913	22,350000	47,350000
2,458454	64,820236	43,148	-0,079886	22,350000	47,350000
2,459970	65,664830	43,299	-0,079542	22,350000	47,350000
2,461440	66,640193	43,451	-0,079145	22,350000	47,350000
2,462964	67,225651	43,605	-0,078907	22,350000	47,350000
2,464466	67,680340	43,757	-0,078722	22,350000	47,335000
2,466003	67,940677	43,908	-0,078616	22,350000	47,335000
2,467526	68,265798	44,059	-0,078483	22,350000	47,335000
2,468918	69,176376	44,209	-0,078113	22,350000	47,335000
2,470553	70,151739	44,367	-0,077716	22,350000	47,335000
2,471988	70,671213	44,517	-0,077504	22,350000	47,335000
2,473518	71,386239	44,668	-0,077213	22,350000	47,335000
2,474949	71,971696	44,820	-0,076975	22,350000	47,335000
2,476514	72,361602	44,972	-0,076816	22,350000	47,335000
2,478013	72,686723	45,134	-0,076684	22,350000	47,335000
2,479468	73,011844	45,284	-0,076552	22,350000	47,335000
2,481090	74,637448	45,434	-0,075890	22,350000	47,335000
2,482509	75,287690	45,600	-0,075625	22,350000	47,335000
2,483977	75,222906	45,751	-0,075652	22,350000	47,310000
2,485441	76,522190	45,909	-0,075123	22,350000	47,310000
2,487044	76,717742	46,059	-0,075043	22,350000	47,310000
2,488475	77,107647	46,209	-0,074885	22,350000	47,310000
2,490000	77,628321	46,378	-0,074673	22,350000	47,310000
2,491445	78,278563	46,528	-0,074408	22,350000	47,310000
2,493029	79,642631	46,680	-0,073853	22,350000	47,310000
2,494489	80,033736	46,835	-0,073694	22,350000	47,310000
2,495982	80,098520	46,986	-0,073667	22,350000	47,310000
2,497427	81,399004	47,189	-0,073138	22,350000	47,310000
2,499024	81,724125	47,340	-0,073006	22,350000	47,310000
2,500496	82,439151	47,514	-0,072715	22,350000	47,310000
2,501996	82,439151	47,664	-0,072715	22,350000	47,350000
2,503473	83,999971	47,814	-0,072080	22,350000	47,350000
2,504991	84,064755	47,966	-0,072053	22,350000	47,350000
2,506469	84,650213	48,117	-0,071815	22,350000	47,350000
2,508005	86,534955	48,270	-0,071048	22,350000	47,350000
2,509492	86,470170	48,421	-0,071074	22,350000	47,350000
2,511024	86,664523	48,571	-0,070995	22,350000	47,350000
2,512476	87,575102	48,742	-0,070625	22,350000	47,350000
2,513987	88,485680	48,893	-0,070254	22,350000	47,350000
2,515516	88,680033	49,044	-0,070175	22,350000	47,350000
2,516982	89,265491	49,194	-0,069937	22,350000	47,350000
2,518482	89,655396	49,344	-0,069778	22,350000	47,350000
2,519980	91,151432	49,509	-0,069169	22,350000	47,350000
2,521465	91,151432	49,661	-0,069169	22,350000	47,350000
2,522937	91,281000	49,811	-0,069116	22,350000	47,350000
2,524484	91,606121	49,973	-0,068984	22,350000	47,350000
2,526005	92,840621	50,123	-0,068481	22,350000	47,350000
2,527484	93,751200	50,277	-0,068111	22,350000	47,350000
2,528957	93,751200	50,437	-0,068111	22,350000	47,350000
2,530510	94,596994	50,587	-0,067767	22,350000	47,350000
2,531967	95,312020	50,749	-0,067476	22,350000	47,350000
2,533466	96,481736	50,899	-0,067000	22,350000	47,350000
2,534985	96,872841	51,051	-0,066840	22,350000	47,350000
2,536485	97,392314	51,205	-0,066629	22,350000	47,350000
2,537987	98,367677	51,356	-0,066232	22,350000	47,350000
2,539491	99,147487	51,510	-0,065915	22,350000	47,350000
2,539994	99,017919	51,660	-0,065967	22,350000	47,320000
2,539967	98,628014	51,810	-0,066126	22,350000	47,320000
2,539998	99,082703	51,967	-0,065941	22,350000	47,320000
2,539993	98,432461	52,119	-0,066206	22,350000	47,320000
2,539999	97,977772	52,271	-0,066391	22,350000	47,320000
2,540036	98,888350	52,421	-0,066020	22,350000	47,320000
2,539957	98,497245	52,571	-0,066179	22,350000	47,320000
2,539968	98,822366	52,740	-0,066047	22,350000	47,320000
2,539990	98,042556	52,891	-0,066364	22,350000	47,320000
2,539978	97,977772	53,041	-0,066391	22,350000	47,320000
2,539984	97,848203	53,199	-0,066443	22,350000	47,320000
2,540007	98,042556	53,351	-0,066364	22,350000	47,320000
2,539922	97,521883	53,512	-0,066576	22,350000	47,320000
2,539939	97,392314	53,663	-0,066629	22,350000	47,335000
2,539970	97,196762	53,813	-0,066708	22,350000	47,335000
2,539985	97,002409	53,976	-0,066788	22,350000	47,335000
2,539942	97,262746	54,127	-0,066682	22,350000	47,335000
2,539988	97,002409	54,277	-0,066788	22,350000	47,335000
2,540034	97,521883	54,450	-0,066576	22,350000	47,335000
2,539969	96,872841	54,602	-0,066840	22,350000	47,335000
2,539987	96,612504	54,765	-0,066946	22,350000	47,335000
2,539973	96,677288	54,915	-0,066920	22,350000	47,335000
2,540077	97,002409	55,065	-0,066788	22,350000	47,335000
2,539958	95,962262	55,215	-0,067211	22,350000	47,335000
2,540007	96,352167	55,365	-0,067052	22,350000	47,335000
2,540043	96,937625	55,533	-0,066814	22,350000	47,335000
2,539938	95,832693	55,683	-0,067264	22,350000	47,335000
2,539943	96,806857	55,834	-0,066867	22,350000	47,335000
2,539966	96,872841	55,994	-0,066840	22,350000	47,335000
2,540000	96,352167	56,146	-0,067052	22,350000	47,335000
2,539969	97,002409	56,312	-0,066788	22,350000	47,335000
2,539980	96,481736	56,462	-0,067000	22,350000	47,335000
2,540022	95,572357	56,615	-0,067370	22,350000	47,335000
2,540077	96,612504	56,765	-0,066946	22,350000	47,335000
2,540020	96,806857	56,915	-0,066867	22,350000	47,335000
2,539978	96,027046	57,065	-0,067185	22,350000	47,335000
2,539934	96,872841	57,233	-0,066840	22,350000	47,335000
2,540012	96,546520	57,383	-0,066973	22,350000	47,335000
2,539971	96,222599	57,544	-0,067105	22,350000	47,335000
2,539953	96,222599	57,694	-0,067105	22,350000	47,335000
2,540038	95,766710	57,846	-0,067291	22,350000	47,335000
2,540017	96,156615	58,013	-0,067132	22,350000	47,335000
2,539999	96,156615	58,163	-0,067132	22,350000	47,335000
2,539999	96,222599	58,315	-0,067105	22,350000	47,335000
2,539980	96,416951	58,465	-0,067026	22,350000	47,335000
2,539994	95,312020	58,617	-0,067476	22,350000	47,335000
2,539928	95,962262	58,773	-0,067211	22,350000	47,335000
2,539986	95,896278	58,923	-0,067238	22,350000	47,335000
2,539975	95,896278	59,073	-0,067238	22,350000	47,335000
2,540002	95,506373	59,224	-0,067396	22,350000	47,335000
2,539983	95,637141	59,374	-0,067343	22,350000	47,335000
2,540031	95,572357	59,549	-0,067370	22,350000	47,335000
2,540023	95,506373	59,700	-0,067396	22,350000	47,335000
2,539970	96,742072	59,851	-0,066894	22,350000	47,335000
2,539982	95,896278	60,021	-0,067238	22,350000	47,335000
2,540034	95,247236	60,172	-0,067502	22,350000	47,335000
2,539946	95,832693	60,323	-0,067264	22,350000	47,335000
2,539999	95,572357	60,474	-0,067370	22,350000	47,335000
2,539950	94,401442	60,625	-0,067846	22,350000	47,335000
2,540019	95,572357	60,794	-0,067370	22,350000	47,335000
2,540009	95,572357	60,945	-0,067370	22,350000	47,335000
2,540009	94,856131	61,096	-0,067661	22,350000	47,335000
2,539953	95,116468	61,247	-0,067555	22,350000	47,335000
2,539978	95,182452	61,398	-0,067528	22,350000	47,335000
2,540001	94,986899	61,562	-0,067608	22,350000	47,335000
2,539979	95,637141	61,713	-0,067343	22,350000	47,320000
2,539985	95,051683	61,864	-0,067582	22,350000	47,320000
2,538497	94,466226	62,017	-0,067820	22,350000	47,320000
2,537017	93,426079	62,167	-0,068243	22,350000	47,320000
2,535501	92,646268	62,329	-0,068561	22,350000	47,320000
2,533930	92,385932	62,480	-0,068667	22,350000	47,320000
2,532427	91,606121	62,631	-0,068984	22,350000	47,320000
2,530957	90,565974	62,794	-0,069407	22,350000	47,320000
2,529516	89,721380	62,944	-0,069751	22,350000	47,320000
2,527993	88,680033	63,105	-0,070175	22,350000	47,320000
2,526464	89,071138	63,255	-0,070016	22,350000	47,320000
2,524968	87,510317	63,405	-0,070651	22,350000	47,320000
2,523506	86,470170	63,565	-0,071074	22,350000	47,320000
2,521999	85,819929	63,715	-0,071339	22,350000	47,350000
2,520505	84,844566	63,866	-0,071736	22,350000	47,350000
2,518955	84,844566	64,025	-0,071736	22,350000	47,350000
2,517509	82,568719	64,175	-0,072662	22,350000	47,350000
2,515961	83,089393	64,326	-0,072450	22,350000	47,350000
2,514524	81,594556	64,476	-0,073059	22,350000	47,350000
2,512980	81,334220	64,628	-0,073165	22,350000	47,350000
2,511442	80,033736	64,799	-0,073694	22,350000	47,350000
2,510015	79,383494	64,949	-0,073958	22,350000	47,350000
2,508514	78,212579	65,123	-0,074435	22,350000	47,350000
2,506997	77,757889	65,273	-0,074620	22,350000	47,350000
2,505491	77,497553	65,428	-0,074726	22,350000	47,350000
2,503958	75,742379	65,581	-0,075440	22,350000	47,350000
2,502519	75,287690	65,732	-0,075625	22,360000	47,350000
2,500994	74,506680	65,882	-0,075943	22,360000	47,350000
2,499453	73,531317	66,032	-0,076340	22,360000	47,350000
2,497945	73,466533	66,183	-0,076367	22,360000	47,350000
2,496496	71,971696	66,333	-0,076975	22,360000	47,350000
2,495007	71,517007	66,484	-0,077160	22,360000	47,350000
2,493480	70,346092	66,634	-0,077637	22,360000	47,350000
2,492076	69,695850	66,787	-0,077901	22,360000	47,350000
2,490472	69,501497	66,938	-0,077980	22,360000	47,350000
2,489020	67,809909	67,090	-0,078669	22,360000	47,350000
2,487488	68,265798	67,240	-0,078483	22,360000	47,350000
2,486069	67,550772	67,391	-0,078774	22,360000	47,350000
2,484506	65,925167	67,560	-0,079436	22,360000	47,350000
2,483036	65,730814	67,711	-0,079515	22,360000	47,350000
2,481487	64,754252	67,861	-0,079913	22,360000	47,350000
2,479964	63,649320	68,026	-0,080362	22,360000	47,350000
2,478473	62,869510	68,176	-0,080680	22,360000	47,350000
2,477008	62,544389	68,329	-0,080812	22,360000	47,350000
2,475491	62,024916	68,480	-0,081023	22,360000	47,350000
2,473938	61,439458	68,631	-0,081262	22,360000	47,350000
2,472464	59,878638	68,781	-0,081897	22,360000	47,350000
2,470917	59,293180	68,932	-0,082135	22,360000	47,350000
2,469508	59,683085	69,083	-0,081977	22,360000	47,350000
2,467919	58,578154	69,244	-0,082426	22,360000	47,350000
2,466489	57,473223	69,395	-0,082876	22,360000	47,350000
2,464991	57,018533	69,562	-0,083061	22,360000	47,350000
2,463491	56,497860	69,713	-0,083273	22,360000	47,335000
2,461963	55,392928	69,863	-0,083723	22,360000	47,335000
2,460510	54,613118	70,014	-0,084040	22,360000	47,335000
2,458970	53,247850	70,165	-0,084596	22,360000	47,335000
2,457500	52,922729	70,328	-0,084728	22,360000	47,335000
2,455980	52,402056	70,480	-0,084940	22,360000	47,335000
2,454488	51,361909	70,631	-0,085363	22,360000	47,335000
2,452980	50,582098	70,785	-0,085681	22,360000	47,335000
2,451540	49,996641	70,936	-0,085919	22,360000	47,335000
2,449947	49,541951	71,087	-0,086104	22,360000	47,335000
2,448470	47,526442	71,241	-0,086924	22,360000	47,335000
2,447009	48,566589	71,392	-0,086501	22,360000	47,335000
2,445477	47,656010	71,562	-0,086872	22,360000	47,335000
2,443985	47,070552	71,712	-0,087110	22,360000	47,335000
2,442516	45,836053	71,863	-0,087612	22,360000	47,335000
2,440974	45,836053	72,035	-0,087612	22,360000	47,335000
2,439519	43,560206	72,186	-0,088539	22,360000	47,335000
2,438024	44,210448	72,364	-0,088274	22,360000	47,335000
2,436453	42,974749	72,515	-0,088777	22,360000	47,335000
2,434987	42,455275	72,666	-0,088988	22,360000	47,335000
2,433532	41,609481	72,825	-0,089333	22,360000	47,335000
2,431983	41,934602	72,977	-0,089200	22,360000	47,335000
2,430506	40,829670	73,128	-0,089650	22,360000	47,335000
2,428980	38,553824	73,278	-0,090576	22,360000	47,335000
2,427505	39,529187	73,428	-0,090179	22,360000	47,335000
2,425949	37,903582	73,581	-0,090841	22,360000	47,335000
2,424507	38,293487	73,731	-0,090682	22,360000	47,320000
2,422944	36,863435	73,883	-0,091264	22,360000	47,320000
2,421511	36,408745	74,049	-0,091449	22,360000	47,320000
2,420035	35,303814	74,200	-0,091899	22,360000	47,320000
2,418483	34,328451	74,366	-0,092296	22,360000	47,320000
2,416974	34,197683	74,518	-0,092349	22,360000	47,320000
2,415444	33,288304	74,669	-0,092719	22,360000	47,320000
2,414001	33,482657	74,834	-0,092640	22,360000	47,320000
2,412467	32,312941	74,984	-0,093116	22,360000	47,320000
2,411005	31,402363	75,156	-0,093487	22,360000	47,320000
2,409452	30,816905	75,307	-0,093725	22,360000	47,320000
2,407981	30,037095	75,459	-0,094042	22,360000	47,320000
2,406484	30,362216	75,630	-0,093910	22,360000	47,320000
2,404981	29,582406	75,781	-0,094228	22,350000	47,350000
2,403476	28,217138	75,935	-0,094783	22,350000	47,350000
2,401959	28,217138	76,086	-0,094783	22,350000	47,350000
2,400487	27,436128	76,236	-0,095101	22,350000	47,350000
2,398987	27,046222	76,414	-0,095260	22,350000	47,350000
2,397491	27,436128	76,566	-0,095101	22,350000	47,350000
2,396025	26,135644	76,731	-0,095630	22,350000	47,350000
2,394489	26,070860	76,881	-0,095657	22,350000	47,350000
2,392993	24,965928	77,033	-0,096106	22,350000	47,350000
2,391447	24,640807	77,209	-0,096239	22,350000	47,350000
2,389978	23,145971	77,361	-0,096847	22,350000	47,350000
2,388465	24,250902	77,531	-0,096397	22,350000	47,350000
2,386955	23,275539	77,682	-0,096794	22,350000	47,350000
2,385406	22,756066	77,833	-0,097006	22,350000	47,350000
2,384029	21,780703	77,986	-0,097403	22,350000	47,350000
2,382449	21,130461	78,137	-0,097667	22,350000	47,350000
2,381052	20,545003	78,287	-0,097906	22,350000	47,350000
2,379458	20,609788	78,439	-0,097879	22,350000	47,350000
2,377969	19,765193	78,590	-0,098223	22,350000	47,350000
2,376539	19,700409	78,762	-0,098250	22,350000	47,350000
2,374968	19,374088	78,912	-0,098382	22,350000	47,350000
2,373467	18,659062	79,063	-0,098673	22,350000	47,350000
2,371997	18,464709	79,219	-0,098752	22,350000	47,350000
2,370488	18,399925	79,369	-0,098779	22,350000	47,350000
2,369011	17,554131	79,534	-0,099123	22,350000	47,350000
2,367491	17,554131	79,685	-0,099123	22,340000	47,350000
2,365974	17,229010	79,835	-0,099255	22,340000	47,350000
2,364508	15,863742	80,010	-0,099811	22,340000	47,350000
2,363025	15,928526	80,160	-0,099785	22,340000	47,350000
2,361496	15,669389	80,330	-0,099890	22,340000	47,350000
2,359980	15,409053	80,481	-0,099996	22,340000	47,350000
2,358502	14,692827	80,632	-0,100288	22,340000	47,350000
2,356993	14,758811	80,791	-0,100261	22,340000	47,350000
2,355482	14,238137	80,943	-0,100473	22,340000	47,350000
2,353976	14,108569	81,093	-0,100525	22,340000	47,350000
2,352487	14,302922	81,263	-0,100446	22,340000	47,350000
2,350976	13,848232	81,414	-0,100631	22,340000	47,350000
2,349505	13,197990	81,590	-0,100896	22,340000	47,350000
2,348046	11,963490	81,741	-0,101398	22,350000	47,320000
2,346505	11,897507	81,891	-0,101425	22,350000	47,320000
2,344982	11,378033	82,042	-0,101637	22,350000	47,320000
2,343529	10,727791	82,193	-0,101901	22,350000	47,320000
2,342015	10,597023	82,358	-0,101955	22,350000	47,320000
2,340500	10,792575	82,509	-0,101875	22,350000	47,320000
2,338992	10,663007	82,660	-0,101928	22,350000	47,320000
2,337532	11,052912	82,831	-0,101769	22,350000	47,320000
2,335983	10,207118	82,982	-0,102113	22,350000	47,320000
2,334483	9,881997	83,141	-0,102246	22,350000	47,320000
2,333024	9,558075	83,294	-0,102377	22,350000	47,320000
2,331502	8,191608	83,444	-0,102934	22,350000	47,320000
2,330011	8,777065	83,612	-0,102695	22,350000	47,320000
2,328483	8,387160	83,762	-0,102854	22,350000	47,320000
2,326963	7,867687	83,931	-0,103065	22,350000	47,320000
2,325506	7,151461	84,081	-0,103357	22,350000	47,320000
2,324033	6,957108	84,232	-0,103436	22,350000	47,320000
2,322507	7,541366	84,386	-0,103198	22,350000	47,320000
2,321042	6,892324	84,537	-0,103462	22,350000	47,320000
2,319482	6,242082	84,688	-0,103727	22,350000	47,320000
2,317980	5,786193	84,851	-0,103913	22,350000	47,320000
2,316470	5,071167	85,001	-0,104204	22,350000	47,320000
2,314966	5,135951	85,173	-0,104177	22,350000	47,320000
2,313477	5,135951	85,323	-0,104177	22,350000	47,320000
2,311974	3,901451	85,473	-0,104680	22,350000	47,320000
2,310525	4,095804	85,638	-0,104601	22,350000	47,350000
2,308973	3,120441	85,789	-0,104998	22,350000	47,350000
2,307522	2,146278	85,942	-0,105394	22,350000	47,350000
2,306027	2,405415	86,092	-0,105289	22,350000	47,350000
2,304492	2,861304	86,244	-0,105103	22,350000	47,350000
2,302956	1,950726	86,419	-0,105474	22,350000	47,350000
2,301528	2,340631	86,570	-0,105315	22,350000	47,350000
2,299978	2,080294	86,742	-0,105421	22,350000	47,350000
2,298500	1,104931	86,892	-0,105818	22,350000	47,350000
2,297037	0,781010	87,042	-0,105950	22,350000	47,350000
2,295507	0,454689	87,199	-0,106083	22,350000	47,350000
2,293976	0,260337	87,350	-0,106162	22,350000	47,350000
2,292487	-0,129568	87,500	-0,106320	22,350000	47,350000
2,291016	0,130768	87,670	-0,106214	22,350000	47,350000
2,289469	-0,975363	87,820	-0,106665	22,350000	47,350000
2,288003	-1,234500	87,999	-0,106770	22,350000	47,350000
2,286521	-1,040147	88,150	-0,106691	22,350000	47,350000
2,285018	-1,625605	88,300	-0,106929	22,350000	47,350000
2,283485	-1,950726	88,464	-0,107062	22,350000	47,350000
2,282029	-2,145078	88,615	-0,107141	22,350000	47,350000
2,280503	-1,755173	88,783	-0,106982	22,350000	47,350000
2,278987	-2,795320	88,934	-0,107405	22,350000	47,350000
2,277481	-2,664552	89,084	-0,107352	22,350000	47,350000
2,276010	-3,380778	89,264	-0,107644	22,350000	47,350000
2,274466	-3,250010	89,415	-0,107590	22,350000	47,350000
2,272999	-3,250010	89,598	-0,107590	22,350000	47,350000
2,271506	-4,225372	89,748	-0,107987	22,360000	47,320000
2,269951	-4,095804	89,899	-0,107935	22,360000	47,320000
2,268543	-5,265519	90,049	-0,108411	22,360000	47,320000
2,267017	-5,461072	90,201	-0,108490	22,360000	47,320000
2,265490	-4,810830	90,386	-0,108226	22,360000	47,320000
2,263997	-5,786193	90,536	-0,108623	22,360000	47,320000
2,262495	-5,915761	90,687	-0,108675	22,360000	47,320000
2,260996	-6,046529	90,848	-0,108729	22,360000	47,320000
2,259497	-7,866487	91,000	-0,109469	22,360000	47,320000
2,257990	-6,371650	91,171	-0,108861	22,360000	47,320000
2,256508	-6,630787	91,321	-0,108966	22,360000	47,320000
2,254972	-7,216245	91,472	-0,109205	22,360000	47,320000
2,253506	-7,606150	91,645	-0,109363	22,350000	47,350000
2,252050	-7,736918	91,795	-0,109417	22,350000	47,350000
2,250483	-7,931271	91,951	-0,109496	22,350000	47,350000
2,248991	-8,062039	92,103	-0,109549	22,350000	47,350000
2,247537	-8,191608	92,253	-0,109602	22,350000	47,350000
2,245999	-8,841850	92,431	-0,109866	22,350000	47,350000
2,244436	-8,777065	92,597	-0,109840	22,350000	47,350000
2,243020	-9,166971	92,778	-0,109999	22,350000	47,350000
2,241507	-9,621660	92,929	-0,110184	22,350000	47,350000
2,239989	-9,231755	93,080	-0,110025	22,350000	47,350000
2,238547	-9,556876	93,242	-0,110157	22,350000	47,350000
2,236971	-10,467454	93,394	-0,110528	22,350000	47,350000
2,235458	-9,102186	93,553	-0,109972	22,350000	47,350000
2,233981	-10,271902	93,703	-0,110448	22,350000	47,350000
2,232457	-10,011565	93,854	-0,110342	22,350000	47,350000
2,230941	-10,011565	94,030	-0,110342	22,350000	47,350000
2,229541	-10,467454	94,181	-0,110528	22,350000	47,350000
2,227954	-10,727791	94,349	-0,110634	22,350000	47,350000
2,226501	-9,946781	94,501	-0,110316	22,350000	47,350000
2,224987	-10,336686	94,651	-0,110475	22,350000	47,350000
2,223481	-10,986928	94,804	-0,110739	22,350000	47,350000
2,221948	-10,467454	94,954	-0,110528	22,350000	47,350000
2,220550	-11,897507	95,104	-0,111110	22,350000	47,350000
2,218981	-11,701954	95,256	-0,111030	22,350000	47,350000
2,217501	-12,222627	95,407	-0,111242	22,350000	47,350000
2,215939	-12,416980	95,561	-0,111321	22,350000	47,350000
2,214524	-12,547748	95,712	-0,111375	22,350000	47,335000
2,212966	-11,962291	95,865	-0,111136	22,350000	47,335000
2,211498	-12,612533	96,038	-0,111401	22,350000	47,335000
2,210027	-12,547748	96,189	-0,111375	22,350000	47,335000
2,208469	-12,612533	96,354	-0,111401	22,350000	47,335000
2,207005	-13,457127	96,505	-0,111745	22,350000	47,335000
2,205500	-13,002438	96,655	-0,111560	22,350000	47,335000
2,203939	-13,002438	96,840	-0,111560	22,350000	47,335000
2,202503	-13,587895	96,991	-0,111798	22,350000	47,335000
2,200970	-13,848232	97,153	-0,111904	22,350000	47,335000
2,199518	-13,197990	97,305	-0,111639	22,350000	47,335000
2,198047	-13,393543	97,455	-0,111719	22,350000	47,335000
2,196534	-14,173353	97,623	-0,112036	22,350000	47,335000
2,194980	-14,432490	97,774	-0,112142	22,350000	47,350000
2,193527	-14,692827	97,925	-0,112248	22,350000	47,350000
2,192028	-14,692827	98,084	-0,112248	22,350000	47,350000
2,190509	-15,343069	98,234	-0,112512	22,350000	47,350000
2,188965	-14,823595	98,404	-0,112301	22,350000	47,350000
2,187503	-15,407853	98,554	-0,112539	22,350000	47,350000
2,186048	-15,603405	98,705	-0,112618	22,350000	47,350000
2,184509	-15,472637	98,874	-0,112565	22,350000	47,350000
2,183003	-15,472637	99,025	-0,112565	22,350000	47,350000
2,181462	-15,732974	99,198	-0,112671	22,350000	47,350000
2,179946	-16,058095	99,349	-0,112803	22,350000	47,350000
2,178528	-16,058095	99,499	-0,112803	22,350000	47,350000
2,176995	-16,903889	99,659	-0,113147	22,340000	47,335000
2,175462	-16,449200	99,810	-0,112962	22,340000	47,335000
2,174068	-17,098242	99,984	-0,113227	22,340000	47,335000
2,172462	-17,423363	100,134	-0,113359	22,340000	47,335000
2,171046	-17,618915	100,286	-0,113438	22,340000	47,335000
2,169495	-17,489347	100,458	-0,113386	22,340000	47,335000
2,167993	-16,773121	100,608	-0,113094	22,340000	47,335000
2,166512	-2,209863	100,774	-0,107167	22,340000	47,335000
2,165026	-0,585458	100,926	-0,106506	22,340000	47,335000
2,163504	-0,259137	101,077	-0,106373	22,340000	47,335000
2,161955	-0,519474	101,232	-0,106479	22,340000	47,335000
2,160518	-0,519474	101,382	-0,106479	22,340000	47,335000
2,159016	0,130768	101,565	-0,106214	22,340000	47,335000
2,157528	-0,454689	101,716	-0,106453	22,350000	47,335000
2,156016	-0,585458	101,867	-0,106506	22,350000	47,335000
2,154496	0,064784	102,052	-0,106241	22,350000	47,335000
2,152997	0,195552	102,202	-0,106188	22,350000	47,335000
2,151460	0,000000	102,364	-0,106268	22,350000	47,335000
2,150000	-0,194353	102,515	-0,106347	22,350000	47,335000
2,148493	-0,844595	102,665	-0,106611	22,350000	47,335000
2,147001	-0,259137	102,834	-0,106373	22,350000	47,335000
2,145449	0,130768	102,984	-0,106214	22,350000	47,335000
2,143979	0,000000	103,152	-0,106268	22,350000	47,335000
2,142466	0,000000	103,303	-0,106268	22,350000	47,335000
2,141015	-0,715026	103,453	-0,106559	22,350000	47,335000
2,139480	0,064784	103,603	-0,106241	22,350000	47,335000
2,137980	0,195552	103,753	-0,106188	22,350000	47,310000
2,136497	-0,064784	103,903	-0,106294	22,350000	47,310000
2,134963	-0,715026	104,063	-0,106559	22,350000	47,310000
2,133491	-0,844595	104,213	-0,106611	22,350000	47,310000
2,131927	-0,585458	104,393	-0,106506	22,350000	47,310000
2,130498	-0,325121	104,543	-0,106400	22,350000	47,310000
2,128997	0,064784	104,695	-0,106241	22,350000	47,310000
2,127476	-0,519474	104,863	-0,106479	22,350000	47,310000
2,125996	0,064784	105,014	-0,106241	22,350000	47,310000
2,124498	-0,194353	105,189	-0,106347	22,350000	47,310000
2,122992	0,325121	105,340	-0,106135	22,350000	47,310000
2,121509	-0,259137	105,490	-0,106373	22,350000	47,310000
2,120091	-1,104931	105,658	-0,106717	22,350000	47,310000
2,118486	-0,325121	105,808	-0,106400	22,350000	47,310000
2,116969	0,325121	105,981	-0,106135	22,350000	47,310000
2,115454	0,000000	106,132	-0,106268	22,350000	47,310000
2,114015	-0,325121	106,283	-0,106400	22,350000	47,310000
2,112494	0,000000	106,459	-0,106268	22,350000	47,310000
2,110967	-0,454689	106,610	-0,106453	22,350000	47,310000
2,109482	0,260337	106,789	-0,106162	22,350000	47,310000
2,107986	-0,194353	106,941	-0,106347	22,350000	47,310000
2,106510	-0,129568	107,092	-0,106320	22,350000	47,310000
2,105014	-0,454689	107,271	-0,106453	22,350000	47,310000
2,103513	-1,040147	107,422	-0,106691	22,350000	47,310000
2,101986	0,064784	107,595	-0,106241	22,350000	47,310000
2,100497	0,130768	107,746	-0,106214	22,360000	47,320000
2,098974	0,260337	107,897	-0,106162	22,360000	47,320000
2,097505	-0,389905	108,061	-0,106426	22,360000	47,320000
2,096006	0,454689	108,211	-0,106083	22,360000	47,320000
2,094490	-0,064784	108,388	-0,106294	22,360000	47,320000
2,092958	-0,259137	108,540	-0,106373	22,360000	47,320000
2,091484	-0,389905	108,691	-0,106426	22,360000	47,320000
2,089984	-0,909379	108,870	-0,106638	22,360000	47,320000
2,088520	-0,259137	109,021	-0,106373	22,360000	47,320000
2,087013	-0,064784	109,195	-0,106294	22,360000	47,320000
2,085507	0,391105	109,345	-0,106108	22,360000	47,320000
2,083998	-0,194353	109,496	-0,106347	22,360000	47,320000
2,082526	-0,325121	109,671	-0,106400	22,360000	47,360000
2,080978	-0,650242	109,823	-0,106532	22,360000	47,360000
2,079522	-0,325121	110,009	-0,106400	22,360000	47,360000
2,077985	-0,585458	110,161	-0,106506	22,360000	47,360000
2,076522	-0,194353	110,311	-0,106347	22,360000	47,360000
2,074982	-0,129568	110,487	-0,106320	22,360000	47,360000
2,073483	0,064784	110,639	-0,106241	22,360000	47,360000
2,072015	-0,844595	110,805	-0,106611	22,360000	47,360000
2,070483	0,260337	110,955	-0,106162	22,360000	47,360000
2,069026	-0,194353	111,105	-0,106347	22,360000	47,360000
2,067467	0,195552	111,270	-0,106188	22,360000	47,360000
2,066018	-0,064784	111,422	-0,106294	22,360000	47,360000
2,064529	0,585458	111,590	-0,106029	22,360000	47,360000
2,063005	0,195552	111,741	-0,106188	22,350000	47,320000
2,061512	-0,585458	111,892	-0,106506	22,350000	47,320000
2,059945	-0,194353	112,060	-0,106347	22,350000	47,320000
2,058482	-0,519474	112,212	-0,106479	22,350000	47,320000
2,056985	0,454689	112,389	-0,106083	22,350000	47,320000
2,055431	-0,585458	112,540	-0,106506	22,350000	47,320000
2,053962	-0,519474	112,690	-0,106479	22,350000	47,320000
2,052484	-0,389905	112,884	-0,106426	22,350000	47,320000
2,051051	-0,064784	113,047	-0,106294	22,350000	47,320000
2,049446	-0,909379	113,204	-0,106638	22,350000	47,320000
2,048041	0,000000	113,354	-0,106268	22,350000	47,320000
2,046471	0,064784	113,507	-0,106241	22,350000	47,320000
2,044998	-0,064784	113,675	-0,106294	22,350000	47,320000
2,043487	0,000000	113,826	-0,106268	22,350000	47,320000
2,042046	0,130768	114,011	-0,106214	22,350000	47,320000
2,040541	-0,064784	114,163	-0,106294	22,350000	47,320000
2,039998	0,195552	114,213	-0,106188	22,350000	47,320000