File: Nanoindentation Datenauswertung/data/PDMS/EM-PDMS-50-10-50-0,5um-3
Quasi static measurement routine
Tip parameters (shape,radius, material...)
15.08.2022

Piezo position[nm]	MEMS displ.[nm]	Time[ms]	Cap [pf]	Temp [°C]	Rh [%]
eoh
2,119954	0,130768	0,203	-0,106214	22,360000	52,685000
2,121447	0,391105	0,355	-0,106108	22,360000	52,685000
2,122929	0,715026	0,505	-0,105977	22,360000	52,685000
2,124456	0,260337	0,655	-0,106162	22,360000	52,685000
2,125968	0,195552	0,805	-0,106188	22,360000	52,685000
2,127421	0,520673	0,955	-0,106056	22,360000	52,685000
2,128961	0,000000	1,105	-0,106268	22,360000	52,685000
2,130440	0,260337	1,256	-0,106162	22,360000	52,685000
2,131926	0,391105	1,406	-0,106108	22,360000	52,685000
2,133431	-0,975363	1,556	-0,106665	22,360000	52,685000
2,134978	0,000000	1,707	-0,106268	22,360000	52,685000
2,136383	0,064784	1,858	-0,106241	22,360000	52,685000
2,137928	0,391105	2,010	-0,106108	22,360000	52,685000
2,139434	0,520673	2,160	-0,106056	22,370000	52,715000
2,140950	0,391105	2,312	-0,106108	22,370000	52,715000
2,142459	0,520673	2,462	-0,106056	22,370000	52,715000
2,143974	0,391105	2,612	-0,106108	22,370000	52,715000
2,145435	0,325121	2,763	-0,106135	22,370000	52,715000
2,146878	0,325121	2,915	-0,106135	22,370000	52,715000
2,148404	0,650242	3,065	-0,106003	22,370000	52,715000
2,149945	0,195552	3,218	-0,106188	22,370000	52,715000
2,151422	0,325121	3,369	-0,106135	22,370000	52,715000
2,152951	0,064784	3,519	-0,106241	22,370000	52,715000
2,154462	0,000000	3,670	-0,106268	22,370000	52,715000
2,155880	0,650242	3,821	-0,106003	22,370000	52,715000
2,157424	0,715026	3,972	-0,105977	22,370000	52,715000
2,158921	0,325121	4,122	-0,106135	22,370000	52,730000
2,160410	0,000000	4,275	-0,106268	22,370000	52,730000
2,161924	0,650242	4,425	-0,106003	22,370000	52,730000
2,163444	0,195552	4,575	-0,106188	22,370000	52,730000
2,164924	0,000000	4,726	-0,106268	22,370000	52,730000
2,166453	0,454689	4,877	-0,106083	22,370000	52,730000
2,167914	-0,064784	5,027	-0,106294	22,370000	52,730000
2,169426	0,650242	5,177	-0,106003	22,370000	52,730000
2,170862	0,195552	5,328	-0,106188	22,370000	52,730000
2,172423	0,391105	5,478	-0,106108	22,370000	52,730000
2,173930	0,454689	5,628	-0,106083	22,370000	52,730000
2,175419	0,064784	5,779	-0,106241	22,370000	52,730000
2,176908	0,585458	5,929	-0,106029	22,370000	52,730000
2,178478	0,454689	6,079	-0,106083	22,360000	52,700000
2,179938	0,391105	6,231	-0,106108	22,360000	52,700000
2,181408	0,325121	6,381	-0,106135	22,360000	52,700000
2,182930	0,391105	6,531	-0,106108	22,360000	52,700000
2,184406	0,520673	6,682	-0,106056	22,360000	52,700000
2,185907	0,260337	6,833	-0,106162	22,360000	52,700000
2,187407	0,585458	6,984	-0,106029	22,360000	52,700000
2,188915	0,454689	7,136	-0,106083	22,360000	52,700000
2,190388	0,845794	7,286	-0,105923	22,360000	52,700000
2,191910	0,000000	7,437	-0,106268	22,360000	52,700000
2,193434	0,000000	7,588	-0,106268	22,360000	52,700000
2,194930	0,454689	7,738	-0,106083	22,360000	52,700000
2,196386	0,260337	7,889	-0,106162	22,360000	52,700000
2,197873	0,715026	8,039	-0,105977	22,360000	52,700000
2,199434	0,391105	8,191	-0,106108	22,360000	52,700000
2,200917	-0,129568	8,342	-0,106320	22,360000	52,700000
2,202459	0,715026	8,493	-0,105977	22,360000	52,700000
2,203921	0,130768	8,643	-0,106214	22,360000	52,700000
2,205448	0,520673	8,794	-0,106056	22,360000	52,700000
2,206978	0,325121	8,946	-0,106135	22,360000	52,700000
2,208407	0,520673	9,096	-0,106056	22,360000	52,700000
2,209891	0,391105	9,246	-0,106108	22,360000	52,700000
2,211454	0,325121	9,396	-0,106135	22,360000	52,700000
2,212903	0,000000	9,551	-0,106268	22,360000	52,700000
2,214454	0,130768	9,702	-0,106214	22,360000	52,700000
2,215934	0,454689	9,852	-0,106083	22,360000	52,700000
2,217429	0,781010	10,002	-0,105950	22,360000	52,700000
2,218913	0,391105	10,154	-0,106108	22,360000	52,725000
2,220424	0,715026	10,306	-0,105977	22,360000	52,725000
2,221904	0,454689	10,459	-0,106083	22,360000	52,725000
2,223433	0,585458	10,610	-0,106029	22,360000	52,725000
2,224970	0,064784	10,761	-0,106241	22,360000	52,725000
2,226438	0,454689	10,912	-0,106083	22,360000	52,725000
2,227905	0,000000	11,064	-0,106268	22,360000	52,725000
2,229434	0,000000	11,216	-0,106268	22,360000	52,725000
2,230949	0,260337	11,366	-0,106162	22,360000	52,725000
2,232408	0,845794	11,517	-0,105923	22,360000	52,725000
2,233924	0,000000	11,667	-0,106268	22,360000	52,725000
2,235460	0,260337	11,819	-0,106162	22,360000	52,725000
2,236967	0,391105	11,971	-0,106108	22,360000	52,725000
2,238444	0,195552	12,124	-0,106188	22,360000	52,725000
2,239942	0,391105	12,274	-0,106108	22,360000	52,725000
2,241445	0,715026	12,433	-0,105977	22,360000	52,725000
2,242910	0,454689	12,583	-0,106083	22,360000	52,725000
2,244423	0,454689	12,734	-0,106083	22,360000	52,725000
2,245961	0,585458	12,884	-0,106029	22,360000	52,725000
2,247467	0,391105	13,034	-0,106108	22,360000	52,725000
2,248942	0,391105	13,186	-0,106108	22,360000	52,725000
2,250444	0,391105	13,337	-0,106108	22,360000	52,725000
2,251944	0,520673	13,489	-0,106056	22,360000	52,725000
2,253420	0,454689	13,640	-0,106083	22,360000	52,725000
2,254976	0,260337	13,791	-0,106162	22,360000	52,725000
2,256436	0,391105	13,946	-0,106108	22,360000	52,725000
2,257937	0,260337	14,097	-0,106162	22,360000	52,710000
2,259436	0,000000	14,247	-0,106268	22,360000	52,710000
2,260933	0,195552	14,399	-0,106188	22,360000	52,710000
2,262452	0,585458	14,549	-0,106029	22,360000	52,710000
2,263957	0,064784	14,701	-0,106241	22,360000	52,710000
2,265453	0,520673	14,852	-0,106056	22,360000	52,710000
2,266963	0,130768	15,003	-0,106214	22,360000	52,710000
2,268420	0,454689	15,153	-0,106083	22,360000	52,710000
2,270027	0,260337	15,303	-0,106162	22,360000	52,710000
2,271452	0,325121	15,455	-0,106135	22,360000	52,710000
2,272914	0,585458	15,606	-0,106029	22,360000	52,710000
2,274455	0,000000	15,756	-0,106268	22,360000	52,710000
2,275944	0,260337	15,907	-0,106162	22,360000	52,710000
2,277435	-0,325121	16,058	-0,106400	22,360000	52,710000
2,278951	0,325121	16,209	-0,106135	22,360000	52,700000
2,280455	0,391105	16,364	-0,106108	22,360000	52,700000
2,281918	0,715026	16,514	-0,105977	22,360000	52,700000
2,283421	0,000000	16,666	-0,106268	22,360000	52,700000
2,284995	0,715026	16,828	-0,105977	22,360000	52,700000
2,286403	0,520673	16,978	-0,106056	22,360000	52,700000
2,287958	0,520673	17,132	-0,106056	22,360000	52,700000
2,289441	0,064784	17,283	-0,106241	22,360000	52,700000
2,290898	0,650242	17,433	-0,106003	22,360000	52,700000
2,292384	0,585458	17,588	-0,106029	22,360000	52,700000
2,293944	0,260337	17,739	-0,106162	22,360000	52,700000
2,295423	0,260337	17,889	-0,106162	22,360000	52,700000
2,296908	0,650242	18,045	-0,106003	22,360000	52,700000
2,298410	0,715026	18,196	-0,105977	22,360000	52,700000
2,299911	0,260337	18,349	-0,106162	22,360000	52,700000
2,301396	0,260337	18,499	-0,106162	22,360000	52,700000
2,302893	-4,681262	18,651	-0,108173	22,360000	52,700000
2,304468	-3,770683	18,803	-0,107802	22,360000	52,700000
2,305909	-3,510346	18,956	-0,107696	22,360000	52,700000
2,307433	-2,534983	19,108	-0,107299	22,360000	52,700000
2,308905	-2,145078	19,258	-0,107141	22,360000	52,700000
2,310436	-0,585458	19,408	-0,106506	22,360000	52,700000
2,311949	-0,909379	19,560	-0,106638	22,360000	52,700000
2,313413	-0,129568	19,710	-0,106320	22,360000	52,700000
2,314895	0,845794	19,860	-0,105923	22,360000	52,700000
2,316478	1,821157	20,011	-0,105526	22,360000	52,700000
2,317953	1,365268	20,161	-0,105712	22,360000	52,740000
2,319453	1,625605	20,311	-0,105606	22,360000	52,740000
2,320937	2,015510	20,467	-0,105447	22,360000	52,740000
2,322399	2,470199	20,620	-0,105262	22,360000	52,740000
2,323940	4,291356	20,772	-0,104521	22,360000	52,740000
2,325422	4,291356	20,922	-0,104521	22,360000	52,740000
2,326918	4,551693	21,074	-0,104415	22,360000	52,740000
2,328423	5,266719	21,230	-0,104124	22,360000	52,740000
2,329950	5,786193	21,382	-0,103913	22,360000	52,740000
2,331450	6,696771	21,545	-0,103542	22,360000	52,740000
2,332984	6,631987	21,695	-0,103568	22,360000	52,740000
2,334445	7,541366	21,846	-0,103198	22,360000	52,740000
2,335897	8,126824	21,997	-0,102960	22,360000	52,740000
2,337399	8,647497	22,147	-0,102748	22,360000	52,700000
2,338934	9,881997	22,298	-0,102246	22,360000	52,700000
2,340440	9,558075	22,454	-0,102377	22,360000	52,700000
2,341927	10,207118	22,605	-0,102113	22,360000	52,700000
2,343406	10,532239	22,758	-0,101981	22,360000	52,700000
2,344947	11,247265	22,909	-0,101690	22,360000	52,700000
2,346424	11,832722	23,059	-0,101452	22,360000	52,700000
2,347909	13,393543	23,216	-0,100816	22,360000	52,700000
2,349457	13,197990	23,368	-0,100896	22,360000	52,700000
2,350920	13,589095	23,519	-0,100737	22,360000	52,700000
2,352483	14,108569	23,678	-0,100525	22,360000	52,700000
2,353977	14,629242	23,829	-0,100313	22,360000	52,700000
2,355411	15,603405	23,979	-0,099917	22,360000	52,700000
2,356928	15,863742	24,129	-0,099811	22,370000	52,730000
2,358421	16,059294	24,279	-0,099731	22,370000	52,730000
2,359966	16,774320	24,433	-0,099440	22,370000	52,730000
2,361460	17,554131	24,584	-0,099123	22,370000	52,730000
2,362902	17,814468	24,747	-0,099017	22,370000	52,730000
2,364439	17,684899	24,899	-0,099070	22,370000	52,730000
2,365876	18,919399	25,049	-0,098567	22,370000	52,730000
2,367445	18,269157	25,200	-0,098832	22,370000	52,730000
2,368927	19,959546	25,351	-0,098144	22,370000	52,730000
2,370399	19,894762	25,503	-0,098170	22,370000	52,730000
2,371928	21,064477	25,654	-0,097694	22,370000	52,730000
2,373437	21,371602	25,804	-0,097569	22,370000	52,730000
2,374850	22,235392	25,957	-0,097218	22,370000	52,730000
2,376400	22,820850	26,107	-0,096979	22,370000	52,730000
2,377947	22,950418	26,257	-0,096927	22,370000	52,730000
2,379420	23,796213	26,407	-0,096583	22,370000	52,730000
2,380947	23,860997	26,558	-0,096556	22,370000	52,730000
2,382441	23,796213	26,709	-0,096583	22,370000	52,730000
2,383902	24,901144	26,879	-0,096133	22,370000	52,730000
2,385446	26,070860	27,029	-0,095657	22,370000	52,730000
2,386896	26,591533	27,192	-0,095445	22,370000	52,730000
2,388373	26,916654	27,342	-0,095313	22,370000	52,730000
2,389917	26,851870	27,493	-0,095339	22,370000	52,730000
2,391448	27,176991	27,648	-0,095207	22,370000	52,730000
2,392929	28,021585	27,798	-0,094863	22,370000	52,730000
2,394407	28,346706	27,958	-0,094730	22,370000	52,730000
2,395929	30,037095	28,108	-0,094042	22,350000	52,710000
2,397414	30,101879	28,260	-0,094016	22,350000	52,710000
2,398889	30,556569	28,411	-0,093831	22,350000	52,710000
2,400414	31,142026	28,563	-0,093593	22,350000	52,710000
2,401922	31,923036	28,713	-0,093275	22,350000	52,710000
2,403439	32,507294	28,864	-0,093037	22,350000	52,710000
2,404945	31,467147	29,014	-0,093460	22,350000	52,710000
2,406416	33,092752	29,172	-0,092799	22,350000	52,710000
2,407925	33,678209	29,323	-0,092561	22,350000	52,710000
2,409371	34,588788	29,475	-0,092190	22,350000	52,710000
2,410924	34,458020	29,642	-0,092243	22,350000	52,710000
2,412392	34,847925	29,792	-0,092084	22,350000	52,710000
2,413975	35,562951	29,953	-0,091793	22,350000	52,710000
2,415402	36,604298	30,103	-0,091370	22,350000	52,710000
2,416912	37,384108	30,255	-0,091052	22,350000	52,710000
2,418417	37,903582	30,406	-0,090841	22,350000	52,710000
2,419909	38,424255	30,557	-0,090629	22,350000	52,710000
2,421418	38,424255	30,709	-0,090629	22,350000	52,710000
2,422918	39,139281	30,859	-0,090338	22,350000	52,710000
2,424474	39,529187	31,010	-0,090179	22,350000	52,710000
2,425911	40,959239	31,160	-0,089597	22,350000	52,710000
2,427435	40,700102	31,310	-0,089703	22,350000	52,710000
2,428919	41,740249	31,461	-0,089279	22,350000	52,710000
2,430418	42,130154	31,613	-0,089121	22,350000	52,710000
2,431923	42,324507	31,763	-0,089042	22,350000	52,710000
2,433431	43,495422	31,913	-0,088565	22,350000	52,710000
2,434913	42,779196	32,064	-0,088856	22,360000	52,710000
2,436401	44,080880	32,215	-0,088327	22,360000	52,710000
2,437962	44,275232	32,365	-0,088248	22,360000	52,710000
2,439449	44,990258	32,517	-0,087957	22,360000	52,710000
2,440933	46,161174	32,667	-0,087480	22,360000	52,710000
2,442397	46,745432	32,831	-0,087242	22,360000	52,710000
2,443891	46,940984	32,982	-0,087163	22,360000	52,710000
2,445402	47,395673	33,133	-0,086978	22,360000	52,710000
2,446970	47,526442	33,293	-0,086924	22,360000	52,710000
2,448395	48,500605	33,443	-0,086528	22,360000	52,710000
2,449950	48,956494	33,610	-0,086342	22,360000	52,710000
2,451389	49,867072	33,762	-0,085972	22,360000	52,710000
2,452935	49,541951	33,912	-0,086104	22,360000	52,710000
2,454420	51,166356	34,062	-0,085443	22,360000	52,725000
2,455902	52,076935	34,212	-0,085072	22,360000	52,725000
2,457423	52,272487	34,362	-0,084993	22,360000	52,725000
2,458914	52,337272	34,513	-0,084966	22,360000	52,725000
2,460453	52,987513	34,664	-0,084702	22,360000	52,725000
2,461932	53,637755	34,815	-0,084437	22,360000	52,725000
2,463443	54,938239	34,965	-0,083908	22,360000	52,725000
2,464952	55,132592	35,116	-0,083829	22,360000	52,725000
2,466415	55,653265	35,278	-0,083617	22,360000	52,725000
2,467940	56,303507	35,429	-0,083352	22,360000	52,725000
2,469407	56,497860	35,584	-0,083273	22,360000	52,725000
2,470890	57,083317	35,735	-0,083035	22,360000	52,725000
2,472397	57,798343	35,887	-0,082744	22,360000	52,725000
2,473884	58,773706	36,045	-0,082347	22,360000	52,725000
2,475419	59,163611	36,196	-0,082188	22,350000	52,685000
2,476922	59,293180	36,359	-0,082135	22,350000	52,685000
2,478405	60,138974	36,511	-0,081791	22,350000	52,685000
2,479947	60,464095	36,661	-0,081659	22,350000	52,685000
2,481422	61,179121	36,819	-0,081368	22,350000	52,685000
2,482896	61,569026	36,969	-0,081209	22,350000	52,685000
2,484417	61,894147	37,120	-0,081077	22,350000	52,685000
2,485938	62,804726	37,270	-0,080706	22,350000	52,685000
2,487476	63,324200	37,421	-0,080495	22,350000	52,685000
2,488974	64,949804	37,571	-0,079833	22,350000	52,685000
2,490409	65,014588	37,722	-0,079807	22,350000	52,685000
2,491914	65,535262	37,872	-0,079595	22,350000	52,685000
2,493392	65,795599	38,038	-0,079489	22,350000	52,685000
2,494939	65,989951	38,188	-0,079410	22,350000	52,685000
2,496396	66,575409	38,358	-0,079171	22,350000	52,685000
2,497936	67,096082	38,508	-0,078959	22,350000	52,685000
2,499421	67,875893	38,660	-0,078642	22,350000	52,685000
2,500913	68,265798	38,810	-0,078483	22,350000	52,685000
2,502421	68,526134	38,960	-0,078377	22,350000	52,685000
2,503905	68,395366	39,112	-0,078431	22,350000	52,685000
2,505402	69,176376	39,264	-0,078113	22,350000	52,685000
2,506892	70,541644	39,415	-0,077557	22,350000	52,685000
2,508432	70,216523	39,566	-0,077689	22,350000	52,685000
2,509920	71,906912	39,716	-0,077001	22,350000	52,685000
2,511371	71,517007	39,866	-0,077160	22,350000	52,685000
2,512908	72,426386	40,016	-0,076790	22,350000	52,685000
2,514459	72,947059	40,168	-0,076578	22,360000	52,710000
2,515959	73,857638	40,318	-0,076208	22,360000	52,710000
2,517418	73,857638	40,470	-0,076208	22,360000	52,710000
2,518946	74,962569	40,621	-0,075758	22,360000	52,710000
2,520403	75,742379	40,771	-0,075440	22,360000	52,710000
2,521895	75,546827	40,921	-0,075520	22,360000	52,710000
2,523432	76,327837	41,072	-0,075202	22,360000	52,710000
2,524923	76,782526	41,222	-0,075017	22,360000	52,710000
2,526435	77,172432	41,372	-0,074858	22,360000	52,710000
2,527851	77,562337	41,522	-0,074700	22,360000	52,710000
2,529434	78,472915	41,673	-0,074329	22,360000	52,710000
2,530933	78,668468	41,823	-0,074250	22,360000	52,710000
2,532463	79,968952	41,973	-0,073720	22,360000	52,710000
2,533932	79,773399	42,125	-0,073800	22,370000	52,715000
2,535429	80,228089	42,276	-0,073615	22,370000	52,715000
2,536935	80,423641	42,432	-0,073535	22,370000	52,715000
2,538420	82,568719	42,583	-0,072662	22,370000	52,715000
2,539894	82,503935	42,734	-0,072688	22,370000	52,715000
2,541423	82,243598	42,898	-0,072794	22,370000	52,715000
2,542953	82,958624	43,049	-0,072503	22,370000	52,715000
2,544425	83,349729	43,210	-0,072344	22,370000	52,715000
2,545924	84,194324	43,362	-0,072000	22,370000	52,715000
2,547459	85,494808	43,513	-0,071471	22,370000	52,715000
2,548858	85,884713	43,663	-0,071313	22,370000	52,715000
2,550390	86,729307	43,814	-0,070969	22,370000	52,715000
2,551866	87,055628	43,985	-0,070836	22,370000	52,715000
2,553338	87,249981	44,135	-0,070757	22,370000	52,730000
2,554942	88,225344	44,286	-0,070360	22,370000	52,730000
2,556396	88,029791	44,443	-0,070439	22,370000	52,730000
2,557912	89,135922	44,596	-0,069989	22,370000	52,730000
2,559361	89,330275	44,762	-0,069910	22,370000	52,730000
2,560900	89,784964	44,913	-0,069725	22,370000	52,730000
2,562447	90,370422	45,064	-0,069487	22,370000	52,730000
2,563910	91,281000	45,219	-0,069116	22,370000	52,730000
2,565412	92,321147	45,369	-0,068693	22,370000	52,730000
2,566887	92,385932	45,521	-0,068667	22,370000	52,730000
2,568391	92,840621	45,671	-0,068481	22,370000	52,730000
2,569966	93,556847	45,822	-0,068190	22,370000	52,730000
2,571409	94,596994	45,973	-0,067767	22,370000	52,730000
2,572958	94,466226	46,125	-0,067820	22,360000	52,700000
2,574369	95,376804	46,275	-0,067449	22,360000	52,700000
2,575915	95,896278	46,426	-0,067238	22,360000	52,700000
2,577385	96,742072	46,577	-0,066894	22,360000	52,700000
2,578912	97,521883	46,727	-0,066576	22,360000	52,700000
2,580425	97,977772	46,877	-0,066391	22,360000	52,700000
2,581898	98,367677	47,027	-0,066232	22,360000	52,700000
2,583397	98,692798	47,196	-0,066100	22,360000	52,700000
2,584924	99,797729	47,348	-0,065650	22,360000	52,700000
2,586454	99,603376	47,499	-0,065729	22,360000	52,700000
2,587947	100,577540	47,662	-0,065333	22,360000	52,700000
2,589443	100,903860	47,814	-0,065200	22,360000	52,700000
2,590898	100,968644	47,964	-0,065173	22,360000	52,700000
2,592456	101,552902	48,114	-0,064936	22,360000	52,700000
2,593888	102,267928	48,266	-0,064645	22,360000	52,700000
2,595440	102,723818	48,419	-0,064459	22,360000	52,700000
2,596926	103,763965	48,569	-0,064036	22,360000	52,700000
2,598416	103,893533	48,722	-0,063983	22,360000	52,700000
2,599910	103,309275	48,872	-0,064221	22,360000	52,700000
2,601423	105,519138	49,022	-0,063321	22,360000	52,700000
2,602935	105,648706	49,191	-0,063269	22,360000	52,700000
2,604457	106,559285	49,342	-0,062898	22,360000	52,700000
2,605929	107,469863	49,492	-0,062527	22,360000	52,700000
2,607388	107,859769	49,660	-0,062369	22,360000	52,700000
2,608851	108,639579	49,810	-0,062051	22,360000	52,700000
2,610373	108,055321	49,963	-0,062289	22,360000	52,700000
2,611879	108,835131	50,113	-0,061972	22,350000	52,735000
2,613414	110,200399	50,264	-0,061416	22,350000	52,735000
2,614944	110,655089	50,417	-0,061231	22,350000	52,735000
2,616420	112,151125	50,568	-0,060622	22,350000	52,735000
2,617920	111,760020	50,718	-0,060781	22,350000	52,735000
2,619426	112,345478	50,885	-0,060543	22,350000	52,735000
2,619913	111,760020	51,035	-0,060781	22,350000	52,735000
2,619858	112,151125	51,201	-0,060622	22,350000	52,735000
2,619893	112,605814	51,352	-0,060437	22,350000	52,735000
2,619924	112,020357	51,504	-0,060675	22,350000	52,735000
2,619898	111,760020	51,667	-0,060781	22,350000	52,735000
2,619890	112,215909	51,819	-0,060596	22,350000	52,735000
2,619942	112,541030	51,970	-0,060463	22,350000	52,735000
2,619938	111,370115	52,120	-0,060940	22,360000	52,700000
2,619920	110,785857	52,271	-0,061178	22,360000	52,700000
2,619927	110,850641	52,421	-0,061151	22,360000	52,700000
2,619875	111,240546	52,573	-0,060993	22,360000	52,700000
2,619931	110,590304	52,724	-0,061257	22,360000	52,700000
2,619944	110,915425	52,896	-0,061125	22,360000	52,700000
2,619890	111,044994	53,047	-0,061072	22,360000	52,700000
2,619923	111,436099	53,212	-0,060913	22,360000	52,700000
2,619918	111,175762	53,364	-0,061019	22,360000	52,700000
2,619940	111,175762	53,517	-0,061019	22,360000	52,700000
2,619876	111,240546	53,668	-0,060993	22,360000	52,700000
2,619872	110,329968	53,819	-0,061363	22,360000	52,700000
2,619896	110,394752	53,969	-0,061337	22,360000	52,700000
2,619890	109,875278	54,120	-0,061548	22,360000	52,725000
2,619887	110,200399	54,270	-0,061416	22,360000	52,725000
2,619884	109,810494	54,420	-0,061575	22,360000	52,725000
2,619919	110,850641	54,571	-0,061151	22,360000	52,725000
2,619910	110,004847	54,722	-0,061496	22,360000	52,725000
2,619892	110,070831	54,873	-0,061469	22,360000	52,725000
2,619926	109,875278	55,024	-0,061548	22,360000	52,725000
2,619962	109,614942	55,176	-0,061654	22,360000	52,725000
2,619896	110,004847	55,326	-0,061496	22,360000	52,725000
2,619959	109,875278	55,476	-0,061548	22,360000	52,725000
2,619890	109,940063	55,628	-0,061522	22,360000	52,725000
2,619911	109,420589	55,778	-0,061733	22,360000	52,725000
2,619892	109,030684	55,928	-0,061892	22,360000	52,725000
2,619936	109,940063	56,078	-0,061522	22,350000	52,685000
2,619900	108,964700	56,229	-0,061919	22,350000	52,685000
2,619920	109,420589	56,380	-0,061733	22,350000	52,685000
2,619892	108,770347	56,531	-0,061998	22,350000	52,685000
2,619879	108,835131	56,683	-0,061972	22,350000	52,685000
2,619918	109,095468	56,845	-0,061866	22,350000	52,685000
2,619954	110,135615	56,996	-0,061442	22,350000	52,685000
2,619886	109,095468	57,157	-0,061866	22,350000	52,685000
2,619842	109,225036	57,308	-0,061813	22,350000	52,685000
2,619901	109,420589	57,459	-0,061733	22,350000	52,685000
2,619877	109,095468	57,615	-0,061866	22,350000	52,685000
2,619874	109,030684	57,766	-0,061892	22,350000	52,685000
2,619893	108,510010	57,917	-0,062104	22,350000	52,685000
2,619930	108,510010	58,072	-0,062104	22,360000	52,710000
2,619914	109,030684	58,223	-0,061892	22,360000	52,710000
2,619930	107,534648	58,385	-0,062501	22,360000	52,710000
2,619903	108,574795	58,535	-0,062078	22,360000	52,710000
2,619891	108,249674	58,687	-0,062210	22,360000	52,710000
2,619874	108,249674	58,848	-0,062210	22,360000	52,710000
2,619895	108,574795	58,999	-0,062078	22,360000	52,710000
2,619874	108,770347	59,171	-0,061998	22,360000	52,710000
2,619903	108,314458	59,322	-0,062184	22,360000	52,710000
2,619881	108,314458	59,474	-0,062184	22,360000	52,710000
2,619888	108,445226	59,625	-0,062130	22,360000	52,710000
2,619904	108,249674	59,776	-0,062210	22,360000	52,710000
2,619934	108,510010	59,927	-0,062104	22,360000	52,710000
2,619844	109,160252	60,078	-0,061839	22,360000	52,710000
2,619903	108,184889	60,228	-0,062236	22,360000	52,710000
2,619892	108,120105	60,405	-0,062263	22,360000	52,710000
2,619903	108,120105	60,555	-0,062263	22,360000	52,710000
2,619915	108,380442	60,705	-0,062157	22,360000	52,710000
2,619960	108,249674	60,855	-0,062210	22,360000	52,710000
2,619949	108,249674	61,007	-0,062210	22,360000	52,710000
2,619961	107,924553	61,170	-0,062342	22,360000	52,710000
2,618446	107,079958	61,321	-0,062686	22,360000	52,710000
2,616970	106,494501	61,472	-0,062924	22,360000	52,710000
2,615396	104,349422	61,623	-0,063797	22,360000	52,710000
2,613915	104,283438	61,775	-0,063824	22,360000	52,710000
2,612366	103,763965	61,925	-0,064036	22,360000	52,710000
2,610909	103,374059	62,076	-0,064194	22,370000	52,715000
2,609370	101,617687	62,227	-0,064909	22,370000	52,715000
2,607878	101,683671	62,380	-0,064882	22,370000	52,715000
2,606483	100,903860	62,530	-0,065200	22,370000	52,715000
2,604938	100,318403	62,681	-0,065438	22,370000	52,715000
2,603406	99,082703	62,835	-0,065941	22,370000	52,715000
2,601917	98,628014	62,985	-0,066126	22,370000	52,715000
2,600387	98,172125	63,135	-0,066312	22,370000	52,715000
2,598883	96,546520	63,299	-0,066973	22,370000	52,715000
2,597349	96,677288	63,449	-0,066920	22,370000	52,715000
2,595933	95,701925	63,615	-0,067317	22,370000	52,715000
2,594417	94,532210	63,766	-0,067793	22,370000	52,715000
2,592934	93,621631	63,918	-0,068164	22,370000	52,715000
2,591384	92,711053	64,081	-0,068534	22,360000	52,700000
2,589894	92,516700	64,231	-0,068613	22,360000	52,700000
2,588418	91,606121	64,398	-0,068984	22,360000	52,700000
2,586927	90,826311	64,549	-0,069301	22,360000	52,700000
2,585425	89,525827	64,701	-0,069831	22,360000	52,700000
2,583910	89,200706	64,865	-0,069963	22,360000	52,700000
2,582401	88,485680	65,016	-0,070254	22,360000	52,700000
2,580867	88,029791	65,179	-0,070439	22,360000	52,700000
2,579414	86,014281	65,330	-0,071260	22,360000	52,700000
2,577927	86,729307	65,480	-0,070969	22,360000	52,700000
2,576413	85,494808	65,630	-0,071471	22,360000	52,700000
2,574913	84,194324	65,781	-0,072000	22,360000	52,700000
2,573398	84,323892	65,933	-0,071948	22,360000	52,700000
2,571922	82,829056	66,085	-0,072556	22,360000	52,700000
2,570382	82,439151	66,235	-0,072715	22,360000	52,700000
2,568898	81,594556	66,404	-0,073059	22,360000	52,700000
2,567434	80,294072	66,556	-0,073588	22,360000	52,700000
2,565917	80,423641	66,706	-0,073535	22,360000	52,700000
2,564395	79,383494	66,874	-0,073958	22,360000	52,700000
2,562896	78,408131	67,024	-0,074355	22,360000	52,700000
2,561390	77,172432	67,189	-0,074858	22,360000	52,700000
2,559910	77,042863	67,340	-0,074911	22,360000	52,700000
2,558420	76,586974	67,490	-0,075097	22,360000	52,700000
2,556905	75,156922	67,661	-0,075679	22,360000	52,700000
2,555405	74,767017	67,811	-0,075837	22,360000	52,700000
2,553914	74,702232	67,980	-0,075864	22,360000	52,700000
2,552434	73,207396	68,132	-0,076472	22,360000	52,710000
2,550903	71,776144	68,283	-0,077055	22,360000	52,710000
2,549404	72,361602	68,446	-0,076816	22,360000	52,710000
2,547881	71,386239	68,597	-0,077213	22,360000	52,710000
2,546406	70,346092	68,747	-0,077637	22,360000	52,710000
2,544892	70,085755	68,914	-0,077743	22,360000	52,710000
2,543383	68,590919	69,065	-0,078351	22,360000	52,710000
2,541867	68,136229	69,235	-0,078536	22,360000	52,710000
2,540412	68,005461	69,385	-0,078589	22,360000	52,710000
2,538902	67,680340	69,536	-0,078722	22,360000	52,710000
2,537433	67,096082	69,687	-0,078959	22,360000	52,710000
2,535901	66,054735	69,839	-0,079383	22,360000	52,710000
2,534456	64,820236	69,991	-0,079886	22,360000	52,710000
2,532881	64,949804	70,141	-0,079833	22,360000	52,700000
2,531427	62,999079	70,291	-0,080627	22,360000	52,700000
2,529911	62,479605	70,447	-0,080838	22,360000	52,700000
2,528478	62,414821	70,597	-0,080865	22,360000	52,700000
2,526920	62,024916	70,748	-0,081023	22,360000	52,700000
2,525369	60,724432	70,912	-0,081553	22,360000	52,700000
2,523908	60,984769	71,062	-0,081447	22,360000	52,700000
2,522405	59,359164	71,213	-0,082108	22,360000	52,700000
2,520904	59,359164	71,363	-0,082108	22,360000	52,700000
2,519446	57,863128	71,513	-0,082717	22,360000	52,700000
2,517951	56,497860	71,684	-0,083273	22,360000	52,700000
2,516414	56,433075	71,835	-0,083299	22,360000	52,700000
2,514899	56,172739	71,991	-0,083405	22,360000	52,700000
2,513410	55,522497	72,141	-0,083670	22,360000	52,710000
2,511905	54,352781	72,291	-0,084146	22,360000	52,710000
2,510438	53,247850	72,468	-0,084596	22,360000	52,710000
2,508891	52,791961	72,619	-0,084781	22,360000	52,710000
2,507440	52,922729	72,784	-0,084728	22,360000	52,710000
2,505938	51,622245	72,935	-0,085257	22,360000	52,710000
2,504397	50,256978	73,085	-0,085813	22,360000	52,710000
2,502916	50,516114	73,241	-0,085708	22,360000	52,710000
2,501395	49,931857	73,391	-0,085945	22,360000	52,710000
2,499895	48,956494	73,542	-0,086342	22,360000	52,710000
2,498447	47,851562	73,699	-0,086792	22,360000	52,710000
2,496947	47,201321	73,850	-0,087057	22,360000	52,710000
2,495419	47,526442	74,001	-0,086924	22,360000	52,710000
2,493895	46,290742	74,152	-0,087427	22,360000	52,700000
2,492433	45,444948	74,304	-0,087771	22,360000	52,700000
2,490873	45,965621	74,461	-0,087560	22,360000	52,700000
2,489427	44,145664	74,611	-0,088300	22,360000	52,700000
2,487919	44,014896	74,761	-0,088354	22,360000	52,700000
2,486396	43,235085	74,928	-0,088671	22,360000	52,700000
2,484901	41,869817	75,078	-0,089227	22,360000	52,700000
2,483452	40,959239	75,237	-0,089597	22,360000	52,700000
2,481931	41,154791	75,387	-0,089518	22,360000	52,700000
2,480366	40,373781	75,538	-0,089835	22,360000	52,700000
2,478967	39,333634	75,695	-0,090259	22,360000	52,700000
2,477455	38,489039	75,845	-0,090603	22,360000	52,700000
2,475982	38,489039	76,000	-0,090603	22,360000	52,700000
2,474440	38,099134	76,151	-0,090761	22,360000	52,710000
2,472923	36,994203	76,302	-0,091211	22,360000	52,710000
2,471448	36,213193	76,472	-0,091529	22,360000	52,710000
2,469915	35,433383	76,622	-0,091846	22,360000	52,710000
2,468411	34,783141	76,795	-0,092111	22,360000	52,710000
2,466911	33,807778	76,945	-0,092508	22,360000	52,710000
2,465454	33,222320	77,095	-0,092746	22,360000	52,710000
2,463899	32,832415	77,255	-0,092905	22,360000	52,710000
2,462427	32,832415	77,405	-0,092905	22,360000	52,710000
2,460946	31,857052	77,556	-0,093302	22,360000	52,710000
2,459401	30,816905	77,727	-0,093725	22,360000	52,710000
2,457945	30,752121	77,878	-0,093751	22,360000	52,710000
2,456368	30,232647	78,052	-0,093963	22,360000	52,710000
2,454943	29,647190	78,202	-0,094201	22,360000	52,710000
2,453411	28,801396	78,353	-0,094545	22,360000	52,710000
2,451891	28,541059	78,534	-0,094651	22,360000	52,710000
2,450393	27,436128	78,685	-0,095101	22,360000	52,710000
2,448891	26,981438	78,843	-0,095286	22,360000	52,710000
2,447411	26,916654	78,994	-0,095313	22,360000	52,710000
2,445947	25,745739	79,145	-0,095789	22,360000	52,710000
2,444412	25,095497	79,306	-0,096054	22,360000	52,710000
2,442922	24,445255	79,457	-0,096318	22,360000	52,710000
2,441433	23,730229	79,626	-0,096609	22,360000	52,710000
2,439905	23,015203	79,778	-0,096900	22,360000	52,710000
2,438424	22,820850	79,928	-0,096979	22,360000	52,710000
2,436921	21,845487	80,101	-0,097376	22,360000	52,710000
2,435411	21,780703	80,251	-0,097403	22,360000	52,710000
2,433970	21,130461	80,424	-0,097667	22,360000	52,710000
2,432425	20,805340	80,575	-0,097800	22,360000	52,710000
2,430883	20,284667	80,725	-0,098012	22,360000	52,710000
2,429439	19,179735	80,897	-0,098461	22,360000	52,710000
2,427933	19,244520	81,048	-0,098435	22,360000	52,710000
2,426452	19,504856	81,205	-0,098329	22,360000	52,710000
2,424902	18,594278	81,355	-0,098700	22,360000	52,710000
2,423392	18,074804	81,507	-0,098911	22,360000	52,710000
2,421917	17,879252	81,675	-0,098991	22,360000	52,710000
2,420364	17,554131	81,826	-0,099123	22,360000	52,710000
2,418886	17,489347	81,976	-0,099149	22,360000	52,710000
2,417428	16,513984	82,132	-0,099546	22,360000	52,685000
2,415894	16,384415	82,283	-0,099599	22,360000	52,685000
2,414473	15,928526	82,456	-0,099785	22,360000	52,685000
2,412879	15,603405	82,607	-0,099917	22,360000	52,685000
2,411388	14,758811	82,758	-0,100261	22,360000	52,685000
2,409903	15,278284	82,928	-0,100049	22,360000	52,685000
2,408409	15,278284	83,079	-0,100049	22,360000	52,685000
2,406972	14,238137	83,262	-0,100473	22,360000	52,685000
2,405442	14,563258	83,413	-0,100340	22,360000	52,685000
2,403896	14,433690	83,563	-0,100393	22,360000	52,685000
2,402458	13,068422	83,714	-0,100949	22,360000	52,685000
2,400956	13,003638	83,864	-0,100975	22,360000	52,685000
2,399437	12,287412	84,016	-0,101267	22,360000	52,685000
2,397950	12,093059	84,167	-0,101346	22,360000	52,685000
2,396405	10,727791	84,317	-0,101901	22,360000	52,685000
2,395003	10,207118	84,473	-0,102113	22,360000	52,685000
2,393414	10,207118	84,624	-0,102113	22,360000	52,685000
2,391934	9,817212	84,787	-0,102272	22,360000	52,685000
2,390446	9,231755	84,937	-0,102510	22,360000	52,685000
2,388916	9,102186	85,087	-0,102563	22,360000	52,685000
2,387433	8,647497	85,238	-0,102748	22,360000	52,685000
2,385976	7,867687	85,389	-0,103065	22,360000	52,685000
2,384439	7,347013	85,540	-0,103277	22,360000	52,685000
2,382909	7,086677	85,704	-0,103383	22,360000	52,685000
2,381438	6,826340	85,856	-0,103489	22,360000	52,685000
2,379921	6,242082	86,027	-0,103727	22,360000	52,685000
2,378456	6,242082	86,177	-0,103727	22,360000	52,725000
2,376912	5,525856	86,329	-0,104019	22,360000	52,725000
2,375492	4,420925	86,483	-0,104468	22,360000	52,725000
2,373937	4,681262	86,634	-0,104362	22,360000	52,725000
2,372414	4,031020	86,794	-0,104627	22,360000	52,725000
2,370958	4,095804	86,945	-0,104601	22,360000	52,725000
2,369403	3,380778	87,095	-0,104892	22,360000	52,725000
2,367930	3,055657	87,259	-0,105024	22,360000	52,725000
2,366411	2,470199	87,409	-0,105262	22,360000	52,725000
2,364928	2,146278	87,561	-0,105394	22,360000	52,725000
2,363449	2,080294	87,737	-0,105421	22,360000	52,725000
2,361938	1,496036	87,887	-0,105659	22,360000	52,725000
2,360436	2,015510	88,045	-0,105447	22,370000	52,690000
2,358911	1,235699	88,197	-0,105765	22,370000	52,690000
2,357418	0,845794	88,347	-0,105923	22,370000	52,690000
2,355971	1,170915	88,525	-0,105791	22,370000	52,690000
2,354387	0,454689	88,675	-0,106083	22,370000	52,690000
2,352885	-0,519474	88,848	-0,106479	22,370000	52,690000
2,351399	-0,194353	89,000	-0,106347	22,370000	52,690000
2,349951	-1,494836	89,152	-0,106876	22,370000	52,690000
2,348460	-0,779810	89,335	-0,106585	22,370000	52,690000
2,346920	-1,755173	89,488	-0,106982	22,370000	52,690000
2,345442	-1,950726	89,655	-0,107062	22,370000	52,690000
2,343906	-1,950726	89,807	-0,107062	22,370000	52,690000
2,342385	-2,600967	89,958	-0,107326	22,370000	52,690000
2,340924	-2,990873	90,109	-0,107485	22,360000	52,725000
2,339415	-3,575131	90,259	-0,107723	22,360000	52,725000
2,337947	-3,770683	90,410	-0,107802	22,360000	52,725000
2,336391	-3,835467	90,561	-0,107829	22,360000	52,725000
2,334932	-4,160588	90,712	-0,107961	22,360000	52,725000
2,333397	-4,290157	90,885	-0,108014	22,360000	52,725000
2,331993	-5,590640	91,037	-0,108543	22,360000	52,725000
2,330468	-5,330304	91,208	-0,108437	22,360000	52,725000
2,328951	-6,305666	91,358	-0,108834	22,360000	52,725000
2,327473	-6,046529	91,510	-0,108729	22,360000	52,725000
2,325919	-6,436435	91,675	-0,108887	22,360000	52,725000
2,324431	-6,826340	91,828	-0,109046	22,360000	52,725000
2,322975	-7,151461	92,010	-0,109178	22,360000	52,725000
2,321384	-7,411797	92,161	-0,109284	22,360000	52,710000
2,319974	-8,126824	92,312	-0,109575	22,360000	52,710000
2,318425	-7,996055	92,480	-0,109522	22,360000	52,710000
2,316910	-8,385961	92,632	-0,109681	22,360000	52,710000
2,315425	-8,581513	92,805	-0,109760	22,360000	52,710000
2,313905	-9,556876	92,956	-0,110157	22,360000	52,710000
2,312459	-8,906634	93,107	-0,109893	22,360000	52,710000
2,310938	-9,036202	93,276	-0,109945	22,360000	52,710000
2,309403	-10,207118	93,427	-0,110422	22,360000	52,710000
2,307975	-10,336686	93,601	-0,110475	22,360000	52,710000
2,306433	-10,727791	93,752	-0,110634	22,360000	52,710000
2,304900	-10,271902	93,903	-0,110448	22,360000	52,710000
2,303448	-11,117696	94,069	-0,110792	22,360000	52,700000
2,301907	-10,986928	94,219	-0,110739	22,360000	52,700000
2,300423	-11,832722	94,369	-0,111083	22,360000	52,700000
2,298895	-11,767938	94,528	-0,111057	22,360000	52,700000
2,297412	-13,002438	94,678	-0,111560	22,360000	52,700000
2,295921	-12,416980	94,860	-0,111321	22,360000	52,700000
2,294383	-13,067222	95,010	-0,111586	22,360000	52,700000
2,292898	-12,872869	95,161	-0,111507	22,360000	52,700000
2,291441	-13,133206	95,337	-0,111613	22,360000	52,700000
2,289893	-13,652680	95,487	-0,111824	22,360000	52,700000
2,288436	-13,197990	95,650	-0,111639	22,360000	52,700000
2,286926	-14,497274	95,800	-0,112168	22,360000	52,700000
2,285458	-14,107369	95,951	-0,112009	22,360000	52,700000
2,283910	-14,563258	96,121	-0,112195	22,370000	52,715000
2,282387	-14,823595	96,273	-0,112301	22,370000	52,715000
2,280893	-15,343069	96,442	-0,112512	22,370000	52,715000
2,279455	-15,148716	96,592	-0,112433	22,370000	52,715000
2,277939	-16,086888	96,743	-0,112815	22,370000	52,715000
2,276424	-15,668189	96,906	-0,112645	22,370000	52,715000
2,274979	-15,668189	97,057	-0,112645	22,370000	52,715000
2,273400	-17,098242	97,234	-0,113227	22,370000	52,715000
2,271986	-16,903889	97,385	-0,113147	22,370000	52,715000
2,270422	-17,423363	97,536	-0,113359	22,370000	52,715000
2,268955	-17,423363	97,707	-0,113359	22,370000	52,715000
2,267429	-17,163026	97,857	-0,113253	22,370000	52,715000
2,265880	-15,472637	98,013	-0,112565	22,370000	52,715000
2,264416	-15,017948	98,164	-0,112380	22,370000	52,715000
2,262922	-15,343069	98,316	-0,112512	22,370000	52,715000
2,261469	-13,848232	98,493	-0,111904	22,370000	52,715000
2,259891	-13,133206	98,643	-0,111613	22,370000	52,715000
2,258456	-12,937654	98,804	-0,111533	22,370000	52,715000
2,256889	-12,742101	98,954	-0,111454	22,370000	52,715000
2,255406	-12,547748	99,106	-0,111375	22,370000	52,715000
2,253928	-10,792575	99,275	-0,110660	22,370000	52,715000
2,252428	-10,142333	99,425	-0,110396	22,370000	52,715000
2,250915	-9,556876	99,576	-0,110157	22,370000	52,715000
2,249396	-9,036202	99,745	-0,109945	22,370000	52,715000
2,247961	-8,777065	99,896	-0,109840	22,370000	52,715000
2,246412	-8,256392	100,068	-0,109628	22,370000	52,715000
2,244944	-7,281029	100,219	-0,109231	22,370000	52,715000
2,243487	-7,086677	100,370	-0,109152	22,370000	52,715000
2,241971	-7,021892	100,547	-0,109125	22,370000	52,715000
2,240439	-5,850977	100,697	-0,108649	22,370000	52,715000
2,238966	-5,786193	100,865	-0,108623	22,370000	52,715000
2,237431	-5,396288	101,015	-0,108464	22,370000	52,715000
2,235912	-4,420925	101,165	-0,108067	22,370000	52,715000
2,234413	-4,485709	101,345	-0,108093	22,370000	52,715000
2,232988	-3,641114	101,497	-0,107750	22,370000	52,715000
2,231434	-4,160588	101,656	-0,107961	22,370000	52,715000
2,229916	-3,314794	101,806	-0,107617	22,370000	52,715000
2,228466	-2,145078	101,957	-0,107141	22,370000	52,715000
2,226951	-2,405415	102,135	-0,107247	22,360000	52,685000
2,225433	-2,534983	102,285	-0,107299	22,360000	52,685000
2,223963	-1,819957	102,446	-0,107008	22,360000	52,685000
2,222453	0,064784	102,597	-0,106241	22,360000	52,685000
2,220976	0,391105	102,747	-0,106108	22,360000	52,685000
2,219452	0,585458	102,916	-0,106029	22,360000	52,685000
2,217872	0,454689	103,068	-0,106083	22,360000	52,685000
2,216392	0,391105	103,246	-0,106108	22,360000	52,685000
2,214952	0,520673	103,396	-0,106056	22,360000	52,685000
2,213443	0,454689	103,546	-0,106083	22,360000	52,685000
2,211926	0,391105	103,708	-0,106108	22,360000	52,685000
2,210434	0,195552	103,858	-0,106188	22,360000	52,685000
2,208980	0,000000	104,010	-0,106268	22,360000	52,685000
2,207447	0,000000	104,161	-0,106268	22,360000	52,700000
2,205861	0,325121	104,312	-0,106135	22,360000	52,700000
2,204426	0,000000	104,486	-0,106268	22,360000	52,700000
2,202932	0,845794	104,636	-0,105923	22,360000	52,700000
2,201478	0,715026	104,810	-0,105977	22,360000	52,700000
2,199918	0,520673	104,960	-0,106056	22,360000	52,700000
2,198446	0,391105	105,110	-0,106108	22,360000	52,700000
2,196912	0,520673	105,271	-0,106056	22,360000	52,700000
2,195471	0,195552	105,423	-0,106188	22,360000	52,700000
2,194013	0,130768	105,573	-0,106214	22,360000	52,700000
2,192375	0,260337	105,751	-0,106162	22,360000	52,700000
2,190941	0,650242	105,901	-0,106003	22,360000	52,700000
2,189486	0,585458	106,071	-0,106029	22,350000	52,725000
2,187879	0,130768	106,222	-0,106214	22,350000	52,725000
2,186422	0,000000	106,373	-0,106268	22,350000	52,725000
2,184927	0,520673	106,552	-0,106056	22,350000	52,725000
2,183411	0,715026	106,703	-0,105977	22,350000	52,725000
2,181910	0,130768	106,875	-0,106214	22,350000	52,725000
2,180424	0,520673	107,026	-0,106056	22,350000	52,725000
2,178921	0,000000	107,210	-0,106268	22,350000	52,725000
2,177440	0,000000	107,361	-0,106268	22,350000	52,725000
2,175921	0,391105	107,512	-0,106108	22,350000	52,725000
2,174410	-0,454689	107,663	-0,106453	22,350000	52,725000
2,172882	0,195552	107,814	-0,106188	22,350000	52,725000
2,171492	0,454689	107,965	-0,106083	22,350000	52,725000
2,169946	0,520673	108,126	-0,106056	22,360000	52,710000
2,168428	0,325121	108,276	-0,106135	22,360000	52,710000
2,166903	0,520673	108,446	-0,106056	22,360000	52,710000
2,165449	0,130768	108,597	-0,106214	22,360000	52,710000
2,163833	0,520673	108,747	-0,106056	22,360000	52,710000
2,162426	0,520673	108,921	-0,106056	22,360000	52,710000
2,160936	0,454689	109,072	-0,106083	22,360000	52,710000
2,159464	0,454689	109,257	-0,106083	22,360000	52,710000
2,157979	0,130768	109,408	-0,106214	22,360000	52,710000
2,156469	0,260337	109,558	-0,106162	22,360000	52,710000
2,154938	0,520673	109,730	-0,106056	22,360000	52,710000
2,153422	0,781010	109,882	-0,105950	22,360000	52,710000
2,151916	0,715026	110,050	-0,105977	22,360000	52,710000
2,150386	-0,129568	110,201	-0,106320	22,360000	52,710000
2,148921	0,260337	110,352	-0,106162	22,360000	52,710000
2,147400	0,064784	110,516	-0,106241	22,360000	52,710000
2,145961	0,000000	110,667	-0,106268	22,360000	52,710000
2,144426	0,391105	110,824	-0,106108	22,360000	52,710000
2,142924	0,585458	110,975	-0,106029	22,360000	52,710000
2,141454	0,064784	111,126	-0,106241	22,360000	52,710000
2,139914	0,391105	111,286	-0,106108	22,360000	52,710000
2,138411	0,975363	111,437	-0,105871	22,360000	52,710000
2,136949	0,454689	111,588	-0,106083	22,360000	52,710000
2,135472	0,845794	111,754	-0,105923	22,360000	52,710000
2,133887	0,454689	111,906	-0,106083	22,360000	52,710000
2,132395	0,000000	112,063	-0,106268	22,360000	52,710000
2,130938	0,325121	112,214	-0,106135	22,360000	52,710000
2,129447	0,391105	112,365	-0,106108	22,360000	52,710000
2,127948	0,715026	112,528	-0,105977	22,360000	52,710000
2,126425	0,391105	112,678	-0,106108	22,360000	52,710000
2,124969	0,520673	112,850	-0,106056	22,360000	52,710000
2,123412	0,325121	113,000	-0,106135	22,360000	52,710000
2,121943	0,454689	113,151	-0,106083	22,360000	52,710000
2,120372	0,845794	113,326	-0,105923	22,360000	52,710000
2,119929	-0,194353	113,376	-0,106347	22,360000	52,710000