File: Nanoindentation Datenauswertung/data/PDMS/EM-PDMS-50-10-50-0,5um-5
Quasi static measurement routine
Tip parameters (shape,radius, material...)
15.08.2022

Piezo position[nm]	MEMS displ.[nm]	Time[ms]	Cap [pf]	Temp [°C]	Rh [%]
eoh
2,660000	0,000000	0,214	-0,106108	22,370000	52,730000
2,661536	-0,195552	0,366	-0,106188	22,370000	52,730000
2,663024	-0,065984	0,518	-0,106135	22,370000	52,730000
2,664563	-0,391105	0,669	-0,106268	22,370000	52,730000
2,666009	-0,391105	0,821	-0,106268	22,370000	52,730000
2,667492	-0,326321	0,972	-0,106241	22,370000	52,730000
2,669022	0,323921	1,123	-0,105977	22,370000	52,730000
2,670520	-0,195552	1,273	-0,106188	22,370000	52,715000
2,671966	0,063585	1,424	-0,106083	22,370000	52,715000
2,673499	-0,391105	1,574	-0,106268	22,370000	52,715000
2,674996	0,323921	1,726	-0,105977	22,370000	52,715000
2,676527	0,194353	1,876	-0,106029	22,370000	52,715000
2,677964	-0,650242	2,035	-0,106373	22,370000	52,715000
2,679485	0,129568	2,185	-0,106056	22,370000	52,715000
2,681045	-0,455889	2,335	-0,106294	22,370000	52,715000
2,682510	0,063585	2,486	-0,106083	22,370000	52,715000
2,684029	0,129568	2,639	-0,106056	22,370000	52,715000
2,685484	-0,130768	2,791	-0,106162	22,370000	52,715000
2,686978	-0,391105	2,943	-0,106268	22,370000	52,715000
2,688551	0,129568	3,094	-0,106056	22,370000	52,715000
2,690053	-0,065984	3,246	-0,106135	22,370000	52,715000
2,691535	0,129568	3,397	-0,106056	22,360000	52,700000
2,693009	-0,326321	3,547	-0,106241	22,360000	52,700000
2,694500	-0,585458	3,698	-0,106347	22,360000	52,700000
2,696019	0,000000	3,848	-0,106108	22,360000	52,700000
2,697561	-0,065984	4,000	-0,106135	22,360000	52,700000
2,698974	-0,130768	4,151	-0,106162	22,360000	52,700000
2,700534	0,063585	4,302	-0,106083	22,360000	52,700000
2,701976	-0,391105	4,453	-0,106268	22,360000	52,700000
2,703530	-0,195552	4,604	-0,106188	22,360000	52,700000
2,704986	-0,065984	4,755	-0,106135	22,360000	52,700000
2,706573	0,000000	4,906	-0,106108	22,360000	52,700000
2,708009	-0,130768	5,057	-0,106162	22,360000	52,700000
2,709525	0,063585	5,207	-0,106083	22,360000	52,700000
2,710993	-0,260337	5,358	-0,106214	22,360000	52,710000
2,712461	0,259137	5,508	-0,106003	22,360000	52,710000
2,713988	-0,391105	5,660	-0,106268	22,360000	52,710000
2,715490	0,000000	5,810	-0,106108	22,360000	52,710000
2,716931	0,000000	5,960	-0,106108	22,360000	52,710000
2,718541	-0,326321	6,111	-0,106241	22,360000	52,710000
2,719974	0,129568	6,263	-0,106056	22,360000	52,710000
2,721503	-0,391105	6,413	-0,106268	22,360000	52,710000
2,723018	-0,391105	6,563	-0,106268	22,360000	52,710000
2,724501	0,259137	6,713	-0,106003	22,360000	52,710000
2,725979	0,063585	6,863	-0,106083	22,360000	52,710000
2,727524	0,063585	7,033	-0,106083	22,360000	52,710000
2,728977	0,323921	7,184	-0,105977	22,360000	52,710000
2,730476	-0,130768	7,334	-0,106162	22,360000	52,710000
2,732004	-0,391105	7,484	-0,106268	22,360000	52,710000
2,733528	0,519474	7,635	-0,105897	22,360000	52,710000
2,734985	-0,326321	7,790	-0,106241	22,360000	52,710000
2,736515	0,129568	7,940	-0,106056	22,360000	52,710000
2,738016	-0,130768	8,091	-0,106162	22,360000	52,710000
2,739517	-0,260337	8,241	-0,106214	22,360000	52,710000
2,740958	0,323921	8,398	-0,105977	22,360000	52,710000
2,742474	-0,130768	8,549	-0,106162	22,360000	52,710000
2,743994	-0,455889	8,700	-0,106294	22,360000	52,710000
2,745546	0,063585	8,853	-0,106083	22,360000	52,710000
2,747015	-0,130768	9,004	-0,106162	22,360000	52,710000
2,748572	0,584258	9,155	-0,105871	22,360000	52,710000
2,750002	0,129568	9,305	-0,106056	22,370000	52,715000
2,751563	0,000000	9,455	-0,106108	22,370000	52,715000
2,752992	0,063585	9,605	-0,106083	22,370000	52,715000
2,754487	-0,065984	9,755	-0,106135	22,370000	52,715000
2,756046	0,063585	9,905	-0,106083	22,370000	52,715000
2,757465	-0,326321	10,056	-0,106241	22,370000	52,715000
2,759029	0,063585	10,206	-0,106083	22,370000	52,715000
2,760508	-0,065984	10,358	-0,106135	22,370000	52,715000
2,762019	-0,130768	10,509	-0,106162	22,370000	52,715000
2,763470	-0,520673	10,659	-0,106320	22,370000	52,715000
2,765022	-0,260337	10,809	-0,106214	22,370000	52,715000
2,766497	-0,391105	10,962	-0,106268	22,370000	52,715000
2,768005	-0,130768	11,114	-0,106162	22,370000	52,715000
2,769532	-0,326321	11,264	-0,106241	22,370000	52,715000
2,771037	0,000000	11,414	-0,106108	22,370000	52,715000
2,772536	-0,391105	11,565	-0,106268	22,370000	52,715000
2,773934	0,129568	11,716	-0,106056	22,370000	52,715000
2,775497	-0,260337	11,866	-0,106214	22,370000	52,715000
2,776992	0,063585	12,017	-0,106083	22,370000	52,715000
2,778490	-0,130768	12,168	-0,106162	22,370000	52,715000
2,779967	-0,455889	12,318	-0,106294	22,370000	52,715000
2,781492	0,519474	12,468	-0,105897	22,370000	52,715000
2,782969	0,584258	12,620	-0,105871	22,370000	52,715000
2,784503	0,129568	12,770	-0,106056	22,370000	52,715000
2,785978	-0,326321	12,921	-0,106241	22,370000	52,715000
2,787492	-0,391105	13,071	-0,106268	22,370000	52,715000
2,789002	-0,326321	13,222	-0,106241	22,370000	52,715000
2,790523	-0,065984	13,375	-0,106135	22,370000	52,740000
2,792025	0,000000	13,526	-0,106108	22,370000	52,740000
2,793496	-0,195552	13,682	-0,106188	22,370000	52,740000
2,794965	0,129568	13,833	-0,106056	22,370000	52,740000
2,796480	-1,041347	13,983	-0,106532	22,370000	52,740000
2,798034	-0,195552	14,134	-0,106188	22,370000	52,740000
2,799505	-0,391105	14,286	-0,106268	22,370000	52,740000
2,800974	-0,195552	14,438	-0,106188	22,370000	52,740000
2,802524	0,063585	14,593	-0,106083	22,370000	52,740000
2,804020	0,000000	14,743	-0,106108	22,370000	52,740000
2,805516	-0,391105	14,894	-0,106268	22,370000	52,740000
2,807028	0,323921	15,047	-0,105977	22,370000	52,740000
2,808522	-0,195552	15,198	-0,106188	22,370000	52,740000
2,810015	-0,260337	15,349	-0,106214	22,370000	52,740000
2,811508	-0,195552	15,499	-0,106188	22,370000	52,740000
2,812984	0,129568	15,651	-0,106056	22,370000	52,740000
2,814484	0,063585	15,802	-0,106083	22,370000	52,740000
2,816032	0,000000	15,952	-0,106108	22,370000	52,740000
2,817499	-0,065984	16,103	-0,106135	22,370000	52,740000
2,818976	0,323921	16,253	-0,105977	22,370000	52,740000
2,820542	-0,195552	16,403	-0,106188	22,370000	52,740000
2,821984	0,259137	16,554	-0,106003	22,370000	52,740000
2,823495	0,259137	16,704	-0,106003	22,370000	52,740000
2,824985	0,194353	16,854	-0,106029	22,370000	52,740000
2,826493	0,194353	17,005	-0,106029	22,370000	52,740000
2,827963	-1,950726	17,156	-0,106902	22,370000	52,740000
2,829490	-1,041347	17,307	-0,106532	22,370000	52,740000
2,831019	-1,625605	17,457	-0,106770	22,370000	52,755000
2,832495	-1,106131	17,608	-0,106559	22,370000	52,755000
2,834016	-0,976562	17,759	-0,106506	22,370000	52,755000
2,835550	-0,455889	17,909	-0,106294	22,370000	52,755000
2,836973	-0,391105	18,059	-0,106268	22,370000	52,755000
2,838507	0,063585	18,209	-0,106083	22,370000	52,755000
2,839978	0,194353	18,359	-0,106029	22,370000	52,755000
2,841519	0,194353	18,513	-0,106029	22,370000	52,755000
2,842992	0,649042	18,663	-0,105844	22,370000	52,755000
2,844504	1,038947	18,813	-0,105686	22,370000	52,755000
2,845963	0,974163	18,963	-0,105712	22,370000	52,755000
2,847510	0,063585	19,114	-0,106083	22,370000	52,755000
2,849057	1,234500	19,266	-0,105606	22,370000	52,755000
2,850522	1,624405	19,416	-0,105447	22,370000	52,755000
2,852035	1,884742	19,566	-0,105341	22,370000	52,755000
2,853439	1,949526	19,716	-0,105315	22,370000	52,755000
2,855001	2,599768	19,867	-0,105050	22,370000	52,755000
2,856477	2,209863	20,019	-0,105209	22,370000	52,755000
2,858015	2,079094	20,171	-0,105262	22,370000	52,755000
2,859461	2,079094	20,321	-0,105262	22,370000	52,755000
2,860999	2,470199	20,473	-0,105103	22,370000	52,755000
2,862513	2,860104	20,625	-0,104944	22,370000	52,755000
2,864075	2,795320	20,776	-0,104971	22,370000	52,755000
2,865494	3,639915	20,927	-0,104627	22,370000	52,755000
2,867025	3,250010	21,079	-0,104786	22,370000	52,755000
2,868508	3,639915	21,229	-0,104627	22,370000	52,755000
2,869968	3,639915	21,379	-0,104627	22,370000	52,730000
2,871455	4,029820	21,530	-0,104468	22,370000	52,730000
2,873003	4,094604	21,682	-0,104442	22,370000	52,730000
2,874492	4,875614	21,836	-0,104124	22,370000	52,730000
2,876010	4,420925	21,987	-0,104309	22,370000	52,730000
2,877477	5,005183	22,138	-0,104071	22,370000	52,730000
2,878983	4,875614	22,289	-0,104124	22,370000	52,730000
2,880494	5,850977	22,442	-0,103727	22,370000	52,730000
2,881986	5,655425	22,602	-0,103807	22,370000	52,730000
2,883560	5,915761	22,752	-0,103701	22,370000	52,730000
2,884994	5,720209	22,904	-0,103780	22,370000	52,730000
2,886527	6,566003	23,055	-0,103436	22,370000	52,730000
2,888005	5,395088	23,205	-0,103913	22,370000	52,730000
2,889469	6,566003	23,355	-0,103436	22,370000	52,730000
2,891044	6,630787	23,507	-0,103410	22,370000	52,730000
2,892518	6,501219	23,659	-0,103462	22,370000	52,730000
2,894003	6,630787	23,810	-0,103410	22,370000	52,730000
2,895552	7,800503	23,961	-0,102934	22,370000	52,730000
2,896946	7,800503	24,113	-0,102934	22,370000	52,730000
2,898522	7,800503	24,264	-0,102934	22,370000	52,730000
2,899998	7,735719	24,416	-0,102960	22,370000	52,730000
2,901475	7,800503	24,569	-0,102934	22,370000	52,730000
2,903003	8,516729	24,720	-0,102642	22,370000	52,730000
2,904469	8,775866	24,871	-0,102537	22,370000	52,730000
2,906037	8,385961	25,022	-0,102695	22,370000	52,730000
2,907517	9,556876	25,173	-0,102219	22,370000	52,730000
2,908983	9,036202	25,323	-0,102431	22,360000	52,725000
2,910478	9,426108	25,474	-0,102272	22,360000	52,725000
2,912058	9,100987	25,626	-0,102404	22,360000	52,725000
2,913516	9,361323	25,776	-0,102298	22,360000	52,725000
2,915049	9,946781	25,927	-0,102060	22,360000	52,725000
2,916517	9,881997	26,078	-0,102086	22,360000	52,725000
2,917984	10,466255	26,229	-0,101849	22,360000	52,725000
2,919507	10,532239	26,379	-0,101822	22,360000	52,725000
2,920972	10,401470	26,530	-0,101875	22,360000	52,725000
2,922515	11,312049	26,681	-0,101504	22,360000	52,725000
2,923999	10,791376	26,832	-0,101716	22,360000	52,725000
2,925480	11,246065	26,984	-0,101531	22,360000	52,725000
2,926992	10,986928	27,135	-0,101637	22,360000	52,725000
2,928484	11,572386	27,286	-0,101398	22,370000	52,730000
2,930008	11,962291	27,437	-0,101240	22,370000	52,730000
2,931497	11,896307	27,589	-0,101267	22,370000	52,730000
2,932996	13,002438	27,743	-0,100816	22,370000	52,730000
2,934441	13,002438	27,906	-0,100816	22,370000	52,730000
2,935984	12,871670	28,059	-0,100870	22,370000	52,730000
2,937464	12,937654	28,210	-0,100843	22,370000	52,730000
2,938980	13,782248	28,363	-0,100499	22,370000	52,730000
2,940536	13,717464	28,517	-0,100525	22,370000	52,730000
2,942008	13,392343	28,668	-0,100658	22,370000	52,730000
2,943497	14,238137	28,820	-0,100313	22,370000	52,730000
2,944987	14,172153	28,971	-0,100340	22,370000	52,730000
2,946530	14,042585	29,123	-0,100393	22,370000	52,730000
2,947978	14,562059	29,274	-0,100182	22,370000	52,730000
2,949496	14,367706	29,426	-0,100261	22,370000	52,755000
2,950977	14,692827	29,578	-0,100128	22,370000	52,755000
2,952546	14,562059	29,731	-0,100182	22,370000	52,755000
2,954027	14,953163	29,883	-0,100022	22,370000	52,755000
2,955443	14,692827	30,034	-0,100128	22,370000	52,755000
2,957005	15,797758	30,190	-0,099679	22,370000	52,755000
2,958496	15,212300	30,341	-0,099917	22,370000	52,755000
2,960009	15,147516	30,503	-0,099943	22,370000	52,755000
2,961513	15,603405	30,653	-0,099758	22,370000	52,755000
2,963038	15,603405	30,804	-0,099758	22,370000	52,755000
2,964476	16,058095	30,960	-0,099573	22,370000	52,755000
2,966014	16,253647	31,111	-0,099493	22,370000	52,755000
2,967503	15,862542	31,267	-0,099652	22,370000	52,755000
2,969007	17,227810	31,417	-0,099097	22,360000	52,710000
2,970485	16,318431	31,567	-0,099467	22,360000	52,710000
2,971997	17,163026	31,717	-0,099123	22,360000	52,710000
2,973489	16,967474	31,867	-0,099203	22,360000	52,710000
2,974981	17,163026	32,017	-0,099123	22,360000	52,710000
2,976519	16,967474	32,168	-0,099203	22,360000	52,710000
2,977981	17,098242	32,319	-0,099149	22,360000	52,710000
2,979546	17,813268	32,469	-0,098858	22,360000	52,710000
2,980957	17,358578	32,619	-0,099043	22,360000	52,710000
2,982476	17,683699	32,772	-0,098911	22,360000	52,710000
2,983987	18,267957	32,922	-0,098673	22,360000	52,710000
2,985477	18,073604	33,072	-0,098752	22,360000	52,710000
2,986983	18,203173	33,222	-0,098700	22,360000	52,710000
2,988544	18,723846	33,378	-0,098488	22,360000	52,710000
2,989998	18,853415	33,529	-0,098435	22,360000	52,710000
2,991516	18,918199	33,679	-0,098409	22,360000	52,710000
2,993034	18,853415	33,831	-0,098435	22,360000	52,710000
2,994423	18,853415	33,982	-0,098435	22,360000	52,710000
2,995961	18,788631	34,133	-0,098461	22,360000	52,710000
2,997503	18,593078	34,283	-0,098541	22,360000	52,710000
2,999021	18,528294	34,434	-0,098567	22,360000	52,710000
3,000474	18,398725	34,598	-0,098620	22,360000	52,710000
3,001989	18,918199	34,749	-0,098409	22,360000	52,710000
3,003515	18,528294	34,899	-0,098567	22,360000	52,710000
3,004988	19,309304	35,050	-0,098250	22,360000	52,710000
3,006483	18,723846	35,201	-0,098488	22,360000	52,710000
3,008010	19,438872	35,351	-0,098197	22,370000	52,740000
3,009446	19,438872	35,503	-0,098197	22,370000	52,740000
3,011015	18,982983	35,653	-0,098382	22,370000	52,740000
3,012484	19,503657	35,811	-0,098170	22,370000	52,740000
3,014010	18,788631	35,962	-0,098461	22,370000	52,740000
3,015564	18,918199	36,123	-0,098409	22,370000	52,740000
3,017001	19,178536	36,276	-0,098303	22,370000	52,740000
3,018486	19,699209	36,426	-0,098091	22,370000	52,740000
3,019984	19,438872	36,579	-0,098197	22,370000	52,740000
3,021467	19,438872	36,729	-0,098197	22,370000	52,740000
3,023002	19,958346	36,880	-0,097985	22,370000	52,740000
3,024464	20,349451	37,032	-0,097826	22,370000	52,740000
3,025967	20,283467	37,183	-0,097853	22,370000	52,740000
3,027533	20,543804	37,333	-0,097747	22,370000	52,730000
3,028966	20,608588	37,485	-0,097721	22,370000	52,730000
3,030469	20,414235	37,635	-0,097800	22,370000	52,730000
3,031991	20,804140	37,793	-0,097641	22,370000	52,730000
3,033461	20,608588	37,944	-0,097721	22,370000	52,730000
3,034972	19,893562	38,094	-0,098012	22,370000	52,730000
3,036513	19,243320	38,244	-0,098276	22,370000	52,730000
3,038059	20,089114	38,398	-0,097932	22,370000	52,730000
3,039495	20,868925	38,549	-0,097615	22,370000	52,730000
3,040965	21,064477	38,699	-0,097535	22,370000	52,730000
3,042479	21,779503	38,850	-0,097244	22,370000	52,730000
3,044013	21,454382	39,022	-0,097376	22,370000	52,730000
3,045472	21,714719	39,174	-0,097271	22,370000	52,730000
3,047002	21,844287	39,326	-0,097218	22,360000	52,700000
3,048455	22,429745	39,477	-0,096979	22,360000	52,700000
3,049999	22,754866	39,629	-0,096847	22,360000	52,700000
3,051507	22,559314	39,780	-0,096927	22,360000	52,700000
3,052957	22,754866	39,932	-0,096847	22,360000	52,700000
3,054511	22,754866	40,096	-0,096847	22,360000	52,700000
3,055981	22,819650	40,256	-0,096821	22,360000	52,700000
3,057471	23,144771	40,406	-0,096688	22,360000	52,700000
3,058984	24,770376	40,565	-0,096027	22,360000	52,700000
3,060479	23,859797	40,716	-0,096397	22,360000	52,700000
3,062004	23,599461	40,866	-0,096503	22,360000	52,700000
3,063481	24,184918	41,016	-0,096265	22,360000	52,700000
3,064939	24,574823	41,168	-0,096106	22,360000	52,700000
3,066505	24,899944	41,326	-0,095974	22,370000	52,740000
3,068024	24,639608	41,478	-0,096080	22,370000	52,740000
3,069414	25,225065	41,628	-0,095842	22,370000	52,740000
3,071048	25,679755	41,790	-0,095657	22,370000	52,740000
3,072440	25,550186	41,941	-0,095709	22,370000	52,740000
3,073990	26,069660	42,102	-0,095498	22,370000	52,740000
3,075476	25,744539	42,255	-0,095630	22,370000	52,740000
3,076949	25,094297	42,405	-0,095895	22,370000	52,740000
3,078502	25,485402	42,557	-0,095736	22,370000	52,740000
3,079968	25,940091	42,708	-0,095551	22,370000	52,740000
3,081452	25,679755	42,859	-0,095657	22,370000	52,740000
3,082970	26,200428	43,018	-0,095445	22,370000	52,740000
3,084487	26,004876	43,170	-0,095524	22,370000	52,740000
3,086008	25,940091	43,329	-0,095551	22,370000	52,740000
3,087504	26,525549	43,479	-0,095313	22,370000	52,740000
3,088944	26,069660	43,630	-0,095498	22,370000	52,740000
3,090473	26,069660	43,783	-0,095498	22,370000	52,740000
3,091987	26,785886	43,937	-0,095207	22,370000	52,740000
3,093449	26,719902	44,090	-0,095233	22,370000	52,740000
3,095031	27,109807	44,242	-0,095075	22,370000	52,740000
3,096477	27,630480	44,393	-0,094863	22,370000	52,740000
3,097983	27,370144	44,544	-0,094969	22,370000	52,740000
3,099465	27,500912	44,696	-0,094916	22,370000	52,740000
3,100942	28,020385	44,847	-0,094704	22,370000	52,740000
3,102481	28,866180	44,998	-0,094360	22,370000	52,740000
3,103976	28,670627	45,148	-0,094439	22,370000	52,740000
3,105485	29,191301	45,299	-0,094228	22,370000	52,715000
3,106961	28,800196	45,450	-0,094387	22,370000	52,715000
3,108466	29,191301	45,600	-0,094228	22,370000	52,715000
3,109966	29,581206	45,752	-0,094069	22,370000	52,715000
3,111469	29,971111	45,903	-0,093910	22,370000	52,715000
3,113009	29,906327	46,054	-0,093937	22,370000	52,715000
3,114459	29,645990	46,204	-0,094042	22,370000	52,715000
3,115962	30,686137	46,355	-0,093619	22,370000	52,715000
3,117488	30,815706	46,511	-0,093566	22,370000	52,715000
3,118983	30,556569	46,662	-0,093672	22,370000	52,715000
3,120481	30,946474	46,815	-0,093513	22,370000	52,715000
3,121998	31,401163	46,968	-0,093328	22,370000	52,715000
3,123509	31,271595	47,118	-0,093381	22,370000	52,715000
3,124966	31,531931	47,268	-0,093275	22,370000	52,715000
3,126488	31,855853	47,419	-0,093143	22,360000	52,725000
3,127964	33,091552	47,569	-0,092640	22,360000	52,725000
3,129483	32,507294	47,734	-0,092878	22,360000	52,725000
3,130996	33,287105	47,884	-0,092561	22,360000	52,725000
3,132482	33,416673	48,034	-0,092508	22,360000	52,725000
3,133980	34,392036	48,186	-0,092111	22,360000	52,725000
3,135452	34,066915	48,336	-0,092243	22,360000	52,725000
3,136944	33,741794	48,506	-0,092375	22,360000	52,725000
3,138488	34,066915	48,658	-0,092243	22,360000	52,725000
3,139961	34,587588	48,808	-0,092031	22,360000	52,725000
3,141449	34,521604	48,959	-0,092058	22,360000	52,725000
3,142978	33,677010	49,110	-0,092402	22,360000	52,725000
3,144504	35,171846	49,260	-0,091793	22,360000	52,725000
3,145989	34,912709	49,413	-0,091899	22,370000	52,730000
3,147451	35,367399	49,563	-0,091714	22,370000	52,730000
3,148967	35,432183	49,723	-0,091688	22,370000	52,730000
3,150484	36,342761	49,873	-0,091317	22,370000	52,730000
3,151989	36,603098	50,025	-0,091211	22,370000	52,730000
3,153503	37,187356	50,194	-0,090973	22,370000	52,730000
3,154963	36,862235	50,344	-0,091105	22,370000	52,730000
3,156489	36,797451	50,494	-0,091132	22,370000	52,730000
3,157960	37,447693	50,646	-0,090867	22,370000	52,730000
3,159441	38,033150	50,796	-0,090629	22,370000	52,730000
3,159962	37,708029	50,946	-0,090761	22,370000	52,730000
3,159950	36,993003	51,097	-0,091052	22,370000	52,730000
3,160021	36,993003	51,249	-0,091052	22,370000	52,730000
3,160006	37,253340	51,423	-0,090946	22,370000	52,730000
3,159982	37,512477	51,573	-0,090841	22,370000	52,730000
3,159966	36,862235	51,736	-0,091105	22,370000	52,730000
3,159963	36,927019	51,886	-0,091079	22,370000	52,730000
3,160011	36,797451	52,037	-0,091132	22,370000	52,730000
3,160001	37,512477	52,187	-0,090841	22,370000	52,730000
3,159980	36,797451	52,337	-0,091132	22,370000	52,730000
3,159981	36,732667	52,496	-0,091158	22,370000	52,730000
3,159997	36,472330	52,647	-0,091264	22,370000	52,730000
3,159925	36,407546	52,798	-0,091291	22,370000	52,730000
3,159947	36,276777	52,949	-0,091344	22,370000	52,730000
3,159976	35,952856	53,100	-0,091476	22,370000	52,730000
3,159969	36,603098	53,251	-0,091211	22,370000	52,730000
3,159994	36,017641	53,404	-0,091449	22,370000	52,730000
3,159971	36,342761	53,554	-0,091317	22,370000	52,730000
3,159976	36,276777	53,705	-0,091344	22,370000	52,730000
3,159968	35,692520	53,855	-0,091582	22,370000	52,730000
3,159955	35,757304	54,005	-0,091555	22,370000	52,730000
3,159966	36,797451	54,155	-0,091132	22,370000	52,730000
3,159989	35,627735	54,305	-0,091608	22,370000	52,730000
3,159939	35,171846	54,456	-0,091793	22,370000	52,730000
3,159977	35,432183	54,611	-0,091688	22,370000	52,730000
3,159972	35,627735	54,763	-0,091608	22,370000	52,730000
3,159987	36,082425	54,927	-0,091423	22,370000	52,730000
3,159955	35,886872	55,077	-0,091502	22,370000	52,730000
3,159943	35,627735	55,230	-0,091608	22,370000	52,730000
3,159980	35,367399	55,383	-0,091714	22,370000	52,730000
3,159934	35,236630	55,533	-0,091767	22,370000	52,730000
3,159978	35,692520	55,694	-0,091582	22,370000	52,730000
3,159993	35,302614	55,844	-0,091740	22,370000	52,730000
3,159990	35,562951	55,994	-0,091634	22,370000	52,730000
3,159970	35,627735	56,156	-0,091608	22,370000	52,730000
3,160001	35,562951	56,307	-0,091634	22,370000	52,730000
3,159976	35,432183	56,458	-0,091688	22,370000	52,730000
3,159944	35,432183	56,609	-0,091688	22,370000	52,730000
3,159931	35,822088	56,759	-0,091529	22,370000	52,730000
3,159935	35,367399	56,919	-0,091714	22,370000	52,730000
3,159998	35,432183	57,069	-0,091688	22,370000	52,730000
3,159939	35,042278	57,220	-0,091846	22,370000	52,730000
3,159970	35,236630	57,377	-0,091767	22,370000	52,740000
3,159948	34,781941	57,527	-0,091952	22,370000	52,740000
3,159941	35,692520	57,677	-0,091582	22,370000	52,740000
3,160009	35,236630	57,830	-0,091767	22,370000	52,740000
3,159976	35,171846	57,981	-0,091793	22,370000	52,740000
3,159985	34,652373	58,149	-0,092005	22,370000	52,740000
3,159980	34,652373	58,299	-0,092005	22,370000	52,740000
3,159932	34,846725	58,450	-0,091926	22,370000	52,740000
3,160001	34,781941	58,600	-0,091952	22,370000	52,740000
3,159962	34,587588	58,751	-0,092031	22,370000	52,740000
3,160010	34,781941	58,909	-0,091952	22,370000	52,740000
3,159979	34,652373	59,062	-0,092005	22,370000	52,740000
3,159945	32,246958	59,214	-0,092984	22,370000	52,740000
3,159978	31,596716	59,373	-0,093249	22,370000	52,740000
3,159950	32,376526	59,525	-0,092931	22,370000	52,740000
3,159972	32,180974	59,677	-0,093011	22,370000	52,740000
3,159994	32,246958	59,835	-0,092984	22,370000	52,740000
3,159987	32,051405	59,987	-0,093063	22,370000	52,740000
3,159986	32,507294	60,155	-0,092878	22,370000	52,740000
3,159947	32,441310	60,306	-0,092905	22,370000	52,740000
3,159934	31,855853	60,456	-0,093143	22,370000	52,740000
3,159921	32,246958	60,606	-0,092984	22,370000	52,740000
3,159942	32,701647	60,756	-0,092799	22,370000	52,740000
3,159987	31,791068	60,910	-0,093169	22,370000	52,740000
3,159956	31,791068	61,060	-0,093169	22,370000	52,740000
3,158493	31,791068	61,210	-0,093169	22,370000	52,740000
3,156979	31,076042	61,361	-0,093460	22,360000	52,740000
3,155487	30,815706	61,511	-0,093566	22,360000	52,740000
3,153998	29,710774	61,663	-0,094016	22,360000	52,740000
3,152474	30,165464	61,813	-0,093831	22,360000	52,740000
3,150992	29,516422	61,963	-0,094095	22,360000	52,740000
3,149489	29,450438	62,117	-0,094122	22,360000	52,740000
3,147948	28,476275	62,268	-0,094519	22,360000	52,740000
3,146477	27,695265	62,419	-0,094836	22,360000	52,740000
3,144965	27,175791	62,571	-0,095048	22,360000	52,740000
3,143508	26,460765	62,722	-0,095339	22,360000	52,740000
3,141991	27,045023	62,917	-0,095101	22,360000	52,740000
3,140519	26,329997	63,068	-0,095392	22,360000	52,740000
3,138981	25,679755	63,218	-0,095657	22,360000	52,740000
3,137535	25,810523	63,369	-0,095604	22,370000	52,700000
3,135952	24,704392	63,520	-0,096054	22,370000	52,700000
3,134540	24,380471	63,670	-0,096186	22,370000	52,700000
3,132996	24,314487	63,821	-0,096212	22,370000	52,700000
3,131444	23,274340	63,991	-0,096636	22,370000	52,700000
3,129972	22,884435	64,168	-0,096794	22,370000	52,700000
3,128439	23,664245	64,319	-0,096477	22,370000	52,700000
3,126998	22,949219	64,472	-0,096768	22,370000	52,700000
3,125490	21,844287	64,623	-0,097218	22,370000	52,700000
3,123908	21,844287	64,773	-0,097218	22,370000	52,700000
3,122436	20,739356	64,938	-0,097667	22,370000	52,700000
3,120955	20,933709	65,090	-0,097588	22,370000	52,700000
3,119480	21,389598	65,240	-0,097403	22,370000	52,700000
3,117975	20,739356	65,397	-0,097667	22,370000	52,700000
3,116522	19,958346	65,550	-0,097985	22,370000	52,700000
3,114990	19,828778	65,712	-0,098038	22,370000	52,700000
3,113501	19,243320	65,863	-0,098276	22,370000	52,700000
3,111993	18,982983	66,013	-0,098382	22,370000	52,700000
3,110427	18,853415	66,167	-0,098435	22,370000	52,700000
3,108972	18,528294	66,328	-0,098567	22,370000	52,700000
3,107486	18,528294	66,479	-0,098567	22,370000	52,700000
3,105958	18,659062	66,642	-0,098514	22,370000	52,700000
3,104476	17,878052	66,795	-0,098832	22,370000	52,700000
3,102996	17,227810	66,957	-0,099097	22,370000	52,700000
3,101500	17,163026	67,107	-0,099123	22,370000	52,700000
3,099990	16,643552	67,258	-0,099334	22,360000	52,740000
3,098538	16,187663	67,409	-0,099520	22,360000	52,740000
3,096949	16,058095	67,559	-0,099573	22,360000	52,740000
3,095516	15,797758	67,721	-0,099679	22,360000	52,740000
3,093997	15,732974	67,872	-0,099705	22,360000	52,740000
3,092477	16,122879	68,023	-0,099546	22,360000	52,740000
3,090980	15,668189	68,175	-0,099731	22,360000	52,740000
3,089511	15,017948	68,326	-0,099996	22,360000	52,740000
3,087962	15,603405	68,477	-0,099758	22,360000	52,740000
3,086514	15,212300	68,634	-0,099917	22,360000	52,740000
3,084992	14,172153	68,784	-0,100340	22,360000	52,740000
3,083469	14,172153	68,951	-0,100340	22,360000	52,740000
3,081947	14,238137	69,101	-0,100313	22,360000	52,740000
3,080489	13,911817	69,251	-0,100446	22,360000	52,740000
3,078947	13,782248	69,407	-0,100499	22,370000	52,715000
3,077482	12,871670	69,562	-0,100870	22,370000	52,715000
3,075966	12,352196	69,716	-0,101081	22,370000	52,715000
3,074407	12,352196	69,866	-0,101081	22,370000	52,715000
3,073004	11,312049	70,016	-0,101504	22,370000	52,715000
3,071531	11,572386	70,176	-0,101398	22,370000	52,715000
3,069961	11,116496	70,326	-0,101584	22,370000	52,715000
3,068468	11,766738	70,476	-0,101319	22,370000	52,715000
3,067020	11,637170	70,627	-0,101372	22,370000	52,715000
3,065500	10,466255	70,777	-0,101849	22,370000	52,715000
3,063996	10,401470	70,927	-0,101875	22,370000	52,715000
3,062424	10,271902	71,079	-0,101928	22,370000	52,715000
3,060980	9,751229	71,229	-0,102140	22,370000	52,715000
3,059477	9,621660	71,394	-0,102192	22,360000	52,725000
3,057969	10,141134	71,544	-0,101981	22,360000	52,725000
3,056473	9,556876	71,694	-0,102219	22,360000	52,725000
3,055005	9,686444	71,853	-0,102166	22,360000	52,725000
3,053478	9,036202	72,003	-0,102431	22,360000	52,725000
3,051979	9,100987	72,155	-0,102404	22,360000	52,725000
3,050484	8,385961	72,306	-0,102695	22,360000	52,725000
3,048985	8,906634	72,458	-0,102483	22,360000	52,725000
3,047492	8,646297	72,608	-0,102589	22,360000	52,725000
3,045921	7,866487	72,761	-0,102907	22,360000	52,725000
3,044506	7,541366	72,918	-0,103039	22,360000	52,725000
3,043000	7,606150	73,070	-0,103013	22,360000	52,725000
3,041467	7,670934	73,231	-0,102986	22,360000	52,725000
3,039956	7,735719	73,382	-0,102960	22,370000	52,730000
3,038470	7,541366	73,543	-0,103039	22,370000	52,730000
3,037015	7,085477	73,693	-0,103225	22,370000	52,730000
3,035487	6,435235	73,856	-0,103489	22,370000	52,730000
3,033991	6,566003	74,006	-0,103436	22,370000	52,730000
3,032458	6,435235	74,173	-0,103489	22,370000	52,730000
3,031033	6,760356	74,326	-0,103357	22,370000	52,730000
3,029487	6,111314	74,478	-0,103621	22,370000	52,730000
3,027986	6,045330	74,628	-0,103648	22,370000	52,730000
3,026516	6,045330	74,778	-0,103648	22,370000	52,730000
3,025005	6,045330	74,930	-0,103648	22,370000	52,730000
3,023477	5,590640	75,082	-0,103833	22,370000	52,730000
3,021979	5,265519	75,233	-0,103965	22,370000	52,730000
3,020504	4,875614	75,384	-0,104124	22,370000	52,715000
3,018941	5,005183	75,534	-0,104071	22,370000	52,715000
3,017521	5,005183	75,689	-0,104071	22,370000	52,715000
3,015974	4,354941	75,849	-0,104336	22,370000	52,715000
3,014507	4,680062	76,002	-0,104204	22,370000	52,715000
3,013027	4,420925	76,168	-0,104309	22,370000	52,715000
3,011499	4,615278	76,318	-0,104230	22,370000	52,715000
3,010002	3,769483	76,469	-0,104574	22,370000	52,715000
3,008471	4,615278	76,636	-0,104230	22,370000	52,715000
3,006979	4,290157	76,793	-0,104362	22,370000	52,715000
3,005471	3,314794	76,963	-0,104759	22,370000	52,715000
3,003964	3,510346	77,114	-0,104680	22,370000	52,715000
3,002436	4,094604	77,264	-0,104442	22,370000	52,715000
3,000941	3,314794	77,425	-0,104759	22,370000	52,715000
2,999434	3,639915	77,576	-0,104627	22,370000	52,715000
2,997974	2,729336	77,738	-0,104998	22,370000	52,715000
2,996510	3,185225	77,889	-0,104812	22,370000	52,715000
2,995002	2,405415	78,041	-0,105129	22,370000	52,715000
2,993506	2,470199	78,213	-0,105103	22,370000	52,715000
2,991995	2,079094	78,364	-0,105262	22,370000	52,715000
2,990471	2,209863	78,516	-0,105209	22,370000	52,715000
2,989000	2,014310	78,666	-0,105289	22,370000	52,715000
2,987531	2,014310	78,817	-0,105289	22,370000	52,715000
2,985973	1,559621	78,990	-0,105474	22,370000	52,715000
2,984552	1,884742	79,141	-0,105341	22,370000	52,715000
2,982973	1,624405	79,292	-0,105447	22,360000	52,710000
2,981479	1,494836	79,459	-0,105500	22,360000	52,710000
2,979989	1,234500	79,610	-0,105606	22,360000	52,710000
2,978513	1,169716	79,783	-0,105632	22,360000	52,710000
2,977020	0,454689	79,934	-0,105923	22,360000	52,710000
2,975521	1,104931	80,086	-0,105659	22,360000	52,710000
2,974008	0,649042	80,241	-0,105844	22,360000	52,710000
2,972519	0,454689	80,392	-0,105923	22,360000	52,710000
2,970951	0,454689	80,563	-0,105923	22,360000	52,710000
2,969459	0,194353	80,713	-0,106029	22,360000	52,710000
2,967946	-0,260337	80,864	-0,106214	22,360000	52,710000
2,966473	-0,391105	81,040	-0,106268	22,360000	52,710000
2,964960	0,129568	81,192	-0,106056	22,360000	52,710000
2,963506	-0,391105	81,344	-0,106268	22,370000	52,700000
2,962014	-1,041347	81,496	-0,106532	22,370000	52,700000
2,960547	-0,130768	81,646	-0,106162	22,370000	52,700000
2,958984	-0,716226	81,815	-0,106400	22,370000	52,700000
2,957502	-1,106131	81,967	-0,106559	22,370000	52,700000
2,955985	-1,235699	82,126	-0,106611	22,370000	52,700000
2,954484	-1,300484	82,277	-0,106638	22,370000	52,700000
2,953021	-2,081494	82,429	-0,106956	22,370000	52,700000
2,951497	-1,235699	82,586	-0,106611	22,370000	52,700000
2,950022	-1,366468	82,737	-0,106665	22,370000	52,700000
2,948509	-1,821157	82,889	-0,106850	22,370000	52,700000
2,947020	-1,756373	83,039	-0,106823	22,370000	52,700000
2,945561	-1,366468	83,190	-0,106665	22,370000	52,700000
2,944022	-2,016710	83,340	-0,106929	22,370000	52,715000
2,942495	-1,496036	83,490	-0,106717	22,370000	52,715000
2,941019	-1,691589	83,649	-0,106797	22,370000	52,715000
2,939541	-2,471399	83,815	-0,107114	22,370000	52,715000
2,938022	-1,950726	83,966	-0,106902	22,370000	52,715000
2,936503	-2,341830	84,137	-0,107062	22,370000	52,715000
2,935033	-2,600967	84,287	-0,107167	22,370000	52,715000
2,933489	-2,081494	84,438	-0,106956	22,370000	52,715000
2,931967	-1,821157	84,589	-0,106850	22,370000	52,715000
2,930522	-1,821157	84,740	-0,106850	22,370000	52,715000
2,928967	-2,211062	84,893	-0,107008	22,370000	52,715000
2,927462	-1,885941	85,043	-0,106876	22,370000	52,715000
2,925969	-2,406615	85,193	-0,107088	22,370000	52,715000
2,924433	-2,992072	85,352	-0,107326	22,360000	52,725000
2,923044	-2,665752	85,504	-0,107193	22,360000	52,725000
2,921509	-2,211062	85,655	-0,107008	22,360000	52,725000
2,920002	-2,016710	85,824	-0,106929	22,360000	52,725000
2,918463	-2,016710	85,974	-0,106929	22,360000	52,725000
2,917018	-2,341830	86,140	-0,107062	22,360000	52,725000
2,915474	-2,211062	86,290	-0,107008	22,360000	52,725000
2,913970	-1,885941	86,441	-0,106876	22,360000	52,725000
2,912534	-1,235699	86,591	-0,106611	22,360000	52,725000
2,911029	-1,041347	86,742	-0,106532	22,360000	52,725000
2,909529	-0,650242	86,900	-0,106373	22,360000	52,725000
2,907991	-1,106131	87,068	-0,106559	22,360000	52,725000
2,906536	-1,821157	87,218	-0,106850	22,360000	52,725000
2,905001	-2,146278	87,383	-0,106982	22,370000	52,730000
2,903478	-1,691589	87,534	-0,106797	22,370000	52,730000
2,901968	-2,600967	87,684	-0,107167	22,370000	52,730000
2,900514	-2,211062	87,835	-0,107008	22,370000	52,730000
2,898990	-1,885941	87,986	-0,106876	22,370000	52,730000
2,897445	-1,625605	88,136	-0,106770	22,370000	52,730000
2,896085	-2,600967	88,286	-0,107167	22,370000	52,730000
2,894527	-2,471399	88,438	-0,107114	22,370000	52,730000
2,892964	-2,275847	88,589	-0,107035	22,370000	52,730000
2,891504	-2,536183	88,739	-0,107141	22,370000	52,730000
2,890002	-2,341830	88,890	-0,107062	22,370000	52,730000
2,888551	-3,055657	89,041	-0,107352	22,370000	52,730000
2,887012	-2,665752	89,192	-0,107193	22,370000	52,730000
2,885503	-2,926088	89,345	-0,107299	22,370000	52,715000
2,883969	-2,471399	89,496	-0,107114	22,370000	52,715000
2,882523	-2,796520	89,646	-0,107247	22,370000	52,715000
2,881050	-2,536183	89,796	-0,107141	22,370000	52,715000
2,879517	-3,315994	89,947	-0,107458	22,370000	52,715000
2,878002	-2,926088	90,099	-0,107299	22,370000	52,715000
2,876532	-3,576330	90,262	-0,107564	22,370000	52,715000
2,875031	-3,055657	90,416	-0,107352	22,370000	52,715000
2,873523	-2,861304	90,587	-0,107273	22,370000	52,715000
2,871979	-2,731736	90,737	-0,107220	22,370000	52,715000
2,870487	-2,731736	90,887	-0,107220	22,370000	52,715000
2,868988	-2,926088	91,039	-0,107299	22,370000	52,715000
2,867476	-2,665752	91,190	-0,107193	22,370000	52,715000
2,865992	-3,055657	91,344	-0,107352	22,370000	52,730000
2,864456	-3,251209	91,496	-0,107432	22,370000	52,730000
2,862963	-3,315994	91,647	-0,107458	22,370000	52,730000
2,861522	-2,992072	91,797	-0,107326	22,370000	52,730000
2,859984	-3,446762	91,947	-0,107511	22,370000	52,730000
2,858501	-3,446762	92,098	-0,107511	22,370000	52,730000
2,856984	-2,926088	92,248	-0,107299	22,370000	52,730000
2,855509	-3,836667	92,399	-0,107670	22,370000	52,730000
2,854061	-2,992072	92,553	-0,107326	22,370000	52,730000
2,852464	-4,161788	92,704	-0,107802	22,370000	52,730000
2,851016	-3,705899	92,855	-0,107617	22,370000	52,730000
2,849485	-4,356141	93,041	-0,107881	22,370000	52,730000
2,848020	-3,966235	93,194	-0,107723	22,370000	52,730000
2,846483	-3,251209	93,344	-0,107432	22,360000	52,740000
2,845011	-3,446762	93,494	-0,107511	22,360000	52,740000
2,843483	-4,097004	93,646	-0,107776	22,360000	52,740000
2,841989	-3,576330	93,799	-0,107564	22,360000	52,740000
2,840466	-4,291356	93,950	-0,107855	22,360000	52,740000
2,839007	-3,771883	94,100	-0,107644	22,360000	52,740000
2,837513	-3,705899	94,278	-0,107617	22,360000	52,740000
2,835983	-4,291356	94,430	-0,107855	22,360000	52,740000
2,834471	-4,291356	94,602	-0,107855	22,360000	52,740000
2,832951	-3,966235	94,752	-0,107723	22,360000	52,740000
2,831517	-4,097004	94,905	-0,107776	22,360000	52,740000
2,829992	-4,356141	95,066	-0,107881	22,360000	52,740000
2,828475	-4,551693	95,217	-0,107961	22,360000	52,740000
2,826946	-4,032219	95,393	-0,107750	22,370000	52,700000
2,825473	-4,161788	95,543	-0,107802	22,370000	52,700000
2,824029	-4,356141	95,694	-0,107881	22,370000	52,700000
2,822554	-4,876814	95,846	-0,108093	22,370000	52,700000
2,821001	-4,876814	95,997	-0,108093	22,370000	52,700000
2,819528	-4,812030	96,149	-0,108067	22,370000	52,700000
2,817984	-4,422125	96,307	-0,107908	22,370000	52,700000
2,816533	-4,876814	96,457	-0,108093	22,370000	52,700000
2,814929	-4,876814	96,627	-0,108093	22,370000	52,700000
2,813544	-5,072366	96,784	-0,108173	22,370000	52,700000
2,812011	-6,047729	96,946	-0,108570	22,370000	52,700000
2,810497	-5,137151	97,097	-0,108199	22,370000	52,700000
2,809047	-4,747245	97,247	-0,108041	22,370000	52,700000
2,807461	-4,941598	97,397	-0,108120	22,370000	52,700000
2,805956	-5,201935	97,547	-0,108226	22,370000	52,700000
2,804535	-5,852177	97,697	-0,108490	22,370000	52,700000
2,803033	-4,812030	97,863	-0,108067	22,370000	52,700000
2,801487	-4,876814	98,013	-0,108093	22,370000	52,700000
2,800004	-5,397487	98,185	-0,108305	22,370000	52,700000
2,798522	-4,616477	98,335	-0,107987	22,370000	52,700000
2,797003	-5,916961	98,486	-0,108517	22,370000	52,700000
2,795542	-5,266719	98,651	-0,108252	22,370000	52,700000
2,794012	-6,242082	98,803	-0,108649	22,370000	52,700000
2,792504	-5,591840	98,955	-0,108384	22,370000	52,700000
2,791003	-6,306866	99,107	-0,108675	22,370000	52,700000
2,789492	-5,787393	99,257	-0,108464	22,370000	52,730000
2,787993	-6,047729	99,435	-0,108570	22,370000	52,730000
2,786503	-5,397487	99,586	-0,108305	22,370000	52,730000
2,784976	-3,705899	99,742	-0,107617	22,370000	52,730000
2,783576	-3,186425	99,893	-0,107405	22,370000	52,730000
2,782020	-2,926088	100,043	-0,107299	22,370000	52,730000
2,780501	-3,251209	100,199	-0,107432	22,370000	52,730000
2,778993	-3,251209	100,350	-0,107432	22,370000	52,730000
2,777519	-2,081494	100,501	-0,106956	22,370000	52,730000
2,776007	-0,326321	100,656	-0,106241	22,370000	52,730000
2,774480	-0,260337	100,806	-0,106214	22,370000	52,730000
2,773015	-0,781010	100,961	-0,106426	22,370000	52,730000
2,771484	-0,130768	101,111	-0,106162	22,370000	52,730000
2,770000	0,063585	101,261	-0,106083	22,370000	52,730000
2,768523	0,063585	101,432	-0,106083	22,370000	52,730000
2,767008	0,194353	101,585	-0,106029	22,370000	52,730000
2,765529	0,063585	101,752	-0,106083	22,370000	52,730000
2,763982	0,000000	101,905	-0,106108	22,370000	52,730000
2,762537	0,063585	102,055	-0,106083	22,370000	52,730000
2,761008	0,000000	102,228	-0,106108	22,370000	52,730000
2,759518	0,000000	102,379	-0,106108	22,370000	52,730000
2,758038	0,000000	102,553	-0,106108	22,370000	52,730000
2,756527	0,000000	102,703	-0,106108	22,370000	52,730000
2,755058	0,000000	102,856	-0,106108	22,370000	52,730000
2,753490	-0,260337	103,007	-0,106214	22,370000	52,730000
2,751981	-0,130768	103,161	-0,106162	22,370000	52,730000
2,750495	-0,065984	103,312	-0,106135	22,360000	52,710000
2,749029	-0,065984	103,476	-0,106135	22,360000	52,710000
2,747526	-0,130768	103,627	-0,106162	22,360000	52,710000
2,746017	-0,065984	103,796	-0,106135	22,360000	52,710000
2,744551	-0,065984	103,946	-0,106135	22,360000	52,710000
2,743020	-0,195552	104,107	-0,106188	22,360000	52,710000
2,741501	0,259137	104,260	-0,106003	22,360000	52,710000
2,740036	-0,065984	104,414	-0,106135	22,360000	52,710000
2,738538	0,649042	104,570	-0,105844	22,360000	52,710000
2,736968	0,000000	104,720	-0,106108	22,360000	52,710000
2,735501	-0,391105	104,870	-0,106268	22,360000	52,710000
2,734017	-0,260337	105,036	-0,106214	22,360000	52,710000
2,732485	0,000000	105,186	-0,106108	22,360000	52,710000
2,731015	-0,845794	105,360	-0,106453	22,360000	52,710000
2,729535	-0,716226	105,510	-0,106400	22,360000	52,710000
2,727982	0,000000	105,662	-0,106108	22,360000	52,710000
2,726494	-0,976562	105,842	-0,106506	22,360000	52,710000
2,724970	0,259137	105,995	-0,106003	22,360000	52,710000
2,723514	0,129568	106,155	-0,106056	22,360000	52,710000
2,722002	0,000000	106,307	-0,106108	22,360000	52,710000
2,720525	-0,130768	106,459	-0,106162	22,360000	52,710000
2,719041	0,259137	106,614	-0,106003	22,360000	52,710000
2,717454	-0,195552	106,764	-0,106188	22,360000	52,710000
2,715973	-0,130768	106,914	-0,106162	22,360000	52,710000
2,714526	-0,326321	107,081	-0,106241	22,360000	52,710000
2,713040	0,063585	107,231	-0,106083	22,360000	52,710000
2,711506	0,323921	107,399	-0,105977	22,370000	52,715000
2,710064	-0,065984	107,551	-0,106135	22,370000	52,715000
2,708434	-0,260337	107,703	-0,106214	22,370000	52,715000
2,706997	-0,326321	107,866	-0,106241	22,370000	52,715000
2,705491	-0,260337	108,016	-0,106214	22,370000	52,715000
2,704008	-0,065984	108,193	-0,106135	22,370000	52,715000
2,702530	0,000000	108,343	-0,106108	22,370000	52,715000
2,701036	0,194353	108,494	-0,106029	22,370000	52,715000
2,699516	-0,391105	108,664	-0,106268	22,370000	52,715000
2,698016	0,000000	108,814	-0,106108	22,370000	52,715000
2,696516	-0,326321	108,978	-0,106241	22,370000	52,715000
2,695022	0,000000	109,129	-0,106108	22,370000	52,715000
2,693510	-0,391105	109,282	-0,106268	22,360000	52,710000
2,691988	-0,195552	109,452	-0,106188	22,360000	52,710000
2,690454	-0,716226	109,603	-0,106400	22,360000	52,710000
2,689010	-0,391105	109,765	-0,106268	22,360000	52,710000
2,687500	0,063585	109,916	-0,106083	22,360000	52,710000
2,686002	0,129568	110,066	-0,106056	22,360000	52,710000
2,684504	-0,391105	110,218	-0,106268	22,360000	52,710000
2,683010	0,000000	110,370	-0,106108	22,360000	52,710000
2,681536	0,323921	110,521	-0,105977	22,360000	52,710000
2,679955	0,000000	110,673	-0,106108	22,360000	52,710000
2,678507	-0,130768	110,824	-0,106162	22,360000	52,710000
2,677039	0,259137	110,994	-0,106003	22,360000	52,710000
2,675484	-0,391105	111,144	-0,106268	22,360000	52,710000
2,674000	-0,326321	111,295	-0,106241	22,360000	52,710000
2,672540	0,063585	111,465	-0,106083	22,360000	52,710000
2,671015	-0,195552	111,615	-0,106188	22,360000	52,710000
2,669477	0,063585	111,776	-0,106083	22,360000	52,710000
2,667980	0,063585	111,927	-0,106083	22,360000	52,710000
2,666467	-0,391105	112,078	-0,106268	22,360000	52,710000
2,665020	-0,065984	112,261	-0,106135	22,360000	52,710000
2,663521	0,519474	112,411	-0,105897	22,360000	52,710000
2,662018	0,129568	112,563	-0,106056	22,360000	52,710000
2,660509	0,259137	112,714	-0,106003	22,360000	52,710000
2,660006	0,129568	112,764	-0,106056	22,360000	52,710000