File: Nanoindentation Datenauswertung/data/PDMS/EM-PDMS-50-10-50-0,5um-4
Quasi static measurement routine
Tip parameters (shape,radius, material...)
15.08.2022

Piezo position[nm]	MEMS displ.[nm]	Time[ms]	Cap [pf]	Temp [°C]	Rh [%]
eoh
2,659892	-0,326321	0,185	-0,106241	22,370000	52,740000
2,661400	0,000000	0,336	-0,106108	22,370000	52,740000
2,662911	-0,650242	0,487	-0,106373	22,370000	52,740000
2,664328	-0,326321	0,639	-0,106241	22,370000	52,740000
2,665895	-0,391105	0,791	-0,106268	22,370000	52,740000
2,667433	-0,065984	0,941	-0,106135	22,370000	52,740000
2,668908	-0,391105	1,092	-0,106268	22,370000	52,740000
2,670409	-0,326321	1,242	-0,106241	22,370000	52,740000
2,671883	-0,260337	1,393	-0,106214	22,370000	52,740000
2,673408	0,000000	1,544	-0,106108	22,370000	52,740000
2,674907	-0,195552	1,697	-0,106188	22,370000	52,740000
2,676417	0,129568	1,851	-0,106056	22,370000	52,740000
2,677899	0,000000	2,002	-0,106108	22,370000	52,740000
2,679385	0,519474	2,153	-0,105897	22,370000	52,740000
2,680880	0,323921	2,306	-0,105977	22,370000	52,740000
2,682423	0,063585	2,459	-0,106083	22,370000	52,740000
2,683889	0,063585	2,614	-0,106083	22,370000	52,740000
2,685405	-0,260337	2,765	-0,106214	22,370000	52,740000
2,686914	0,000000	2,926	-0,106108	22,370000	52,740000
2,688379	0,129568	3,078	-0,106056	22,370000	52,740000
2,689897	0,000000	3,235	-0,106108	22,370000	52,740000
2,691437	0,063585	3,386	-0,106083	22,370000	52,740000
2,692896	0,063585	3,538	-0,106083	22,370000	52,740000
2,694400	-0,326321	3,688	-0,106241	22,370000	52,740000
2,695941	0,649042	3,839	-0,105844	22,370000	52,740000
2,697387	0,000000	3,989	-0,106108	22,370000	52,740000
2,698895	-0,130768	4,139	-0,106162	22,350000	52,710000
2,700411	-0,585458	4,289	-0,106347	22,350000	52,710000
2,701908	0,194353	4,439	-0,106029	22,350000	52,710000
2,703394	-0,130768	4,590	-0,106162	22,350000	52,710000
2,704890	0,063585	4,740	-0,106083	22,350000	52,710000
2,706428	0,259137	4,890	-0,106003	22,350000	52,710000
2,707911	-0,455889	5,041	-0,106294	22,350000	52,710000
2,709397	-0,130768	5,192	-0,106162	22,350000	52,710000
2,710929	-0,260337	5,343	-0,106214	22,350000	52,710000
2,712375	0,063585	5,494	-0,106083	22,350000	52,710000
2,713929	-0,781010	5,644	-0,106426	22,350000	52,710000
2,715440	-0,065984	5,794	-0,106135	22,350000	52,710000
2,716931	0,063585	5,944	-0,106083	22,350000	52,710000
2,718433	0,259137	6,094	-0,106003	22,350000	52,710000
2,719919	0,323921	6,246	-0,105977	22,350000	52,710000
2,721448	-0,326321	6,397	-0,106241	22,350000	52,710000
2,722923	0,323921	6,550	-0,105977	22,350000	52,710000
2,724380	-0,391105	6,702	-0,106268	22,350000	52,710000
2,725933	-0,391105	6,855	-0,106268	22,350000	52,710000
2,727386	-0,326321	7,005	-0,106241	22,350000	52,710000
2,728904	0,194353	7,156	-0,106029	22,350000	52,710000
2,730366	-0,716226	7,307	-0,106400	22,350000	52,710000
2,731968	0,129568	7,461	-0,106056	22,350000	52,710000
2,733399	-0,520673	7,611	-0,106320	22,350000	52,710000
2,734894	-0,326321	7,766	-0,106241	22,350000	52,710000
2,736389	0,000000	7,917	-0,106108	22,350000	52,710000
2,737943	-0,260337	8,069	-0,106214	22,350000	52,710000
2,739416	0,129568	8,219	-0,106056	22,370000	52,730000
2,740928	0,323921	8,371	-0,105977	22,370000	52,730000
2,742420	0,000000	8,529	-0,106108	22,370000	52,730000
2,743859	0,129568	8,679	-0,106056	22,370000	52,730000
2,745365	0,063585	8,831	-0,106083	22,370000	52,730000
2,746862	-0,391105	8,981	-0,106268	22,370000	52,730000
2,748332	0,000000	9,131	-0,106108	22,370000	52,730000
2,749899	0,194353	9,282	-0,106029	22,370000	52,730000
2,751404	0,259137	9,436	-0,106003	22,370000	52,730000
2,752928	-0,195552	9,586	-0,106188	22,370000	52,730000
2,754400	0,000000	9,737	-0,106108	22,370000	52,730000
2,755885	0,063585	9,889	-0,106083	22,370000	52,730000
2,757340	-0,391105	10,041	-0,106268	22,370000	52,730000
2,758921	0,000000	10,194	-0,106108	22,370000	52,730000
2,760405	0,194353	10,344	-0,106029	22,370000	52,730000
2,761859	0,129568	10,494	-0,106056	22,370000	52,730000
2,763393	0,129568	10,645	-0,106056	22,370000	52,730000
2,764910	-0,195552	10,796	-0,106188	22,370000	52,730000
2,766409	-0,065984	10,965	-0,106135	22,370000	52,730000
2,767884	-0,391105	11,115	-0,106268	22,370000	52,730000
2,769385	0,000000	11,267	-0,106108	22,370000	52,730000
2,770882	0,584258	11,417	-0,105871	22,370000	52,730000
2,772410	0,194353	11,568	-0,106029	22,370000	52,730000
2,773884	-0,260337	11,731	-0,106214	22,370000	52,730000
2,775416	-0,130768	11,881	-0,106162	22,370000	52,730000
2,776872	-0,130768	12,031	-0,106162	22,370000	52,730000
2,778360	0,454689	12,189	-0,105923	22,360000	52,725000
2,779890	0,129568	12,339	-0,106056	22,360000	52,725000
2,781326	0,259137	12,512	-0,106003	22,360000	52,725000
2,782890	0,129568	12,662	-0,106056	22,360000	52,725000
2,784389	-0,130768	12,813	-0,106162	22,360000	52,725000
2,785928	-0,391105	12,981	-0,106268	22,360000	52,725000
2,787347	-0,520673	13,133	-0,106320	22,360000	52,725000
2,788901	-0,326321	13,287	-0,106241	22,360000	52,725000
2,790387	0,323921	13,440	-0,105977	22,360000	52,725000
2,791896	-0,716226	13,591	-0,106400	22,360000	52,725000
2,793414	-0,195552	13,756	-0,106188	22,360000	52,725000
2,794870	0,000000	13,908	-0,106108	22,360000	52,725000
2,796435	-0,195552	14,067	-0,106188	22,360000	52,725000
2,797903	0,000000	14,217	-0,106108	22,360000	52,725000
2,799394	-0,065984	14,371	-0,106135	22,360000	52,725000
2,800881	0,000000	14,523	-0,106108	22,360000	52,725000
2,802422	-0,326321	14,673	-0,106241	22,360000	52,725000
2,803891	0,063585	14,825	-0,106083	22,360000	52,725000
2,805416	-0,391105	15,003	-0,106268	22,360000	52,725000
2,806935	0,194353	15,156	-0,106029	22,360000	52,725000
2,808380	0,519474	15,327	-0,105897	22,360000	52,725000
2,809891	0,194353	15,477	-0,106029	22,360000	52,725000
2,811360	-0,391105	15,629	-0,106268	22,360000	52,725000
2,812849	0,000000	15,782	-0,106108	22,360000	52,725000
2,814361	-0,326321	15,933	-0,106241	22,360000	52,725000
2,815895	0,323921	16,085	-0,105977	22,370000	52,715000
2,817411	-0,130768	16,236	-0,106162	22,370000	52,715000
2,818876	-0,195552	16,386	-0,106188	22,370000	52,715000
2,820392	-0,130768	16,537	-0,106162	22,370000	52,715000
2,821900	-0,326321	16,687	-0,106241	22,370000	52,715000
2,823363	-1,625605	16,837	-0,106770	22,370000	52,715000
2,824836	-1,625605	17,014	-0,106770	22,370000	52,715000
2,826376	-0,910579	17,166	-0,106479	22,370000	52,715000
2,827898	-1,366468	17,322	-0,106665	22,370000	52,715000
2,829374	-1,496036	17,473	-0,106717	22,370000	52,715000
2,830896	-0,845794	17,624	-0,106453	22,370000	52,715000
2,832320	-0,781010	17,774	-0,106426	22,370000	52,715000
2,833893	-0,716226	17,924	-0,106400	22,370000	52,715000
2,835384	0,323921	18,075	-0,105977	22,370000	52,715000
2,836911	0,454689	18,225	-0,105923	22,370000	52,715000
2,838402	-0,130768	18,377	-0,106162	22,370000	52,715000
2,839855	0,584258	18,527	-0,105871	22,370000	52,715000
2,841410	0,129568	18,679	-0,106056	22,370000	52,715000
2,842906	0,519474	18,830	-0,105897	22,370000	52,715000
2,844398	-0,065984	18,981	-0,106135	22,370000	52,715000
2,845875	0,649042	19,138	-0,105844	22,370000	52,715000
2,847387	1,299284	19,290	-0,105580	22,370000	52,715000
2,848879	1,234500	19,441	-0,105606	22,370000	52,715000
2,850390	1,299284	19,592	-0,105580	22,370000	52,715000
2,851846	1,755173	19,749	-0,105394	22,370000	52,715000
2,853388	1,364068	19,900	-0,105553	22,370000	52,715000
2,854858	1,689189	20,075	-0,105421	22,370000	52,715000
2,856371	2,209863	20,237	-0,105209	22,370000	52,715000
2,857895	1,755173	20,388	-0,105394	22,370000	52,715000
2,859408	2,405415	20,539	-0,105129	22,370000	52,715000
2,860878	1,624405	20,696	-0,105447	22,370000	52,715000
2,862411	2,860104	20,852	-0,104944	22,370000	52,715000
2,863896	3,314794	21,019	-0,104759	22,370000	52,715000
2,865401	3,704699	21,169	-0,104601	22,370000	52,715000
2,866905	3,575131	21,346	-0,104653	22,370000	52,715000
2,868383	3,510346	21,497	-0,104680	22,370000	52,715000
2,869916	3,835467	21,648	-0,104547	22,370000	52,715000
2,871407	4,094604	21,799	-0,104442	22,370000	52,715000
2,872884	4,420925	21,949	-0,104309	22,370000	52,715000
2,874368	4,290157	22,112	-0,104362	22,370000	52,730000
2,875921	4,225372	22,263	-0,104389	22,370000	52,730000
2,877408	5,265519	22,415	-0,103965	22,370000	52,730000
2,878894	5,395088	22,567	-0,103913	22,370000	52,730000
2,880436	5,655425	22,718	-0,103807	22,370000	52,730000
2,881903	5,784993	22,870	-0,103754	22,370000	52,730000
2,883391	5,525856	23,022	-0,103859	22,370000	52,730000
2,884939	6,370451	23,174	-0,103516	22,370000	52,730000
2,886358	6,045330	23,341	-0,103648	22,370000	52,730000
2,887885	6,501219	23,491	-0,103462	22,370000	52,730000
2,889408	6,695572	23,642	-0,103383	22,370000	52,730000
2,890886	6,826340	23,792	-0,103330	22,370000	52,730000
2,892424	7,020693	23,942	-0,103251	22,370000	52,730000
2,893832	7,996055	24,094	-0,102854	22,360000	52,725000
2,895393	7,996055	24,245	-0,102854	22,360000	52,725000
2,896854	7,735719	24,395	-0,102960	22,360000	52,725000
2,898402	8,060840	24,545	-0,102828	22,360000	52,725000
2,899849	8,516729	24,701	-0,102642	22,360000	52,725000
2,901351	8,450745	24,852	-0,102669	22,360000	52,725000
2,902873	8,256392	25,010	-0,102748	22,360000	52,725000
2,904338	8,840650	25,165	-0,102510	22,360000	52,725000
2,905911	9,426108	25,320	-0,102272	22,360000	52,725000
2,907383	9,490892	25,471	-0,102246	22,360000	52,725000
2,908893	9,881997	25,622	-0,102086	22,360000	52,725000
2,910406	10,336686	25,774	-0,101901	22,360000	52,725000
2,911896	9,621660	25,925	-0,102192	22,360000	52,725000
2,913377	10,205918	26,084	-0,101955	22,360000	52,725000
2,914850	9,100987	26,234	-0,102404	22,360000	52,725000
2,916380	10,466255	26,384	-0,101849	22,360000	52,725000
2,917895	10,141134	26,536	-0,101981	22,360000	52,725000
2,919448	10,597023	26,686	-0,101795	22,360000	52,725000
2,920842	10,401470	26,837	-0,101875	22,360000	52,725000
2,922362	11,637170	26,988	-0,101372	22,360000	52,725000
2,923932	10,791376	27,139	-0,101716	22,360000	52,725000
2,925397	10,401470	27,289	-0,101875	22,360000	52,725000
2,926816	11,376833	27,441	-0,101478	22,360000	52,725000
2,928333	11,766738	27,591	-0,101319	22,360000	52,725000
2,929901	12,027075	27,748	-0,101213	22,360000	52,725000
2,931372	11,312049	27,903	-0,101504	22,360000	52,725000
2,932911	12,481764	28,053	-0,101028	22,360000	52,725000
2,934430	12,806885	28,218	-0,100896	22,360000	52,710000
2,935871	12,156644	28,371	-0,101161	22,360000	52,710000
2,937383	12,416980	28,523	-0,101055	22,360000	52,710000
2,938902	12,546549	28,674	-0,101002	22,360000	52,710000
2,940385	12,481764	28,825	-0,101028	22,360000	52,710000
2,941881	13,327559	28,978	-0,100684	22,360000	52,710000
2,943372	13,652680	29,129	-0,100552	22,360000	52,710000
2,944884	13,587895	29,281	-0,100578	22,360000	52,710000
2,946403	14,238137	29,431	-0,100313	22,360000	52,710000
2,947916	13,977801	29,582	-0,100419	22,360000	52,710000
2,949368	14,042585	29,732	-0,100393	22,360000	52,710000
2,950926	13,587895	29,883	-0,100578	22,360000	52,710000
2,952361	13,847032	30,038	-0,100473	22,360000	52,710000
2,953903	14,172153	30,191	-0,100340	22,360000	52,710000
2,955342	15,017948	30,348	-0,099996	22,360000	52,710000
2,956881	14,432490	30,499	-0,100234	22,360000	52,710000
2,958416	14,172153	30,651	-0,100340	22,360000	52,710000
2,959875	14,692827	30,802	-0,100128	22,360000	52,710000
2,961399	15,017948	30,953	-0,099996	22,360000	52,710000
2,962893	15,278284	31,104	-0,099890	22,360000	52,710000
2,964405	15,603405	31,256	-0,099758	22,360000	52,710000
2,965914	15,668189	31,406	-0,099731	22,360000	52,710000
2,967394	15,407853	31,556	-0,099837	22,360000	52,710000
2,968872	15,343069	31,708	-0,099864	22,360000	52,710000
2,970403	15,407853	31,858	-0,099837	22,360000	52,710000
2,971883	15,472637	32,009	-0,099811	22,360000	52,710000
2,973374	15,212300	32,161	-0,099917	22,370000	52,730000
2,974923	15,537421	32,311	-0,099785	22,370000	52,730000
2,976367	15,472637	32,463	-0,099811	22,370000	52,730000
2,977930	15,668189	32,619	-0,099731	22,370000	52,730000
2,979394	15,993310	32,779	-0,099599	22,370000	52,730000
2,980909	16,577568	32,938	-0,099361	22,370000	52,730000
2,982408	16,383216	33,097	-0,099440	22,370000	52,730000
2,983927	16,512784	33,247	-0,099388	22,370000	52,730000
2,985411	16,967474	33,398	-0,099203	22,370000	52,730000
2,986802	16,773121	33,549	-0,099282	22,370000	52,730000
2,988358	16,967474	33,700	-0,099203	22,370000	52,730000
2,989883	17,358578	33,851	-0,099043	22,370000	52,730000
2,991407	17,683699	34,003	-0,098911	22,370000	52,730000
2,992880	17,878052	34,156	-0,098832	22,370000	52,730000
2,994396	18,203173	34,306	-0,098700	22,370000	52,730000
2,995903	18,138389	34,458	-0,098726	22,370000	52,730000
2,997356	18,008820	34,622	-0,098779	22,370000	52,730000
2,998860	18,398725	34,773	-0,098620	22,370000	52,730000
3,000341	18,138389	34,931	-0,098726	22,370000	52,730000
3,001884	18,463510	35,082	-0,098594	22,370000	52,730000
3,003336	19,048967	35,240	-0,098355	22,370000	52,730000
3,004891	18,723846	35,393	-0,098488	22,370000	52,730000
3,006385	18,853415	35,543	-0,098435	22,370000	52,730000
3,007872	19,503657	35,694	-0,098170	22,370000	52,730000
3,009384	18,659062	35,844	-0,098514	22,370000	52,730000
3,010875	18,398725	35,997	-0,098620	22,370000	52,730000
3,012396	17,878052	36,147	-0,098832	22,370000	52,700000
3,013880	17,878052	36,297	-0,098832	22,370000	52,700000
3,015414	17,552931	36,448	-0,098964	22,370000	52,700000
3,016897	18,398725	36,600	-0,098620	22,370000	52,700000
3,018316	18,853415	36,752	-0,098435	22,370000	52,700000
3,019883	18,528294	36,904	-0,098567	22,370000	52,700000
3,021372	19,438872	37,055	-0,098197	22,370000	52,700000
3,022914	18,982983	37,205	-0,098382	22,370000	52,700000
3,024414	18,138389	37,362	-0,098726	22,370000	52,700000
3,025862	18,723846	37,512	-0,098488	22,370000	52,700000
3,027374	18,918199	37,662	-0,098409	22,370000	52,700000
3,028870	19,374088	37,813	-0,098223	22,370000	52,700000
3,030405	18,918199	37,963	-0,098409	22,370000	52,700000
3,031904	20,153899	38,114	-0,097906	22,360000	52,710000
3,033414	19,178536	38,264	-0,098303	22,360000	52,710000
3,034847	19,438872	38,415	-0,098197	22,360000	52,710000
3,036387	19,699209	38,566	-0,098091	22,360000	52,710000
3,037858	20,218683	38,716	-0,097879	22,360000	52,710000
3,039376	20,414235	38,901	-0,097800	22,360000	52,710000
3,040878	20,349451	39,056	-0,097826	22,360000	52,710000
3,042333	21,064477	39,207	-0,097535	22,360000	52,710000
3,043872	20,673372	39,358	-0,097694	22,360000	52,710000
3,045363	21,583951	39,508	-0,097324	22,360000	52,710000
3,046875	21,194046	39,659	-0,097482	22,360000	52,710000
3,048372	21,909072	39,811	-0,097191	22,360000	52,710000
3,049816	21,975056	39,963	-0,097165	22,360000	52,710000
3,051363	22,234193	40,120	-0,097059	22,370000	52,730000
3,052859	22,624098	40,271	-0,096900	22,370000	52,730000
3,054339	22,949219	40,421	-0,096768	22,370000	52,730000
3,055862	22,234193	40,581	-0,097059	22,370000	52,730000
3,057387	23,014003	40,731	-0,096742	22,370000	52,730000
3,058780	23,078787	40,889	-0,096715	22,370000	52,730000
3,060382	23,274340	41,046	-0,096636	22,370000	52,730000
3,061911	22,949219	41,196	-0,096768	22,370000	52,730000
3,063352	23,924582	41,347	-0,096371	22,370000	52,730000
3,064913	24,120134	41,497	-0,096292	22,370000	52,730000
3,066377	24,184918	41,647	-0,096265	22,370000	52,730000
3,067873	23,924582	41,798	-0,096371	22,370000	52,730000
3,069415	24,314487	41,948	-0,096212	22,370000	52,730000
3,070855	24,704392	42,100	-0,096054	22,360000	52,710000
3,072406	24,445255	42,257	-0,096159	22,360000	52,710000
3,073894	24,770376	42,410	-0,096027	22,360000	52,710000
3,075409	25,940091	42,561	-0,095551	22,360000	52,710000
3,076858	26,069660	42,711	-0,095498	22,360000	52,710000
3,078398	25,094297	42,863	-0,095895	22,360000	52,710000
3,079872	25,225065	43,043	-0,095842	22,360000	52,710000
3,081337	25,810523	43,194	-0,095604	22,360000	52,710000
3,082827	25,940091	43,349	-0,095551	22,360000	52,710000
3,084387	26,525549	43,500	-0,095313	22,360000	52,710000
3,085850	26,329997	43,651	-0,095392	22,360000	52,710000
3,087374	26,525549	43,803	-0,095313	22,360000	52,710000
3,088849	26,655117	43,953	-0,095260	22,360000	52,710000
3,090377	26,655117	44,105	-0,095260	22,360000	52,725000
3,091826	27,175791	44,258	-0,095048	22,360000	52,725000
3,093382	26,915454	44,409	-0,095154	22,360000	52,725000
3,094894	27,370144	44,560	-0,094969	22,360000	52,725000
3,096353	28,086369	44,710	-0,094677	22,360000	52,725000
3,097861	28,149954	44,862	-0,094651	22,360000	52,725000
3,099366	28,800196	45,014	-0,094387	22,360000	52,725000
3,100900	28,410291	45,165	-0,094545	22,360000	52,725000
3,102373	28,605843	45,316	-0,094466	22,360000	52,725000
3,103820	28,800196	45,472	-0,094387	22,360000	52,725000
3,105316	29,516422	45,626	-0,094095	22,360000	52,725000
3,106861	29,645990	45,780	-0,094042	22,360000	52,725000
3,108388	29,320869	45,931	-0,094175	22,360000	52,725000
3,109916	29,516422	46,081	-0,094095	22,360000	52,725000
3,111386	29,775559	46,239	-0,093990	22,350000	52,710000
3,112909	29,841543	46,390	-0,093963	22,350000	52,710000
3,114360	30,425800	46,556	-0,093725	22,350000	52,710000
3,115928	30,165464	46,707	-0,093831	22,350000	52,710000
3,117394	31,076042	46,894	-0,093460	22,350000	52,710000
3,118924	31,271595	47,046	-0,093381	22,350000	52,710000
3,120347	30,621353	47,196	-0,093646	22,350000	52,710000
3,121934	31,855853	47,351	-0,093143	22,350000	52,710000
3,123287	32,116189	47,502	-0,093037	22,350000	52,710000
3,124885	32,051405	47,658	-0,093063	22,350000	52,710000
3,126322	32,572078	47,808	-0,092852	22,350000	52,710000
3,127862	32,897199	47,959	-0,092719	22,350000	52,710000
3,129314	33,091552	48,109	-0,092640	22,360000	52,700000
3,130893	33,221121	48,259	-0,092587	22,360000	52,700000
3,132349	32,897199	48,410	-0,092719	22,360000	52,700000
3,133879	33,741794	48,561	-0,092375	22,360000	52,700000
3,135312	33,481457	48,713	-0,092481	22,360000	52,700000
3,136844	34,066915	48,865	-0,092243	22,360000	52,700000
3,138380	34,131699	49,017	-0,092217	22,360000	52,700000
3,139862	34,652373	49,167	-0,092005	22,360000	52,700000
3,141405	33,677010	49,326	-0,092402	22,360000	52,700000
3,142858	34,197683	49,476	-0,092190	22,360000	52,700000
3,144329	34,197683	49,630	-0,092190	22,360000	52,700000
3,145829	35,302614	49,781	-0,091740	22,360000	52,700000
3,147384	35,107062	49,933	-0,091820	22,360000	52,700000
3,148875	35,886872	50,084	-0,091502	22,360000	52,700000
3,150409	36,147209	50,247	-0,091396	22,360000	52,700000
3,151847	36,082425	50,397	-0,091423	22,360000	52,700000
3,153400	35,822088	50,559	-0,091529	22,360000	52,700000
3,154851	36,537114	50,709	-0,091238	22,360000	52,700000
3,156356	36,603098	50,860	-0,091211	22,360000	52,700000
3,157847	36,732667	51,022	-0,091158	22,360000	52,700000
3,159323	36,862235	51,172	-0,091105	22,360000	52,700000
3,159825	37,512477	51,325	-0,090841	22,360000	52,700000
3,159817	36,276777	51,475	-0,091344	22,360000	52,700000
3,159858	36,862235	51,626	-0,091105	22,360000	52,700000
3,159836	36,407546	51,777	-0,091291	22,360000	52,700000
3,159844	35,627735	51,928	-0,091608	22,360000	52,700000
3,159829	35,562951	52,079	-0,091634	22,360000	52,700000
3,159846	35,692520	52,230	-0,091582	22,370000	52,730000
3,159870	35,757304	52,381	-0,091555	22,370000	52,730000
3,159818	35,822088	52,543	-0,091529	22,370000	52,730000
3,159876	35,432183	52,694	-0,091688	22,370000	52,730000
3,159892	35,627735	52,846	-0,091608	22,370000	52,730000
3,159855	34,456820	53,008	-0,092084	22,370000	52,730000
3,159904	35,432183	53,159	-0,091688	22,370000	52,730000
3,159859	34,652373	53,311	-0,092005	22,370000	52,730000
3,159855	34,456820	53,464	-0,092084	22,370000	52,730000
3,159818	35,627735	53,615	-0,091608	22,370000	52,730000
3,159832	34,652373	53,765	-0,092005	22,370000	52,730000
3,159893	34,977493	53,918	-0,091873	22,370000	52,730000
3,159868	34,456820	54,071	-0,092084	22,370000	52,730000
3,159908	34,521604	54,221	-0,092058	22,370000	52,730000
3,159876	33,806578	54,371	-0,092349	22,370000	52,730000
3,159828	34,131699	54,521	-0,092217	22,370000	52,730000
3,159851	34,131699	54,671	-0,092217	22,370000	52,730000
3,159872	34,652373	54,822	-0,092005	22,370000	52,730000
3,159833	34,587588	54,986	-0,092031	22,370000	52,730000
3,159885	34,652373	55,138	-0,092005	22,370000	52,730000
3,159869	34,521604	55,288	-0,092058	22,370000	52,730000
3,159854	34,066915	55,444	-0,092243	22,370000	52,730000
3,159864	33,937346	55,594	-0,092296	22,370000	52,730000
3,159898	34,131699	55,746	-0,092217	22,370000	52,730000
3,159843	33,937346	55,897	-0,092296	22,370000	52,730000
3,159867	34,262467	56,048	-0,092164	22,370000	52,730000
3,159900	33,481457	56,208	-0,092481	22,370000	52,715000
3,159838	34,521604	56,369	-0,092058	22,370000	52,715000
3,159844	34,392036	56,521	-0,092111	22,370000	52,715000
3,159818	33,481457	56,672	-0,092481	22,370000	52,715000
3,159860	34,977493	56,823	-0,091873	22,370000	52,715000
3,159863	34,131699	56,975	-0,092217	22,370000	52,715000
3,159912	34,002131	57,125	-0,092270	22,370000	52,715000
3,159879	33,937346	57,276	-0,092296	22,370000	52,715000
3,159866	33,871362	57,428	-0,092323	22,370000	52,715000
3,159819	34,002131	57,579	-0,092270	22,370000	52,715000
3,159800	33,481457	57,749	-0,092481	22,370000	52,715000
3,159833	33,351889	57,900	-0,092534	22,370000	52,715000
3,159837	34,066915	58,051	-0,092243	22,360000	52,710000
3,159853	33,612226	58,208	-0,092428	22,360000	52,710000
3,159911	33,806578	58,359	-0,092349	22,360000	52,710000
3,159824	33,547441	58,512	-0,092455	22,360000	52,710000
3,159828	34,131699	58,662	-0,092217	22,360000	52,710000
3,159843	34,197683	58,812	-0,092190	22,360000	52,710000
3,159869	34,066915	58,973	-0,092243	22,360000	52,710000
3,159877	33,547441	59,124	-0,092455	22,360000	52,710000
3,159835	33,677010	59,275	-0,092402	22,360000	52,710000
3,159840	33,937346	59,426	-0,092296	22,360000	52,710000
3,159805	33,612226	59,576	-0,092428	22,360000	52,710000
3,159855	33,806578	59,726	-0,092349	22,360000	52,710000
3,159864	33,677010	59,876	-0,092402	22,360000	52,710000
3,159881	34,066915	60,026	-0,092243	22,360000	52,710000
3,159848	33,287105	60,178	-0,092561	22,350000	52,710000
3,159858	33,677010	60,328	-0,092402	22,350000	52,710000
3,159867	34,002131	60,479	-0,092270	22,350000	52,710000
3,159873	34,066915	60,632	-0,092243	22,350000	52,710000
3,159850	33,677010	60,782	-0,092402	22,350000	52,710000
3,159862	33,416673	60,941	-0,092508	22,350000	52,710000
3,159875	34,002131	61,091	-0,092270	22,350000	52,710000
3,159853	34,392036	61,243	-0,092111	22,350000	52,710000
3,159879	33,741794	61,404	-0,092375	22,350000	52,710000
3,158294	33,221121	61,555	-0,092587	22,350000	52,710000
3,156883	32,766431	61,716	-0,092772	22,350000	52,710000
3,155355	32,572078	61,866	-0,092852	22,350000	52,710000
3,153852	31,336379	62,016	-0,093354	22,350000	52,710000
3,152394	31,205611	62,167	-0,093408	22,370000	52,730000
3,150834	30,296232	62,318	-0,093778	22,370000	52,730000
3,149337	30,035895	62,468	-0,093884	22,370000	52,730000
3,147842	29,450438	62,619	-0,094122	22,370000	52,730000
3,146386	29,645990	62,770	-0,094042	22,370000	52,730000
3,144869	28,735412	62,927	-0,094413	22,370000	52,730000
3,143364	28,086369	63,079	-0,094677	22,370000	52,730000
3,141837	28,086369	63,230	-0,094677	22,370000	52,730000
3,140366	27,305359	63,385	-0,094995	22,370000	52,730000
3,138917	26,655117	63,537	-0,095260	22,370000	52,730000
3,137349	25,940091	63,687	-0,095551	22,370000	52,730000
3,135804	26,525549	63,850	-0,095313	22,370000	52,730000
3,134366	24,835160	64,001	-0,096000	22,370000	52,730000
3,132868	24,639608	64,165	-0,096080	22,370000	52,730000
3,131385	25,030713	64,316	-0,095921	22,370000	52,730000
3,129812	24,380471	64,467	-0,096186	22,370000	52,730000
3,128344	24,314487	64,619	-0,096212	22,370000	52,730000
3,126849	23,730229	64,769	-0,096450	22,370000	52,730000
3,125415	22,949219	64,919	-0,096768	22,370000	52,730000
3,123897	23,144771	65,070	-0,096688	22,370000	52,730000
3,122332	22,624098	65,220	-0,096900	22,370000	52,730000
3,120882	22,234193	65,371	-0,097059	22,370000	52,730000
3,119358	21,258830	65,522	-0,097456	22,370000	52,730000
3,117850	21,975056	65,676	-0,097165	22,370000	52,730000
3,116362	21,519167	65,844	-0,097350	22,370000	52,730000
3,114898	20,933709	65,995	-0,097588	22,370000	52,730000
3,113410	20,673372	66,146	-0,097694	22,360000	52,740000
3,111835	19,958346	66,297	-0,097985	22,360000	52,740000
3,110426	19,309304	66,449	-0,098250	22,360000	52,740000
3,108888	19,503657	66,605	-0,098170	22,360000	52,740000
3,107359	19,048967	66,762	-0,098355	22,360000	52,740000
3,105876	19,178536	66,922	-0,098303	22,360000	52,740000
3,104438	19,113752	67,073	-0,098329	22,360000	52,740000
3,102858	18,918199	67,224	-0,098409	22,360000	52,740000
3,101359	18,138389	67,376	-0,098726	22,360000	52,740000
3,099845	17,227810	67,526	-0,099097	22,360000	52,740000
3,098320	18,008820	67,676	-0,098779	22,360000	52,740000
3,096879	16,773121	67,826	-0,099282	22,360000	52,740000
3,095389	16,448000	67,977	-0,099414	22,360000	52,740000
3,093902	16,643552	68,140	-0,099334	22,370000	52,730000
3,092409	16,318431	68,291	-0,099467	22,370000	52,730000
3,090853	15,732974	68,458	-0,099705	22,370000	52,730000
3,089406	15,082732	68,611	-0,099970	22,370000	52,730000
3,087887	15,343069	68,763	-0,099864	22,370000	52,730000
3,086383	14,953163	68,926	-0,100022	22,370000	52,730000
3,084865	15,147516	69,079	-0,099943	22,370000	52,730000
3,083342	14,562059	69,232	-0,100182	22,370000	52,730000
3,081905	14,238137	69,382	-0,100313	22,370000	52,730000
3,080408	14,562059	69,534	-0,100182	22,370000	52,730000
3,078869	14,172153	69,685	-0,100340	22,370000	52,730000
3,077380	13,521911	69,845	-0,100605	22,370000	52,730000
3,075886	13,262774	69,995	-0,100710	22,370000	52,730000
3,074390	13,132006	70,153	-0,100764	22,370000	52,730000
3,072910	13,652680	70,304	-0,100552	22,370000	52,730000
3,071463	13,067222	70,455	-0,100790	22,370000	52,730000
3,069927	11,896307	70,606	-0,101267	22,370000	52,730000
3,068396	12,027075	70,766	-0,101213	22,370000	52,730000
3,066918	11,312049	70,927	-0,101504	22,370000	52,730000
3,065371	11,182480	71,078	-0,101557	22,370000	52,730000
3,063880	11,116496	71,229	-0,101584	22,370000	52,730000
3,062344	11,831523	71,379	-0,101293	22,370000	52,730000
3,060953	10,466255	71,537	-0,101849	22,370000	52,730000
3,059438	9,881997	71,688	-0,102086	22,370000	52,730000
3,057917	10,401470	71,849	-0,101875	22,370000	52,730000
3,056404	10,076349	72,000	-0,102007	22,370000	52,730000
3,054882	10,011565	72,158	-0,102034	22,360000	52,725000
3,053379	10,336686	72,309	-0,101901	22,360000	52,725000
3,051872	9,686444	72,459	-0,102166	22,360000	52,725000
3,050379	9,686444	72,613	-0,102166	22,360000	52,725000
3,048855	8,581513	72,764	-0,102616	22,360000	52,725000
3,047397	8,516729	72,928	-0,102642	22,360000	52,725000
3,045906	9,490892	73,078	-0,102246	22,360000	52,725000
3,044433	10,271902	73,229	-0,101928	22,360000	52,725000
3,042918	10,011565	73,379	-0,102034	22,360000	52,725000
3,041402	9,556876	73,531	-0,102219	22,360000	52,725000
3,039932	8,385961	73,681	-0,102695	22,360000	52,725000
3,038354	7,541366	73,832	-0,103039	22,360000	52,725000
3,036896	7,085477	73,982	-0,103225	22,360000	52,725000
3,035402	7,410598	74,133	-0,103092	22,360000	52,725000
3,033875	7,800503	74,285	-0,102934	22,360000	52,725000
3,032370	7,866487	74,436	-0,102907	22,360000	52,725000
3,030873	8,060840	74,588	-0,102828	22,360000	52,725000
3,029356	7,085477	74,740	-0,103225	22,360000	52,725000
3,027892	7,020693	74,892	-0,103251	22,360000	52,725000
3,026400	6,240882	75,046	-0,103568	22,360000	52,725000
3,024897	5,655425	75,197	-0,103807	22,360000	52,725000
3,023369	5,720209	75,388	-0,103780	22,360000	52,725000
3,021899	5,850977	75,539	-0,103727	22,360000	52,725000
3,020424	5,720209	75,691	-0,103780	22,360000	52,725000
3,018893	5,525856	75,842	-0,103859	22,360000	52,725000
3,017420	5,134751	75,994	-0,104019	22,360000	52,725000
3,015927	5,720209	76,144	-0,103780	22,360000	52,710000
3,014361	5,265519	76,295	-0,103965	22,360000	52,710000
3,012841	5,590640	76,447	-0,103833	22,360000	52,710000
3,011395	4,550493	76,617	-0,104256	22,360000	52,710000
3,009893	4,810830	76,767	-0,104150	22,360000	52,710000
3,008411	3,769483	76,930	-0,104574	22,360000	52,710000
3,006912	4,550493	77,081	-0,104256	22,360000	52,710000
3,005395	4,160588	77,231	-0,104415	22,360000	52,710000
3,003949	4,094604	77,400	-0,104442	22,360000	52,710000
3,002365	4,029820	77,553	-0,104468	22,360000	52,710000
3,000954	3,965036	77,733	-0,104495	22,360000	52,710000
2,999350	3,250010	77,884	-0,104786	22,360000	52,710000
2,997937	2,860104	78,034	-0,104944	22,360000	52,710000
2,996405	3,379578	78,185	-0,104733	22,360000	52,725000
2,994880	3,379578	78,337	-0,104733	22,360000	52,725000
2,993441	3,445562	78,488	-0,104706	22,360000	52,725000
2,991880	3,445562	78,638	-0,104706	22,360000	52,725000
2,990395	2,795320	78,788	-0,104971	22,360000	52,725000
2,988884	3,379578	78,938	-0,104733	22,360000	52,725000
2,987380	2,729336	79,088	-0,104998	22,360000	52,725000
2,985932	2,729336	79,238	-0,104998	22,360000	52,725000
2,984407	2,924889	79,407	-0,104918	22,360000	52,725000
2,982911	2,014310	79,557	-0,105289	22,360000	52,725000
2,981438	2,145078	79,707	-0,105235	22,360000	52,725000
2,979955	1,624405	79,872	-0,105447	22,360000	52,725000
2,978401	2,145078	80,023	-0,105235	22,360000	52,725000
2,976881	2,405415	80,185	-0,105129	22,360000	52,725000
2,975383	2,339431	80,335	-0,105156	22,360000	52,725000
2,973887	2,209863	80,486	-0,105209	22,360000	52,725000
2,972412	1,884742	80,639	-0,105341	22,360000	52,725000
2,970926	1,494836	80,789	-0,105500	22,360000	52,725000
2,969414	1,494836	80,941	-0,105500	22,360000	52,725000
2,967901	0,974163	81,091	-0,105712	22,360000	52,725000
2,966425	0,844595	81,242	-0,105765	22,360000	52,725000
2,964937	0,974163	81,394	-0,105712	22,360000	52,725000
2,963429	1,169716	81,545	-0,105632	22,360000	52,725000
2,961912	0,454689	81,698	-0,105923	22,360000	52,725000
2,960413	0,259137	81,848	-0,106003	22,360000	52,725000
2,958896	0,323921	82,000	-0,105977	22,360000	52,725000
2,957425	0,259137	82,166	-0,106003	22,350000	52,695000
2,955926	0,454689	82,327	-0,105923	22,350000	52,695000
2,954420	-0,260337	82,479	-0,106214	22,350000	52,695000
2,952936	-0,065984	82,629	-0,106135	22,350000	52,695000
2,951376	0,259137	82,780	-0,106003	22,350000	52,695000
2,949893	-0,195552	82,943	-0,106188	22,350000	52,695000
2,948399	-0,130768	83,093	-0,106162	22,350000	52,695000
2,946940	0,000000	83,243	-0,106108	22,350000	52,695000
2,945397	-1,106131	83,393	-0,106559	22,350000	52,695000
2,943909	-1,300484	83,544	-0,106638	22,350000	52,695000
2,942420	-1,170915	83,694	-0,106585	22,350000	52,695000
2,940902	-1,170915	83,847	-0,106585	22,350000	52,695000
2,939409	-1,625605	83,997	-0,106770	22,350000	52,695000
2,937899	-1,235699	84,147	-0,106611	22,360000	52,710000
2,936420	-1,235699	84,297	-0,106611	22,360000	52,710000
2,934894	-1,235699	84,448	-0,106611	22,360000	52,710000
2,933420	-1,300484	84,598	-0,106638	22,360000	52,710000
2,931923	-1,106131	84,748	-0,106559	22,360000	52,710000
2,930411	-1,691589	84,900	-0,106797	22,360000	52,710000
2,928908	-1,041347	85,053	-0,106532	22,360000	52,710000
2,927405	-0,976562	85,203	-0,106506	22,360000	52,710000
2,925899	-1,106131	85,366	-0,106559	22,360000	52,710000
2,924422	-0,195552	85,517	-0,106188	22,360000	52,710000
2,922898	-0,910579	85,670	-0,106479	22,360000	52,710000
2,921407	-0,976562	85,821	-0,106506	22,360000	52,710000
2,919914	-0,391105	85,971	-0,106268	22,360000	52,710000
2,918403	-0,065984	86,121	-0,106135	22,360000	52,710000
2,916958	-0,520673	86,271	-0,106320	22,360000	52,710000
2,915401	-0,065984	86,422	-0,106135	22,360000	52,710000
2,913907	-0,130768	86,590	-0,106162	22,360000	52,710000
2,912336	0,129568	86,741	-0,106056	22,360000	52,710000
2,910916	-0,065984	86,892	-0,106135	22,360000	52,710000
2,909364	-0,195552	87,047	-0,106188	22,360000	52,710000
2,907920	-0,716226	87,199	-0,106400	22,360000	52,710000
2,906457	-0,260337	87,373	-0,106214	22,360000	52,710000
2,904974	-0,455889	87,524	-0,106294	22,360000	52,710000
2,903376	-0,845794	87,675	-0,106453	22,360000	52,710000
2,901925	-1,235699	87,844	-0,106611	22,360000	52,710000
2,900414	-0,585458	87,994	-0,106347	22,360000	52,710000
2,898903	-1,041347	88,182	-0,106532	22,370000	52,715000
2,897445	-1,235699	88,335	-0,106611	22,370000	52,715000
2,895920	-2,275847	88,487	-0,107035	22,370000	52,715000
2,894388	-2,211062	88,649	-0,107008	22,370000	52,715000
2,892928	-2,081494	88,801	-0,106956	22,370000	52,715000
2,891415	-2,016710	88,951	-0,106929	22,370000	52,715000
2,889931	-2,081494	89,104	-0,106956	22,370000	52,715000
2,888380	-1,821157	89,256	-0,106850	22,370000	52,715000
2,886951	-2,992072	89,408	-0,107326	22,370000	52,715000
2,885419	-3,055657	89,558	-0,107352	22,370000	52,715000
2,883890	-2,341830	89,713	-0,107062	22,370000	52,715000
2,882421	-2,211062	89,873	-0,107008	22,370000	52,715000
2,880962	-2,600967	90,024	-0,107167	22,370000	52,715000
2,879402	-2,406615	90,193	-0,107088	22,370000	52,715000
2,877950	-3,121641	90,343	-0,107379	22,370000	52,715000
2,876431	-2,600967	90,495	-0,107167	22,370000	52,715000
2,874909	-2,926088	90,655	-0,107299	22,370000	52,715000
2,873408	-2,926088	90,807	-0,107299	22,370000	52,715000
2,871946	-2,471399	90,959	-0,107114	22,370000	52,715000
2,870383	-2,796520	91,109	-0,107247	22,370000	52,715000
2,868895	-2,861304	91,259	-0,107273	22,370000	52,715000
2,867435	-3,381978	91,421	-0,107485	22,370000	52,715000
2,865905	-3,251209	91,573	-0,107432	22,370000	52,715000
2,864440	-2,861304	91,754	-0,107273	22,370000	52,715000
2,862947	-2,796520	91,906	-0,107247	22,370000	52,715000
2,861449	-2,926088	92,057	-0,107299	22,370000	52,715000
2,859901	-2,016710	92,208	-0,106929	22,360000	52,700000
2,858445	-2,796520	92,358	-0,107247	22,360000	52,700000
2,856877	-3,966235	92,508	-0,107723	22,360000	52,700000
2,855411	-3,641114	92,677	-0,107590	22,360000	52,700000
2,853957	-3,055657	92,832	-0,107352	22,360000	52,700000
2,852420	-3,446762	92,998	-0,107511	22,360000	52,700000
2,850931	-3,641114	93,150	-0,107590	22,360000	52,700000
2,849396	-3,381978	93,300	-0,107485	22,360000	52,700000
2,847906	-3,511546	93,456	-0,107538	22,360000	52,700000
2,846465	-3,315994	93,607	-0,107458	22,360000	52,700000
2,844942	-3,381978	93,758	-0,107485	22,360000	52,700000
2,843400	-3,576330	93,909	-0,107564	22,360000	52,700000
2,841922	-3,705899	94,060	-0,107617	22,360000	52,700000
2,840404	-3,771883	94,221	-0,107644	22,360000	52,700000
2,838877	-3,771883	94,377	-0,107644	22,360000	52,700000
2,837441	-3,511546	94,527	-0,107538	22,360000	52,700000
2,835920	-3,836667	94,683	-0,107670	22,360000	52,700000
2,834390	-4,032219	94,834	-0,107750	22,360000	52,700000
2,832899	-4,097004	95,007	-0,107776	22,360000	52,700000
2,831401	-3,966235	95,157	-0,107723	22,360000	52,700000
2,829924	-3,836667	95,307	-0,107670	22,360000	52,700000
2,828445	-4,422125	95,485	-0,107908	22,360000	52,700000
2,826958	-4,291356	95,636	-0,107855	22,360000	52,700000
2,825429	-4,356141	95,811	-0,107881	22,360000	52,700000
2,823915	-4,291356	95,963	-0,107855	22,360000	52,700000
2,822411	-4,226572	96,144	-0,107829	22,360000	52,710000
2,820936	-4,812030	96,294	-0,108067	22,360000	52,710000
2,819424	-5,007582	96,445	-0,108146	22,360000	52,710000
2,817883	-5,852177	96,665	-0,108490	22,360000	52,710000
2,816441	-5,787393	96,816	-0,108464	22,360000	52,710000
2,814933	-5,721409	96,992	-0,108437	22,360000	52,710000
2,813432	-4,422125	97,143	-0,107908	22,360000	52,710000
2,811897	-4,747245	97,294	-0,108041	22,360000	52,710000
2,810460	-5,266719	97,462	-0,108252	22,360000	52,710000
2,808937	-4,356141	97,612	-0,107881	22,360000	52,710000
2,807406	-5,462272	97,767	-0,108332	22,360000	52,710000
2,805897	-4,876814	97,919	-0,108093	22,360000	52,710000
2,804453	-4,681262	98,070	-0,108014	22,370000	52,715000
2,802922	-4,941598	98,226	-0,108120	22,370000	52,715000
2,801387	-5,266719	98,378	-0,108252	22,370000	52,715000
2,799922	-4,422125	98,557	-0,107908	22,370000	52,715000
2,798417	-5,072366	98,707	-0,108173	22,370000	52,715000
2,796884	-5,916961	98,858	-0,108517	22,370000	52,715000
2,795471	-5,981745	99,010	-0,108543	22,370000	52,715000
2,793928	-5,591840	99,161	-0,108384	22,370000	52,715000
2,792439	-5,787393	99,315	-0,108464	22,370000	52,715000
2,790895	-6,306866	99,465	-0,108675	22,370000	52,715000
2,789448	-5,787393	99,615	-0,108464	22,370000	52,715000
2,787949	-6,177298	99,786	-0,108623	22,370000	52,715000
2,786448	-6,437634	99,937	-0,108729	22,370000	52,715000
2,784938	-6,177298	100,088	-0,108623	22,370000	52,715000
2,783418	-6,306866	100,248	-0,108675	22,370000	52,715000
2,781926	-3,705899	100,400	-0,107617	22,370000	52,715000
2,780434	-3,576330	100,558	-0,107564	22,370000	52,715000
2,778924	-3,186425	100,708	-0,107405	22,370000	52,715000
2,777418	-2,081494	100,858	-0,106956	22,370000	52,715000
2,775931	-2,211062	101,045	-0,107008	22,370000	52,715000
2,774493	-2,016710	101,196	-0,106929	22,370000	52,715000
2,772919	0,259137	101,358	-0,106003	22,370000	52,715000
2,771440	-0,195552	101,509	-0,106188	22,370000	52,715000
2,769954	0,063585	101,659	-0,106083	22,370000	52,715000
2,768454	-0,391105	101,815	-0,106268	22,370000	52,715000
2,766893	0,519474	101,966	-0,105897	22,370000	52,715000
2,765446	1,038947	102,116	-0,105686	22,370000	52,730000
2,763912	-0,391105	102,288	-0,106268	22,370000	52,730000
2,762435	0,063585	102,439	-0,106083	22,370000	52,730000
2,760897	0,063585	102,620	-0,106083	22,370000	52,730000
2,759420	-0,391105	102,772	-0,106268	22,370000	52,730000
2,757918	-0,130768	102,924	-0,106162	22,370000	52,730000
2,756430	0,194353	103,085	-0,106029	22,370000	52,730000
2,754940	0,194353	103,235	-0,106029	22,370000	52,730000
2,753425	-0,391105	103,414	-0,106268	22,370000	52,730000
2,751890	0,000000	103,564	-0,106108	22,370000	52,730000
2,750455	-0,130768	103,716	-0,106162	22,370000	52,730000
2,748907	-0,260337	103,872	-0,106214	22,370000	52,730000
2,747413	0,000000	104,024	-0,106108	22,370000	52,730000
2,745980	0,259137	104,183	-0,106003	22,370000	52,715000
2,744457	0,000000	104,335	-0,106108	22,370000	52,715000
2,742901	0,454689	104,485	-0,105923	22,370000	52,715000
2,741393	-0,130768	104,643	-0,106162	22,370000	52,715000
2,739916	-0,391105	104,795	-0,106268	22,370000	52,715000
2,738466	0,194353	104,962	-0,106029	22,370000	52,715000
2,736902	-0,391105	105,113	-0,106268	22,370000	52,715000
2,735433	0,000000	105,264	-0,106108	22,370000	52,715000
2,733965	0,000000	105,420	-0,106108	22,370000	52,715000
2,732406	-0,391105	105,571	-0,106268	22,370000	52,715000
2,730913	0,000000	105,721	-0,106108	22,370000	52,715000
2,729441	-0,391105	105,884	-0,106268	22,370000	52,715000
2,727928	-0,455889	106,036	-0,106294	22,370000	52,715000
2,726493	0,063585	106,213	-0,106083	22,370000	52,730000
2,724952	0,259137	106,363	-0,106003	22,370000	52,730000
2,723464	-0,260337	106,515	-0,106214	22,370000	52,730000
2,721924	-0,326321	106,678	-0,106241	22,370000	52,730000
2,720394	0,129568	106,828	-0,106056	22,370000	52,730000
2,718917	-0,260337	107,012	-0,106214	22,370000	52,730000
2,717348	0,323921	107,164	-0,105977	22,370000	52,730000
2,715888	-0,326321	107,317	-0,106241	22,370000	52,730000
2,714382	0,000000	107,475	-0,106108	22,370000	52,730000
2,712973	0,129568	107,626	-0,106056	22,370000	52,730000
2,711449	-0,391105	107,810	-0,106268	22,370000	52,730000
2,709926	0,129568	107,961	-0,106056	22,370000	52,730000
2,708451	0,259137	108,111	-0,106003	22,370000	52,730000
2,706963	0,323921	108,279	-0,105977	22,370000	52,730000
2,705444	-0,260337	108,429	-0,106214	22,370000	52,730000
2,703890	-0,065984	108,603	-0,106135	22,370000	52,730000
2,702417	0,323921	108,753	-0,105977	22,370000	52,730000
2,700922	0,323921	108,906	-0,105977	22,370000	52,730000
2,699437	-0,455889	109,066	-0,106294	22,370000	52,730000
2,697925	-0,260337	109,218	-0,106214	22,370000	52,730000
2,696455	0,129568	109,368	-0,106056	22,370000	52,730000
2,694932	0,063585	109,518	-0,106083	22,370000	52,730000
2,693435	0,000000	109,670	-0,106108	22,370000	52,730000
2,691956	-0,260337	109,824	-0,106214	22,370000	52,730000
2,690398	-0,391105	109,975	-0,106268	22,370000	52,730000
2,688970	-0,326321	110,126	-0,106241	22,360000	52,710000
2,687407	0,323921	110,279	-0,105977	22,360000	52,710000
2,685889	0,000000	110,429	-0,106108	22,360000	52,710000
2,684449	0,584258	110,604	-0,105871	22,360000	52,710000
2,682921	0,063585	110,756	-0,106083	22,360000	52,710000
2,681380	-0,130768	110,906	-0,106162	22,360000	52,710000
2,679903	0,454689	111,078	-0,105923	22,360000	52,710000
2,678491	0,063585	111,230	-0,106083	22,360000	52,710000
2,676980	-0,130768	111,410	-0,106162	22,360000	52,710000
2,675419	-0,065984	111,562	-0,106135	22,360000	52,710000
2,673958	-0,326321	111,714	-0,106241	22,360000	52,710000
2,672444	0,063585	111,872	-0,106083	22,360000	52,710000
2,670964	0,000000	112,024	-0,106108	22,360000	52,710000
2,669416	-0,326321	112,176	-0,106241	22,360000	52,710000
2,667964	-0,260337	112,326	-0,106214	22,360000	52,710000
2,666436	-0,391105	112,476	-0,106268	22,360000	52,710000
2,664896	0,000000	112,636	-0,106108	22,360000	52,710000
2,663440	-0,326321	112,788	-0,106241	22,360000	52,710000
2,661863	-0,260337	112,938	-0,106214	22,360000	52,710000
2,660434	0,063585	113,116	-0,106083	22,360000	52,710000
2,659977	-0,130768	113,166	-0,106162	22,360000	52,710000