File: Nanoindentation Datenauswertung/data/PDMS/EM-PDMS-120-10-120-0,8um-1
Quasi static measurement routine
Tip parameters (shape,radius, material...)
26.08.2022

Piezo position[nm]	MEMS displ.[nm]	Time[ms]	Cap [pf]	Temp [°C]	Rh [%]
eoh
1,834020	-0,083425	0,191	-0,135130	22,730000	57,645000
1,835988	-0,116550	0,491	-0,135143	22,730000	57,645000
1,837981	0,158262	0,792	-0,135034	22,730000	57,645000
1,840005	-0,257636	1,093	-0,135199	22,730000	57,660000
1,841991	-0,332473	1,393	-0,135229	22,730000	57,660000
1,843972	-0,158262	1,695	-0,135160	22,730000	57,660000
1,846032	-0,199974	1,995	-0,135176	22,730000	57,660000
1,847949	-0,017176	2,296	-0,135104	22,730000	57,660000
1,850037	-0,249048	2,598	-0,135196	22,730000	57,660000
1,852015	-0,158262	2,900	-0,135160	22,730000	57,660000
1,854003	-0,166850	3,201	-0,135163	22,730000	57,660000
1,855993	-0,307936	3,503	-0,135219	22,730000	57,660000
1,857992	-0,215923	3,804	-0,135183	22,730000	57,660000
1,859962	-0,382773	4,106	-0,135249	22,730000	57,660000
1,861944	-0,125137	4,407	-0,135146	22,730000	57,660000
1,864021	-0,125137	4,707	-0,135146	22,730000	57,660000
1,865992	-0,141086	5,007	-0,135153	22,730000	57,660000
1,868012	-0,066249	5,309	-0,135123	22,730000	57,660000
1,870023	-0,315297	5,609	-0,135222	22,730000	57,660000
1,871991	-0,424486	5,912	-0,135266	22,730000	57,660000
1,873935	-0,125137	6,213	-0,135146	22,730000	57,660000
1,875989	-0,257636	6,513	-0,135199	22,730000	57,660000
1,878021	-0,323885	6,815	-0,135226	22,730000	57,660000
1,880023	-0,415898	7,116	-0,135262	22,720000	57,655000
1,881992	-0,357010	7,418	-0,135239	22,720000	57,655000
1,884023	-0,224511	7,718	-0,135186	22,720000	57,655000
1,885956	-0,174211	8,018	-0,135166	22,720000	57,655000
1,887980	0,099374	8,318	-0,135057	22,720000	57,655000
1,889987	-0,191387	8,619	-0,135173	22,720000	57,655000
1,892032	-0,282173	8,920	-0,135209	22,730000	57,620000
1,893909	-0,332473	9,221	-0,135229	22,730000	57,620000
1,895938	-0,590109	9,522	-0,135332	22,730000	57,620000
1,898005	-0,374185	9,822	-0,135246	22,730000	57,620000
1,900003	-0,141086	10,123	-0,135153	22,730000	57,620000
1,902039	-0,125137	10,423	-0,135146	22,730000	57,620000
1,904023	-0,349649	10,723	-0,135236	22,730000	57,620000
1,905960	-0,290760	11,024	-0,135212	22,730000	57,620000
1,907974	-0,390134	11,324	-0,135252	22,730000	57,620000
1,910060	-0,457610	11,624	-0,135279	22,730000	57,620000
1,912052	-0,233099	11,925	-0,135189	22,730000	57,620000
1,913998	-0,257636	12,225	-0,135199	22,730000	57,620000
1,915952	-0,473559	12,526	-0,135285	22,730000	57,620000
1,917977	-0,349649	12,827	-0,135236	22,730000	57,620000
1,919980	-0,290760	13,128	-0,135212	22,740000	57,660000
1,921958	-0,149674	13,429	-0,135156	22,740000	57,660000
1,923954	-0,141086	13,732	-0,135153	22,740000	57,660000
1,925968	-0,050300	14,032	-0,135117	22,740000	57,660000
1,928016	-0,199974	14,333	-0,135176	22,740000	57,660000
1,929949	-0,191387	14,633	-0,135173	22,740000	57,660000
1,932042	-0,473559	14,934	-0,135285	22,730000	57,630000
1,934011	-0,141086	15,235	-0,135153	22,730000	57,630000
1,935958	-0,415898	15,537	-0,135262	22,730000	57,630000
1,938001	-0,315297	15,837	-0,135222	22,730000	57,630000
1,940013	-0,116550	16,139	-0,135143	22,730000	57,630000
1,941956	-0,249048	16,441	-0,135196	22,730000	57,630000
1,943954	-0,698070	16,741	-0,135375	22,730000	57,630000
1,945940	-0,332473	17,043	-0,135229	22,720000	57,625000
1,947946	-0,431847	17,344	-0,135269	22,720000	57,625000
1,949987	-0,407310	17,644	-0,135259	22,720000	57,625000
1,951997	-0,233099	17,944	-0,135189	22,720000	57,625000
1,954005	-0,365598	18,244	-0,135242	22,720000	57,625000
1,955969	-0,107962	18,546	-0,135140	22,720000	57,625000
1,957971	-0,440435	18,847	-0,135272	22,730000	57,675000
1,959972	-0,341061	19,149	-0,135232	22,730000	57,675000
1,961986	-0,090786	19,451	-0,135133	22,730000	57,675000
1,963947	-0,407310	19,751	-0,135259	22,730000	57,675000
1,965997	-0,274812	20,054	-0,135206	22,730000	57,675000
1,967950	0,033125	20,355	-0,135083	22,730000	57,675000
1,969951	-0,208562	20,655	-0,135180	22,730000	57,675000
1,971970	-0,233099	20,955	-0,135189	22,730000	57,630000
1,974022	-0,357010	21,256	-0,135239	22,730000	57,630000
1,976042	-0,357010	21,556	-0,135239	22,730000	57,630000
1,977965	-0,315297	21,856	-0,135222	22,730000	57,630000
1,980011	0,257636	22,156	-0,134994	22,730000	57,630000
1,981989	-0,390134	22,458	-0,135252	22,730000	57,630000
1,984040	-0,299348	22,758	-0,135216	22,730000	57,630000
1,986027	-0,357010	23,059	-0,135239	22,730000	57,630000
1,988015	-0,241687	23,359	-0,135193	22,730000	57,630000
1,989999	-0,415898	23,661	-0,135262	22,730000	57,630000
1,992012	-0,390134	23,963	-0,135252	22,730000	57,630000
1,993982	-0,382773	24,264	-0,135249	22,730000	57,630000
1,995986	-0,307936	24,564	-0,135219	22,730000	57,630000
1,997928	-0,614645	24,865	-0,135341	22,730000	57,645000
1,999985	-0,090786	25,165	-0,135133	22,730000	57,645000
2,002004	-0,424486	25,465	-0,135266	22,730000	57,645000
2,003996	-0,424486	25,767	-0,135266	22,730000	57,645000
2,005982	-0,033125	26,068	-0,135110	22,730000	57,645000
2,008007	-0,457610	26,369	-0,135279	22,730000	57,645000
2,009975	-0,116550	26,670	-0,135143	22,730000	57,645000
2,011932	-0,556984	26,972	-0,135318	22,730000	57,645000
2,013958	-0,523860	27,272	-0,135305	22,730000	57,645000
2,015957	-0,457610	27,574	-0,135279	22,730000	57,645000
2,018003	-0,482147	27,874	-0,135289	22,730000	57,645000
2,019965	-0,415898	28,174	-0,135262	22,730000	57,645000
2,021979	-0,482147	28,475	-0,135289	22,730000	57,645000
2,023948	-0,299348	28,775	-0,135216	22,730000	57,645000
2,025955	-0,656358	29,075	-0,135358	22,730000	57,630000
2,027964	-0,431847	29,375	-0,135269	22,730000	57,630000
2,029965	-0,473559	29,676	-0,135285	22,730000	57,630000
2,031975	-0,407310	29,980	-0,135259	22,730000	57,630000
2,033968	-0,365598	30,280	-0,135242	22,730000	57,630000
2,035929	-0,374185	30,581	-0,135246	22,730000	57,630000
2,037954	-0,531221	30,882	-0,135308	22,730000	57,645000
2,039989	-0,482147	31,184	-0,135289	22,730000	57,645000
2,042004	-0,640409	31,487	-0,135352	22,730000	57,645000
2,043972	-0,581521	31,787	-0,135328	22,730000	57,645000
2,045995	-0,233099	32,089	-0,135189	22,730000	57,645000
2,047974	-0,598697	32,392	-0,135335	22,730000	57,645000
2,049934	-0,473559	32,694	-0,135285	22,730000	57,645000
2,051976	-0,466198	32,994	-0,135282	22,730000	57,620000
2,053983	-0,556984	33,295	-0,135318	22,730000	57,620000
2,055992	-0,515272	33,596	-0,135302	22,730000	57,620000
2,057958	-0,315297	33,896	-0,135222	22,730000	57,620000
2,059970	-0,631821	34,196	-0,135348	22,730000	57,620000
2,061948	-0,449022	34,496	-0,135275	22,730000	57,620000
2,063943	-0,466198	34,797	-0,135282	22,730000	57,620000
2,065956	-0,790083	35,097	-0,135411	22,730000	57,675000
2,068009	-0,565572	35,397	-0,135322	22,730000	57,675000
2,069980	-0,556984	35,698	-0,135318	22,730000	57,675000
2,071981	-0,440435	36,001	-0,135272	22,730000	57,675000
2,074013	-0,440435	36,302	-0,135272	22,730000	57,675000
2,076037	-0,689483	36,602	-0,135371	22,730000	57,675000
2,077982	-0,797444	36,902	-0,135414	22,730000	57,620000
2,079955	-0,374185	37,202	-0,135246	22,730000	57,620000
2,081932	-0,357010	37,503	-0,135239	22,730000	57,620000
2,083955	-0,590109	37,803	-0,135332	22,730000	57,620000
2,085975	-0,607284	38,105	-0,135338	22,730000	57,620000
2,087980	-0,398722	38,406	-0,135255	22,730000	57,620000
2,089989	-0,199974	38,707	-0,135176	22,730000	57,620000
2,091947	-0,598697	39,008	-0,135335	22,730000	57,620000
2,093968	-0,581521	39,309	-0,135328	22,730000	57,620000
2,096014	-0,565572	39,609	-0,135322	22,730000	57,620000
2,097976	-0,797444	39,912	-0,135414	22,730000	57,620000
2,099996	-0,581521	40,213	-0,135328	22,730000	57,620000
2,102004	-0,466198	40,513	-0,135282	22,730000	57,620000
2,103965	-0,556984	40,814	-0,135318	22,730000	57,620000
2,106025	-0,490735	41,115	-0,135292	22,720000	57,655000
2,107968	-0,457610	41,416	-0,135279	22,720000	57,655000
2,110002	-0,515272	41,717	-0,135302	22,720000	57,655000
2,111937	-0,158262	42,018	-0,135160	22,720000	57,655000
2,113994	-0,490735	42,318	-0,135292	22,720000	57,655000
2,116006	-0,565572	42,618	-0,135322	22,720000	57,655000
2,117974	-0,715246	42,919	-0,135381	22,720000	57,655000
2,119983	-0,332473	43,220	-0,135229	22,720000	57,655000
2,121969	-0,531221	43,521	-0,135308	22,720000	57,655000
2,124012	-0,506684	43,821	-0,135298	22,720000	57,655000
2,125978	-0,623233	44,122	-0,135345	22,720000	57,655000
2,127971	-0,598697	44,422	-0,135335	22,720000	57,655000
2,129927	-0,572933	44,722	-0,135325	22,720000	57,655000
2,131964	-0,598697	45,023	-0,135335	22,730000	57,620000
2,133957	-0,506684	45,323	-0,135298	22,730000	57,620000
2,135980	-0,739783	45,623	-0,135391	22,730000	57,620000
2,137969	-0,382773	45,923	-0,135249	22,730000	57,620000
2,139988	-0,548396	46,224	-0,135315	22,730000	57,620000
2,142010	-0,856332	46,524	-0,135438	22,730000	57,620000
2,143984	-0,706658	46,825	-0,135378	22,730000	57,620000
2,145951	-0,431847	47,126	-0,135269	22,730000	57,620000
2,147944	-0,390134	47,428	-0,135252	22,730000	57,620000
2,149923	-0,457610	47,731	-0,135279	22,730000	57,620000
2,152026	-0,806032	48,032	-0,135417	22,730000	57,620000
2,153977	-0,398722	48,332	-0,135255	22,730000	57,620000
2,155993	-0,581521	48,634	-0,135328	22,730000	57,620000
2,157958	-0,706658	48,934	-0,135378	22,730000	57,620000
2,159951	-0,689483	49,236	-0,135371	22,730000	57,620000
2,161952	-0,191387	49,536	-0,135173	22,730000	57,620000
2,163961	-0,689483	49,837	-0,135371	22,730000	57,620000
2,165962	-0,656358	50,140	-0,135358	22,730000	57,620000
2,167971	-0,241687	50,441	-0,135193	22,730000	57,620000
2,169954	-0,698070	50,742	-0,135375	22,730000	57,620000
2,171994	-0,590109	51,042	-0,135332	22,740000	57,645000
2,173989	-0,640409	51,342	-0,135352	22,740000	57,645000
2,175981	-0,797444	51,642	-0,135414	22,740000	57,645000
2,177979	-0,506684	51,942	-0,135298	22,740000	57,645000
2,180016	-0,548396	52,242	-0,135315	22,740000	57,645000
2,181977	-0,823208	52,543	-0,135424	22,740000	57,645000
2,183959	-0,739783	52,843	-0,135391	22,740000	57,645000
2,185969	-0,764320	53,143	-0,135401	22,730000	57,630000
2,187947	-0,797444	53,443	-0,135414	22,730000	57,630000
2,189974	-0,598697	53,744	-0,135335	22,730000	57,630000
2,191945	-0,572933	54,046	-0,135325	22,730000	57,630000
2,193993	-0,898045	54,347	-0,135454	22,730000	57,630000
2,195989	-0,648997	54,648	-0,135355	22,730000	57,630000
2,198000	-0,988831	54,949	-0,135490	22,730000	57,620000
2,199966	-0,581521	55,249	-0,135328	22,730000	57,620000
2,201967	-0,847745	55,549	-0,135434	22,730000	57,620000
2,203973	-0,790083	55,849	-0,135411	22,730000	57,620000
2,205984	-0,931170	56,150	-0,135467	22,730000	57,620000
2,207956	-0,814620	56,453	-0,135421	22,730000	57,620000
2,209979	-0,515272	56,753	-0,135302	22,730000	57,620000
2,211937	-0,739783	57,054	-0,135391	22,730000	57,620000
2,213957	-0,607284	57,355	-0,135338	22,730000	57,620000
2,215951	-0,772908	57,655	-0,135404	22,730000	57,620000
2,217962	-0,689483	57,955	-0,135371	22,730000	57,620000
2,219977	-0,482147	58,255	-0,135289	22,730000	57,620000
2,221946	-0,664946	58,555	-0,135361	22,730000	57,620000
2,224007	-0,640409	58,855	-0,135352	22,730000	57,620000
2,225967	-1,138505	59,156	-0,135550	22,730000	57,620000
2,227985	-0,739783	59,457	-0,135391	22,730000	57,620000
2,229942	-0,581521	59,757	-0,135328	22,730000	57,620000
2,231984	-0,964294	60,058	-0,135480	22,730000	57,620000
2,233956	-0,623233	60,358	-0,135345	22,730000	57,620000
2,235917	-0,906633	60,658	-0,135458	22,730000	57,620000
2,237934	-0,797444	60,959	-0,135414	22,740000	57,620000
2,239916	-0,797444	61,260	-0,135414	22,740000	57,620000
2,241932	-0,656358	61,562	-0,135358	22,740000	57,620000
2,243981	-0,839157	61,863	-0,135431	22,740000	57,620000
2,245909	-0,755732	62,163	-0,135397	22,740000	57,620000
2,247979	-0,988831	62,463	-0,135490	22,740000	57,620000
2,249991	-0,640409	62,764	-0,135352	22,740000	57,620000
2,251944	-0,906633	63,065	-0,135458	22,730000	57,605000
2,254015	-0,781495	63,365	-0,135408	22,730000	57,605000
2,255986	-0,880869	63,665	-0,135447	22,730000	57,605000
2,258007	-0,781495	63,966	-0,135408	22,730000	57,605000
2,259896	-1,096793	64,266	-0,135533	22,730000	57,605000
2,261939	-0,856332	64,566	-0,135438	22,730000	57,605000
2,263949	-0,913994	64,867	-0,135460	22,730000	57,605000
2,265941	-0,931170	65,167	-0,135467	22,730000	57,605000
2,267946	-0,640409	65,467	-0,135352	22,730000	57,605000
2,269929	-0,955706	65,768	-0,135477	22,730000	57,605000
2,271976	-1,047719	66,068	-0,135514	22,730000	57,605000
2,273922	-0,947118	66,369	-0,135474	22,730000	57,605000
2,275916	-0,980243	66,669	-0,135487	22,730000	57,605000
2,277934	-0,748371	66,970	-0,135395	22,730000	57,580000
2,279935	-0,814620	67,271	-0,135421	22,730000	57,580000
2,281966	-0,980243	67,572	-0,135487	22,730000	57,580000
2,283940	-1,089432	67,873	-0,135530	22,730000	57,580000
2,285984	-0,947118	68,173	-0,135474	22,730000	57,580000
2,287949	-1,063668	68,475	-0,135520	22,730000	57,580000
2,289955	-0,880869	68,776	-0,135447	22,730000	57,580000
2,291963	-0,947118	69,076	-0,135474	22,730000	57,620000
2,293939	-1,089432	69,378	-0,135530	22,730000	57,620000
2,295935	-0,931170	69,680	-0,135467	22,730000	57,620000
2,297937	-1,030543	69,981	-0,135507	22,730000	57,620000
2,299980	-0,830569	70,281	-0,135427	22,730000	57,620000
2,302035	-0,906633	70,582	-0,135458	22,730000	57,620000
2,304013	-1,063668	70,882	-0,135520	22,730000	57,605000
2,305929	-0,997419	71,182	-0,135494	22,730000	57,605000
2,307920	-1,255055	71,483	-0,135596	22,730000	57,605000
2,309960	-0,955706	71,785	-0,135477	22,730000	57,605000
2,311957	-1,013368	72,085	-0,135500	22,730000	57,605000
2,313956	-0,980243	72,385	-0,135487	22,730000	57,605000
2,315953	-1,013368	72,687	-0,135500	22,730000	57,605000
2,317968	-1,138505	72,987	-0,135550	22,730000	57,630000
2,319964	-1,347067	73,287	-0,135633	22,730000	57,630000
2,321948	-1,321304	73,587	-0,135623	22,730000	57,630000
2,323963	-1,288179	73,888	-0,135609	22,730000	57,630000
2,325946	-1,338480	74,191	-0,135629	22,730000	57,630000
2,327966	-1,237879	74,491	-0,135589	22,730000	57,630000
2,329961	-1,122556	74,793	-0,135543	22,730000	57,630000
2,331996	-1,196166	75,094	-0,135573	22,730000	57,605000
2,334021	-1,404729	75,395	-0,135656	22,730000	57,605000
2,335900	-1,396141	75,695	-0,135652	22,730000	57,605000
2,337941	-1,221930	75,996	-0,135583	22,730000	57,605000
2,340029	-1,296767	76,296	-0,135613	22,730000	57,605000
2,341928	-1,371604	76,596	-0,135643	22,730000	57,605000
2,343938	-1,529866	76,896	-0,135706	22,730000	57,605000
2,345969	-1,470978	77,197	-0,135682	22,730000	57,605000
2,347937	-1,545815	77,498	-0,135712	22,730000	57,605000
2,350000	-1,853751	77,798	-0,135834	22,730000	57,605000
2,351985	-1,629240	78,098	-0,135745	22,730000	57,605000
2,353939	-1,636601	78,398	-0,135748	22,730000	57,605000
2,355966	-1,820627	78,700	-0,135821	22,730000	57,605000
2,357950	-1,612064	79,001	-0,135738	22,730000	57,605000
2,359945	-1,961713	79,301	-0,135877	22,730000	57,605000
2,362000	-2,077036	79,603	-0,135923	22,730000	57,605000
2,363915	-71,388436	79,903	-0,163509	22,730000	57,605000
2,365950	-72,070558	80,203	-0,163781	22,730000	57,605000
2,367964	-73,183299	80,504	-0,164224	22,730000	57,605000
2,369961	-72,917076	80,806	-0,164118	22,730000	57,605000
2,371940	-72,318379	81,106	-0,163879	22,730000	57,605000
2,374016	-72,318379	81,407	-0,163879	22,730000	57,605000
2,375931	-71,421561	81,707	-0,163522	22,730000	57,605000
2,377993	-71,064551	82,009	-0,163380	22,730000	57,605000
2,379963	-70,582404	82,311	-0,163188	22,730000	57,605000
2,381895	-69,975120	82,612	-0,162947	22,730000	57,605000
2,383973	-69,659823	82,913	-0,162821	22,730000	57,605000
2,385958	-69,543273	83,215	-0,162775	22,730000	57,605000
2,387993	-69,120014	83,517	-0,162606	22,730000	57,605000
2,389946	-68,338519	83,818	-0,162295	22,730000	57,605000
2,391999	-67,988870	84,118	-0,162156	22,730000	57,605000
2,393954	-67,390174	84,418	-0,161918	22,730000	57,605000
2,395936	-66,867541	84,719	-0,161710	22,730000	57,605000
2,397962	-66,178058	85,020	-0,161436	22,730000	57,605000
2,399960	-65,072678	85,321	-0,160996	22,730000	57,605000
2,401946	-64,731617	85,622	-0,160860	22,730000	57,605000
2,403945	-64,399144	85,922	-0,160728	22,730000	57,605000
2,406011	-63,326888	86,222	-0,160301	22,730000	57,605000
2,408003	-62,787080	86,524	-0,160086	22,730000	57,605000
2,409916	-61,349227	86,825	-0,159514	22,730000	57,605000
2,411954	-61,291565	87,126	-0,159491	22,740000	57,580000
2,413916	-60,384932	87,427	-0,159130	22,740000	57,580000
2,415925	-59,961674	87,727	-0,158961	22,740000	57,580000
2,417951	-59,021916	88,028	-0,158587	22,740000	57,580000
2,419980	-58,398683	88,329	-0,158339	22,740000	57,580000
2,421993	-57,244229	88,631	-0,157880	22,740000	57,580000
2,423955	-57,193929	88,931	-0,157860	22,730000	57,605000
2,425937	-56,171973	89,232	-0,157453	22,730000	57,605000
2,427933	-55,199091	89,534	-0,157066	22,730000	57,605000
2,429905	-54,983168	89,834	-0,156980	22,730000	57,605000
2,431913	-53,745289	90,134	-0,156487	22,730000	57,605000
2,433932	-53,155180	90,434	-0,156252	22,730000	57,605000
2,435941	-52,398222	90,735	-0,155951	22,730000	57,605000
2,437934	-51,833876	91,036	-0,155727	22,730000	57,605000
2,439983	-51,251129	91,336	-0,155495	22,730000	57,605000
2,441940	-50,486809	91,636	-0,155190	22,730000	57,605000
2,443947	-49,482029	91,936	-0,154791	22,730000	57,605000
2,445963	-49,007243	92,237	-0,154602	22,730000	57,605000
2,448012	-48,418361	92,537	-0,154367	22,730000	57,605000
2,449919	-47,528904	92,839	-0,154013	22,730000	57,605000
2,451982	-46,315562	93,141	-0,153530	22,730000	57,590000
2,453939	-46,481185	93,441	-0,153596	22,730000	57,590000
2,455942	-45,408929	93,742	-0,153169	22,730000	57,590000
2,457885	-44,985671	94,042	-0,153001	22,730000	57,590000
2,459954	-44,120750	94,342	-0,152657	22,730000	57,590000
2,461991	-42,891459	94,642	-0,152167	22,730000	57,590000
2,463937	-41,902628	94,943	-0,151774	22,730000	57,605000
2,465932	-42,085427	95,244	-0,151847	22,730000	57,605000
2,467990	-40,954283	95,545	-0,151396	22,730000	57,605000
2,469912	-39,890615	95,845	-0,150973	22,730000	57,605000
2,471928	-39,450181	96,145	-0,150798	22,730000	57,605000
2,473976	-38,520238	96,445	-0,150428	22,730000	57,605000
2,475914	-38,254014	96,746	-0,150322	22,730000	57,605000
2,477944	-37,305669	97,048	-0,149944	22,730000	57,605000
2,479969	-36,459151	97,348	-0,149607	22,730000	57,605000
2,481954	-35,686244	97,648	-0,149300	22,730000	57,605000
2,483950	-34,613988	97,949	-0,148873	22,730000	57,605000
2,485979	-34,248390	98,250	-0,148728	22,730000	57,605000
2,487952	-33,666870	98,552	-0,148496	22,730000	57,605000
2,489940	-32,586026	98,852	-0,148066	22,740000	57,630000
2,491948	-32,278090	99,154	-0,147943	22,740000	57,630000
2,493968	-30,766626	99,457	-0,147342	22,740000	57,630000
2,495948	-30,134805	99,759	-0,147090	22,740000	57,630000
2,497989	-29,885757	100,060	-0,146991	22,740000	57,630000
2,499939	-29,218357	100,361	-0,146726	22,740000	57,630000
2,501929	-27,558447	100,661	-0,146065	22,740000	57,630000
2,503986	-27,043175	100,964	-0,145860	22,720000	57,600000
2,505943	-26,435890	101,266	-0,145618	22,720000	57,600000
2,507928	-25,521897	101,566	-0,145254	22,720000	57,600000
2,509953	-24,865539	101,867	-0,144993	22,720000	57,600000
2,511989	-23,951545	102,168	-0,144629	22,720000	57,600000
2,514013	-23,236299	102,468	-0,144345	22,720000	57,600000
2,515987	-22,754152	102,770	-0,144153	22,720000	57,600000
2,517997	-21,591110	103,070	-0,143690	22,730000	57,645000
2,519949	-20,884452	103,370	-0,143409	22,730000	57,645000
2,521960	-19,796247	103,670	-0,142976	22,730000	57,645000
2,523948	-19,422061	103,970	-0,142827	22,730000	57,645000
2,525920	-18,299505	104,272	-0,142380	22,730000	57,645000
2,527969	-17,618611	104,572	-0,142109	22,730000	57,645000
2,529981	-16,313256	104,872	-0,141589	22,730000	57,645000
2,531989	-15,748911	105,173	-0,141365	22,730000	57,645000
2,534011	-14,942878	105,473	-0,141044	22,730000	57,645000
2,535936	-14,302469	105,773	-0,140789	22,730000	57,645000
2,537965	-13,604399	106,074	-0,140511	22,730000	57,645000
2,539973	-12,175133	106,374	-0,139942	22,730000	57,645000
2,541921	-11,534724	106,675	-0,139687	22,730000	57,645000
2,543963	-10,986328	106,975	-0,139469	22,730000	57,605000
2,545940	-9,931248	107,276	-0,139049	22,730000	57,605000
2,547969	-8,858992	107,577	-0,138623	22,730000	57,605000
2,549970	-8,011248	107,878	-0,138285	22,730000	57,605000
2,552017	-7,205216	108,178	-0,137964	22,730000	57,605000
2,553989	-6,432308	108,479	-0,137657	22,730000	57,605000
2,556016	-5,784538	108,779	-0,137399	22,730000	57,605000
2,557980	-4,421522	109,080	-0,136856	22,730000	57,590000
2,559918	-3,981087	109,381	-0,136681	22,730000	57,590000
2,561967	-3,166467	109,681	-0,136357	22,730000	57,590000
2,563944	-2,294186	109,981	-0,136010	22,730000	57,590000
2,566012	-1,188805	110,281	-0,135570	22,730000	57,590000
2,567972	-0,640409	110,582	-0,135352	22,730000	57,590000
2,569940	0,240460	110,883	-0,135001	22,740000	57,630000
2,571948	1,413317	111,184	-0,134534	22,740000	57,630000
2,573992	2,343259	111,485	-0,134164	22,740000	57,630000
2,576011	2,916192	111,785	-0,133936	22,740000	57,630000
2,577965	3,664563	112,085	-0,133638	22,740000	57,630000
2,579967	4,454646	112,385	-0,133324	22,740000	57,630000
2,581943	5,060704	112,686	-0,133083	22,740000	57,630000
2,583927	6,150135	112,986	-0,132649	22,720000	57,625000
2,585908	7,297228	113,287	-0,132192	22,720000	57,625000
2,587923	8,509344	113,587	-0,131710	22,720000	57,625000
2,589971	9,166928	113,888	-0,131448	22,720000	57,625000
2,591932	9,482226	114,188	-0,131323	22,720000	57,625000
2,593959	10,521357	114,489	-0,130909	22,720000	57,625000
2,595931	11,759236	114,790	-0,130417	22,720000	57,625000
2,597981	12,848667	115,091	-0,129983	22,720000	57,625000
2,599907	13,745485	115,391	-0,129626	22,720000	57,625000
2,601956	14,352770	115,691	-0,129384	22,720000	57,625000
2,603988	14,991952	115,992	-0,129130	22,720000	57,625000
2,605951	15,649537	116,293	-0,128868	22,720000	57,625000
2,607983	16,819940	116,593	-0,128402	22,720000	57,625000
2,609982	17,610023	116,894	-0,128088	22,730000	57,620000
2,611941	18,266381	117,195	-0,127827	22,730000	57,620000
2,613924	19,173014	117,496	-0,127466	22,730000	57,620000
2,615925	19,812196	117,798	-0,127211	22,730000	57,620000
2,617946	20,908988	118,098	-0,126775	22,730000	57,620000
2,619916	22,164043	118,400	-0,126275	22,730000	57,620000
2,621926	22,928363	118,702	-0,125971	22,730000	57,620000
2,623951	23,069449	119,003	-0,125915	22,730000	57,605000
2,625938	24,249666	119,304	-0,125445	22,730000	57,605000
2,627997	25,272849	119,604	-0,125038	22,730000	57,605000
2,629943	26,319341	119,905	-0,124622	22,730000	57,605000
2,631974	26,378229	120,205	-0,124598	22,730000	57,605000
2,633949	27,010050	120,505	-0,124347	22,730000	57,605000
2,634002	27,541271	120,805	-0,124135	22,730000	57,605000
2,633949	27,475022	121,105	-0,124162	22,730000	57,605000
2,633970	27,200210	121,405	-0,124271	22,730000	57,605000
2,633928	26,843200	121,705	-0,124413	22,730000	57,605000
2,633959	26,627277	122,005	-0,124499	22,730000	57,605000
2,633926	26,610101	122,305	-0,124506	22,730000	57,605000
2,633905	26,785539	122,605	-0,124436	22,730000	57,605000
2,633961	26,543852	122,906	-0,124532	22,730000	57,605000
2,633948	26,319341	123,208	-0,124622	22,730000	57,605000
2,633919	26,053117	123,509	-0,124728	22,730000	57,605000
2,633961	26,153718	123,811	-0,124688	22,730000	57,605000
2,633927	26,195430	124,113	-0,124671	22,730000	57,605000
2,633953	26,053117	124,413	-0,124728	22,730000	57,605000
2,633958	26,286216	124,713	-0,124635	22,730000	57,605000
2,633957	26,078881	125,013	-0,124717	22,730000	57,645000
2,633939	25,721871	125,313	-0,124859	22,730000	57,645000
2,633992	25,887494	125,613	-0,124793	22,730000	57,645000
2,633936	25,978280	125,913	-0,124757	22,730000	57,645000
2,633954	25,671571	126,213	-0,124879	22,730000	57,645000
2,633957	25,455647	126,513	-0,124965	22,730000	57,645000
2,633930	25,629858	126,814	-0,124896	22,730000	57,645000
2,633957	25,488772	127,114	-0,124952	22,730000	57,620000
2,633934	25,231136	127,416	-0,125055	22,730000	57,620000
2,633940	25,147711	127,717	-0,125088	22,730000	57,620000
2,633918	25,521897	128,017	-0,124939	22,730000	57,620000
2,633956	25,297385	128,318	-0,125028	22,730000	57,620000
2,633954	25,388171	128,619	-0,124992	22,730000	57,620000
2,633937	24,881488	128,920	-0,125194	22,730000	57,590000
2,633986	25,072874	129,222	-0,125118	22,730000	57,590000
2,633959	24,947737	129,522	-0,125167	22,730000	57,590000
2,634003	25,015213	129,822	-0,125141	22,730000	57,590000
2,633926	25,130535	130,122	-0,125095	22,730000	57,590000
2,633987	24,616491	130,422	-0,125299	22,730000	57,590000
2,632615	23,967494	130,722	-0,125558	22,730000	57,590000
2,630647	22,978663	131,023	-0,125951	22,720000	57,600000
2,628605	22,148094	131,324	-0,126282	22,720000	57,600000
2,626607	20,901627	131,624	-0,126778	22,720000	57,600000
2,624591	19,986407	131,924	-0,127142	22,720000	57,600000
2,622653	18,616029	132,226	-0,127688	22,720000	57,600000
2,620611	17,535186	132,527	-0,128118	22,720000	57,600000
2,618608	16,429805	132,828	-0,128558	22,720000	57,600000
2,616615	15,573473	133,128	-0,128898	22,730000	57,605000
2,614621	14,360131	133,428	-0,129381	22,730000	57,605000
2,612591	13,588450	133,729	-0,129688	22,730000	57,605000
2,610594	12,408233	134,030	-0,130158	22,730000	57,605000
2,608613	11,360514	134,332	-0,130575	22,730000	57,605000
2,606649	10,354507	134,632	-0,130976	22,730000	57,605000
2,604611	9,257714	134,934	-0,131412	22,740000	57,630000
2,602612	7,995299	135,234	-0,131915	22,740000	57,630000
2,600622	7,429727	135,535	-0,132140	22,740000	57,630000
2,598539	6,399183	135,835	-0,132550	22,740000	57,630000
2,596615	4,628857	136,135	-0,133254	22,740000	57,630000
2,594635	4,104998	136,435	-0,133463	22,740000	57,630000
2,592573	2,667144	136,736	-0,134035	22,740000	57,630000
2,590634	1,902825	137,036	-0,134339	22,730000	57,620000
2,588618	0,731195	137,336	-0,134806	22,730000	57,620000
2,586600	-0,149674	137,636	-0,135156	22,730000	57,620000
2,584608	-0,913994	137,936	-0,135460	22,730000	57,620000
2,582665	-1,935949	138,238	-0,135867	22,730000	57,620000
2,580615	-2,675732	138,541	-0,136162	22,730000	57,620000
2,578614	-3,732039	138,842	-0,136582	22,730000	57,620000
2,576612	-4,661982	139,142	-0,136952	22,730000	57,580000
2,574636	-5,725650	139,442	-0,137375	22,730000	57,580000
2,572616	-7,046954	139,742	-0,137901	22,730000	57,580000
2,570599	-7,944998	140,042	-0,138259	22,730000	57,580000
2,568642	-8,801331	140,343	-0,138600	22,730000	57,580000
2,566625	-9,723913	140,643	-0,138967	22,730000	57,580000
2,564628	-10,371683	140,943	-0,139225	22,730000	57,590000
2,562616	-11,310213	141,245	-0,139598	22,730000	57,590000
2,560605	-12,714942	141,545	-0,140157	22,730000	57,590000
2,558613	-13,222853	141,845	-0,140359	22,730000	57,590000
2,556613	-14,269345	142,146	-0,140776	22,730000	57,590000
2,554617	-15,283939	142,446	-0,141180	22,730000	57,590000
2,552636	-16,605243	142,746	-0,141706	22,730000	57,590000
2,550578	-17,336438	143,047	-0,141997	22,730000	57,630000
2,548603	-18,133882	143,348	-0,142314	22,730000	57,630000
2,546672	-18,757116	143,649	-0,142562	22,730000	57,630000
2,544643	-20,219506	143,950	-0,143144	22,730000	57,630000
2,542596	-21,075838	144,251	-0,143485	22,730000	57,630000
2,540662	-21,864695	144,552	-0,143799	22,730000	57,630000
2,538660	-22,522279	144,854	-0,144061	22,730000	57,630000
2,536665	-23,784695	145,154	-0,144563	22,730000	57,620000
2,534626	-24,533066	145,454	-0,144861	22,730000	57,620000
2,532602	-25,330510	145,756	-0,145178	22,730000	57,620000
2,530624	-26,327929	146,056	-0,145575	22,730000	57,620000
2,528621	-27,508146	146,357	-0,146045	22,730000	57,620000
2,526601	-27,948581	146,657	-0,146220	22,730000	57,620000
2,524696	-28,771789	146,958	-0,146548	22,730000	57,590000
2,522618	-29,586409	147,260	-0,146872	22,730000	57,590000
2,520635	-30,691789	147,561	-0,147312	22,730000	57,590000
2,518627	-31,090511	147,861	-0,147471	22,730000	57,590000
2,516593	-32,693988	148,162	-0,148109	22,730000	57,590000
2,514609	-33,250972	148,463	-0,148331	22,730000	57,590000
2,512624	-34,572275	148,763	-0,148856	22,730000	57,590000
2,510619	-34,946461	149,064	-0,149005	22,730000	57,605000
2,508663	-36,093554	149,365	-0,149462	22,730000	57,605000
2,506615	-36,649311	149,665	-0,149683	22,730000	57,605000
2,504679	-38,112928	149,965	-0,150266	22,730000	57,605000
2,502653	-38,595075	150,265	-0,150458	22,730000	57,605000
2,500622	-39,799829	150,568	-0,150937	22,730000	57,605000
2,498629	-40,522436	150,868	-0,151225	22,730000	57,605000
2,496650	-41,570155	151,168	-0,151642	22,730000	57,605000
2,494637	-42,176213	151,470	-0,151883	22,730000	57,605000
2,492661	-43,182220	151,770	-0,152283	22,730000	57,605000
2,490598	-44,005428	152,071	-0,152611	22,730000	57,605000
2,488648	-45,018795	152,372	-0,153014	22,730000	57,605000
2,486609	-46,115588	152,674	-0,153451	22,730000	57,605000
2,484647	-46,780534	152,975	-0,153715	22,730000	57,590000
2,482671	-47,628278	153,277	-0,154053	22,730000	57,590000
2,480652	-48,451486	153,578	-0,154380	22,730000	57,590000
2,478603	-49,223167	153,879	-0,154688	22,730000	57,590000
2,476652	-50,636483	154,181	-0,155250	22,730000	57,590000
2,474616	-51,393442	154,482	-0,155551	22,730000	57,590000
2,472630	-51,974963	154,782	-0,155783	22,730000	57,590000
2,470638	-52,739282	155,082	-0,156087	22,730000	57,605000
2,468670	-53,935449	155,382	-0,156563	22,730000	57,605000
2,466596	-54,716944	155,682	-0,156874	22,730000	57,605000
2,464650	-55,522976	155,983	-0,157195	22,730000	57,605000
2,462600	-56,403845	156,285	-0,157545	22,730000	57,605000
2,460667	-57,335015	156,585	-0,157916	22,730000	57,605000
2,458607	-58,448983	156,886	-0,158359	22,730000	57,605000
2,456626	-58,947079	157,186	-0,158558	22,730000	57,605000
2,454657	-59,737162	157,486	-0,158872	22,730000	57,605000
2,452636	-60,410696	157,787	-0,159140	22,730000	57,605000
2,450645	-61,067054	158,089	-0,159401	22,730000	57,605000
2,448681	-62,146671	158,389	-0,159831	22,730000	57,605000
2,446595	-62,795668	158,691	-0,160089	22,730000	57,605000
2,444637	-63,991834	158,991	-0,160565	22,740000	57,620000
2,442682	-64,656780	159,292	-0,160830	22,740000	57,620000
2,440659	-65,346263	159,595	-0,161104	22,740000	57,620000
2,438637	-66,393982	159,898	-0,161521	22,740000	57,620000
2,436577	-67,640448	160,198	-0,162018	22,740000	57,620000
2,434641	-67,988870	160,498	-0,162156	22,740000	57,620000
2,432629	-68,994877	160,798	-0,162557	22,740000	57,620000
2,430627	-69,344525	161,098	-0,162696	22,740000	57,620000
2,428593	-70,116206	161,399	-0,163003	22,740000	57,620000
2,426573	-70,981126	161,699	-0,163347	22,740000	57,620000
2,424622	-72,011670	162,001	-0,163757	22,740000	57,620000
2,422632	-73,016449	162,301	-0,164157	22,740000	57,620000
2,420630	-73,216424	162,601	-0,164237	22,740000	57,620000
2,418620	-74,031044	162,902	-0,164561	22,730000	57,590000
2,416625	-74,936450	163,203	-0,164921	22,730000	57,590000
2,414646	-75,460309	163,503	-0,165130	22,730000	57,590000
2,412637	-76,292105	163,804	-0,165461	22,730000	57,590000
2,410641	-77,246584	164,104	-0,165841	22,730000	57,590000
2,408619	-77,439198	164,405	-0,165917	22,730000	57,590000
2,406647	-78,419441	164,705	-0,166308	22,730000	57,590000
2,404594	-79,465933	165,007	-0,166724	22,730000	57,605000
2,402614	-80,172591	165,307	-0,167005	22,730000	57,605000
2,400605	-81,136886	165,607	-0,167389	22,730000	57,605000
2,398647	-81,377346	165,908	-0,167485	22,730000	57,605000
2,396607	-82,698649	166,210	-0,168011	22,730000	57,605000
2,394667	-83,023761	166,511	-0,168140	22,730000	57,605000
2,392638	-83,563570	166,812	-0,168355	22,730000	57,605000
2,390643	-84,202752	167,112	-0,168609	22,730000	57,580000
2,388584	-85,267647	167,413	-0,169033	22,730000	57,580000
2,386638	-85,633244	167,714	-0,169179	22,730000	57,580000
2,384625	-86,837999	168,016	-0,169658	22,730000	57,580000
2,382608	-87,710280	168,317	-0,170005	22,730000	57,580000
2,380644	-88,175251	168,618	-0,170190	22,730000	57,580000
2,378684	-88,615686	168,918	-0,170366	22,730000	57,580000
2,376658	-89,613105	169,218	-0,170763	22,730000	57,580000
2,374654	-90,145552	169,519	-0,170975	22,730000	57,580000
2,372663	-90,768785	169,821	-0,171223	22,730000	57,580000
2,370576	-91,266881	170,121	-0,171421	22,730000	57,580000
2,368648	-92,106038	170,422	-0,171755	22,730000	57,580000
2,366639	-92,721910	170,722	-0,172000	22,730000	57,580000
2,364616	-93,411393	171,022	-0,172274	22,740000	57,590000
2,362613	-93,810115	171,322	-0,172433	22,740000	57,590000
2,360579	-94,508185	171,624	-0,172711	22,740000	57,590000
2,358609	-95,007508	171,925	-0,172910	22,740000	57,590000
2,356646	-95,979163	172,225	-0,173296	22,740000	57,590000
2,354684	-96,893157	172,525	-0,173660	22,740000	57,590000
2,352616	-96,910333	172,826	-0,173667	22,740000	57,590000
2,350677	-97,716365	173,126	-0,173988	22,730000	57,590000
2,348651	-98,530985	173,427	-0,174312	22,730000	57,590000
2,346664	-99,777452	173,728	-0,174808	22,730000	57,590000
2,344632	-100,092749	174,029	-0,174934	22,730000	57,590000
2,342599	-100,409273	174,331	-0,175060	22,730000	57,590000
2,340627	-101,215305	174,633	-0,175380	22,730000	57,590000
2,338646	-102,096174	174,933	-0,175731	22,720000	57,600000
2,336659	-102,935331	175,233	-0,176065	22,720000	57,600000
2,334611	-103,001580	175,533	-0,176091	22,720000	57,600000
2,332594	-103,774488	175,833	-0,176399	22,720000	57,600000
2,330646	-104,340060	176,133	-0,176624	22,720000	57,600000
2,328640	-105,469977	176,433	-0,177074	22,720000	57,600000
2,326599	-105,877287	176,734	-0,177236	22,720000	57,600000
2,324629	-106,077261	177,035	-0,177315	22,730000	57,605000
2,322653	-106,916418	177,336	-0,177649	22,730000	57,605000
2,320636	-107,198591	177,637	-0,177762	22,730000	57,605000
2,318608	-108,105223	177,938	-0,178123	22,730000	57,605000
2,316612	-108,603319	178,239	-0,178321	22,730000	57,605000
2,314607	-109,442476	178,540	-0,178655	22,730000	57,605000
2,312606	-110,116010	178,841	-0,178923	22,730000	57,605000
2,310608	-110,888917	179,141	-0,179230	22,730000	57,605000
2,308602	-111,428726	179,441	-0,179445	22,730000	57,605000
2,306614	-112,193045	179,741	-0,179750	22,730000	57,605000
2,304669	-112,617531	180,042	-0,179918	22,730000	57,605000
2,302603	-112,883755	180,343	-0,180024	22,730000	57,605000
2,300612	-113,432151	180,643	-0,180243	22,730000	57,605000
2,298621	-113,879947	180,943	-0,180421	22,730000	57,605000
2,296605	-114,943615	181,245	-0,180844	22,730000	57,605000
2,294690	-115,359512	181,545	-0,181010	22,730000	57,605000
2,292678	-115,425762	181,845	-0,181036	22,730000	57,605000
2,290592	-116,473481	182,145	-0,181453	22,730000	57,605000
2,288674	-117,204676	182,447	-0,181744	22,730000	57,605000
2,286654	-117,486848	182,748	-0,181856	22,730000	57,605000
2,284632	-118,202094	183,049	-0,182141	22,740000	57,605000
2,282594	-118,384893	183,351	-0,182214	22,740000	57,605000
2,280619	-118,975002	183,653	-0,182449	22,740000	57,605000
2,278617	-119,399488	183,953	-0,182618	22,740000	57,605000
2,276632	-119,531986	184,255	-0,182670	22,740000	57,605000
2,274625	-120,496280	184,555	-0,183054	22,740000	57,605000
2,272624	-121,126875	184,856	-0,183305	22,740000	57,605000
2,270627	-121,575897	185,156	-0,183484	22,730000	57,605000
2,268570	-121,991795	185,456	-0,183649	22,730000	57,605000
2,266642	-122,822364	185,757	-0,183980	22,730000	57,605000
2,264627	-122,714402	186,058	-0,183937	22,730000	57,605000
2,262616	-123,603859	186,358	-0,184291	22,730000	57,605000
2,260620	-123,803834	186,659	-0,184371	22,730000	57,605000
2,258599	-124,209917	186,960	-0,184532	22,730000	57,580000
2,256604	-125,241687	187,260	-0,184943	22,730000	57,580000
2,254639	-125,682122	187,561	-0,185118	22,730000	57,580000
2,252701	-126,288179	187,863	-0,185359	22,730000	57,580000
2,250604	-126,453802	188,165	-0,185425	22,730000	57,580000
2,248602	-126,994837	188,466	-0,185641	22,730000	57,580000
2,246639	-127,077036	188,766	-0,185673	22,730000	57,580000
2,244632	-127,393560	189,067	-0,185799	22,740000	57,605000
2,242653	-127,908831	189,368	-0,186004	22,740000	57,605000
2,240579	-128,274429	189,669	-0,186150	22,740000	57,605000
2,238604	-128,474403	189,970	-0,186229	22,740000	57,605000
2,236608	-128,640026	190,270	-0,186295	22,740000	57,605000
2,234657	-128,573777	190,570	-0,186269	22,740000	57,605000
2,232650	-130,102416	190,870	-0,186877	22,730000	57,590000
2,230647	-130,201790	191,173	-0,186917	22,730000	57,590000
2,228658	-130,128180	191,473	-0,186888	22,730000	57,590000
2,226697	-130,194429	191,774	-0,186914	22,730000	57,590000
2,224625	-130,826250	192,076	-0,187166	22,730000	57,590000
2,222604	-131,092474	192,377	-0,187271	22,730000	57,590000
2,220603	-131,648231	192,679	-0,187493	22,730000	57,590000
2,218671	-131,449484	192,981	-0,187414	22,730000	57,590000
2,216619	-131,366059	193,281	-0,187380	22,730000	57,590000
2,214622	-131,964755	193,583	-0,187619	22,730000	57,590000
2,212603	-132,662826	193,883	-0,187896	22,730000	57,590000
2,210639	-132,678775	194,183	-0,187903	22,730000	57,590000
2,208629	-132,720487	194,484	-0,187919	22,730000	57,590000
2,206671	-133,211222	194,784	-0,188115	22,730000	57,590000
2,204621	-133,368257	195,085	-0,188177	22,730000	57,580000
2,202625	-133,484807	195,386	-0,188224	22,730000	57,580000
2,200582	-133,817280	195,688	-0,188356	22,730000	57,580000
2,198665	-134,249126	195,988	-0,188528	22,730000	57,580000
2,196634	-134,299427	196,289	-0,188548	22,730000	57,580000
2,194684	-134,906711	196,590	-0,188790	22,730000	57,580000
2,192666	-134,847823	196,892	-0,188766	22,720000	57,585000
2,190604	-135,620731	197,192	-0,189074	22,720000	57,585000
2,188666	-135,828066	197,493	-0,189156	22,720000	57,585000
2,186580	-136,302852	197,794	-0,189345	22,720000	57,585000
2,184638	-136,402226	198,094	-0,189385	22,720000	57,585000
2,182622	-136,576437	198,395	-0,189454	22,720000	57,585000
2,180628	-136,609561	198,695	-0,189467	22,720000	57,585000
2,178619	-137,341983	198,995	-0,189759	22,730000	57,590000
2,176649	-137,956629	199,297	-0,190003	22,730000	57,590000
2,174624	-137,714942	199,599	-0,189907	22,730000	57,590000
2,172640	-137,998341	199,900	-0,190020	22,730000	57,590000
2,170659	-138,122252	200,202	-0,190069	22,730000	57,590000
2,168613	-138,571274	200,502	-0,190248	22,730000	57,590000
2,166623	-138,787198	200,803	-0,190334	22,730000	57,590000
2,164666	-138,762661	201,104	-0,190324	22,740000	57,645000
2,162640	-139,352770	201,404	-0,190559	22,740000	57,645000
2,160637	-139,634942	201,704	-0,190671	22,740000	57,645000
2,158598	-140,557524	202,005	-0,191039	22,740000	57,645000
2,156632	-140,391901	202,305	-0,190973	22,740000	57,645000
2,154643	-141,264182	202,606	-0,191320	22,740000	57,645000
2,152613	-141,147633	202,907	-0,191273	22,740000	57,645000
2,150615	-141,654317	203,208	-0,191475	22,740000	57,645000
2,148643	-142,003965	203,511	-0,191614	22,740000	57,645000
2,146604	-142,111927	203,813	-0,191657	22,740000	57,645000
2,144644	-142,360975	204,113	-0,191756	22,740000	57,645000
2,142591	-142,759697	204,413	-0,191915	22,740000	57,645000
2,140614	-142,834534	204,713	-0,191945	22,740000	57,645000
2,138640	-143,017333	205,014	-0,192018	22,730000	57,590000
2,136673	-143,100758	205,317	-0,192051	22,730000	57,590000
2,134643	-143,200132	205,619	-0,192090	22,730000	57,590000
2,132653	-143,424643	205,921	-0,192180	22,730000	57,590000
2,130652	-144,173014	206,222	-0,192478	22,730000	57,590000
2,128613	-144,006164	206,523	-0,192411	22,730000	57,590000
2,126641	-143,706815	206,823	-0,192292	22,730000	57,590000
2,124588	-144,138662	207,123	-0,192464	22,720000	57,530000
2,122636	-144,188962	207,424	-0,192484	22,720000	57,530000
2,120603	-143,757116	207,724	-0,192312	22,720000	57,530000
2,118650	-143,723991	208,025	-0,192299	22,720000	57,530000
2,116619	-143,739940	208,326	-0,192305	22,720000	57,530000
2,114654	-143,325269	208,626	-0,192140	22,720000	57,530000
2,112608	-142,153639	208,927	-0,191674	22,730000	57,590000
2,110666	-140,682661	209,227	-0,191088	22,730000	57,590000
2,108650	-138,729536	209,528	-0,190311	22,730000	57,590000
2,106635	-135,853830	209,829	-0,189167	22,730000	57,590000
2,104651	-132,372065	210,129	-0,187781	22,730000	57,590000
2,102645	-125,290760	210,430	-0,184962	22,730000	57,590000
2,100638	-120,428804	210,730	-0,183027	22,730000	57,590000
2,098646	-114,769404	211,032	-0,180775	22,730000	57,590000
2,096636	-106,674731	211,334	-0,177553	22,730000	57,590000
2,094634	-0,723834	211,634	-0,135385	22,730000	57,590000
2,092644	-0,390134	211,936	-0,135252	22,730000	57,590000
2,090625	-0,698070	212,237	-0,135375	22,730000	57,590000
2,088584	-0,482147	212,537	-0,135289	22,730000	57,590000
2,086675	-0,607284	212,839	-0,135338	22,730000	57,590000
2,084635	-0,614645	213,140	-0,135341	22,730000	57,605000
2,082719	-0,640409	213,441	-0,135352	22,730000	57,605000
2,080652	-0,715246	213,742	-0,135381	22,730000	57,605000
2,078661	-0,631821	214,042	-0,135348	22,730000	57,605000
2,076659	-0,790083	214,343	-0,135411	22,730000	57,605000
2,074637	-0,499323	214,644	-0,135295	22,730000	57,605000
2,072640	-0,689483	214,944	-0,135371	22,730000	57,605000
2,070633	-0,631821	215,244	-0,135348	22,730000	57,605000
2,068609	-0,515272	215,544	-0,135302	22,730000	57,605000
2,066627	-0,598697	215,844	-0,135335	22,730000	57,605000
2,064666	-0,506684	216,145	-0,135298	22,730000	57,605000
2,062634	-0,424486	216,445	-0,135266	22,730000	57,605000
2,060650	-0,698070	216,746	-0,135375	22,730000	57,605000
2,058625	-0,640409	217,046	-0,135352	22,730000	57,590000
2,056631	-0,539808	217,347	-0,135312	22,730000	57,590000
2,054563	-0,499323	217,647	-0,135295	22,730000	57,590000
2,052705	-0,781495	217,948	-0,135408	22,730000	57,590000
2,050624	-0,607284	218,248	-0,135338	22,730000	57,590000
2,048622	-0,548396	218,548	-0,135315	22,730000	57,590000
2,046613	-0,548396	218,848	-0,135315	22,730000	57,590000
2,044675	-0,382773	219,148	-0,135249	22,730000	57,590000
2,042645	-0,539808	219,449	-0,135312	22,730000	57,590000
2,040656	-0,664946	219,751	-0,135361	22,730000	57,590000
2,038598	-0,656358	220,053	-0,135358	22,730000	57,590000
2,036639	-0,548396	220,354	-0,135315	22,730000	57,590000
2,034649	-0,590109	220,655	-0,135332	22,730000	57,590000
2,032611	-0,499323	220,955	-0,135295	22,730000	57,605000
2,030665	-0,623233	221,255	-0,135345	22,730000	57,605000
2,028640	-0,307936	221,555	-0,135219	22,730000	57,605000
2,026688	-0,506684	221,856	-0,135298	22,730000	57,605000
2,024677	-0,715246	222,158	-0,135381	22,730000	57,605000
2,022623	-0,572933	222,458	-0,135325	22,730000	57,605000
2,020628	-0,515272	222,758	-0,135302	22,730000	57,605000
2,018664	-0,523860	223,058	-0,135305	22,740000	57,590000
2,016657	-0,731195	223,359	-0,135388	22,740000	57,590000
2,014638	-0,499323	223,660	-0,135295	22,740000	57,590000
2,012640	-0,374185	223,961	-0,135246	22,740000	57,590000
2,010636	-0,572933	224,262	-0,135325	22,740000	57,590000
2,008626	-0,523860	224,562	-0,135305	22,740000	57,590000
2,006597	-0,499323	224,864	-0,135295	22,740000	57,590000
2,004629	-0,241687	225,164	-0,135193	22,730000	57,605000
2,002586	-0,457610	225,464	-0,135279	22,730000	57,605000
2,000643	-0,482147	225,764	-0,135289	22,730000	57,605000
1,998648	-0,466198	226,064	-0,135282	22,730000	57,605000
1,996627	-0,274812	226,365	-0,135206	22,730000	57,605000
1,994639	-0,614645	226,666	-0,135341	22,730000	57,605000
1,992673	-0,739783	226,968	-0,135391	22,730000	57,580000
1,990611	-0,506684	227,271	-0,135298	22,730000	57,580000
1,988641	-0,457610	227,572	-0,135279	22,730000	57,580000
1,986610	-0,482147	227,872	-0,135289	22,730000	57,580000
1,984678	-0,482147	228,172	-0,135289	22,730000	57,580000
1,982668	-0,614645	228,474	-0,135341	22,730000	57,580000
1,980625	-0,572933	228,775	-0,135325	22,730000	57,580000
1,978636	-0,607284	229,075	-0,135338	22,730000	57,565000
1,976689	-0,398722	229,375	-0,135255	22,730000	57,565000
1,974694	-0,648997	229,675	-0,135355	22,730000	57,565000
1,972692	-0,382773	229,976	-0,135249	22,730000	57,565000
1,970639	-0,531221	230,276	-0,135308	22,730000	57,565000
1,968696	-0,548396	230,578	-0,135315	22,730000	57,565000
1,966643	-0,515272	230,878	-0,135302	22,730000	57,550000
1,964661	-0,374185	231,178	-0,135246	22,730000	57,550000
1,962707	-0,398722	231,480	-0,135255	22,730000	57,550000
1,960640	-0,257636	231,781	-0,135199	22,730000	57,550000
1,958643	-0,424486	232,081	-0,135266	22,730000	57,550000
1,956664	-0,415898	232,382	-0,135262	22,730000	57,550000
1,954664	-0,431847	232,683	-0,135269	22,730000	57,550000
1,952641	-0,390134	232,983	-0,135252	22,730000	57,590000
1,950651	-0,590109	233,283	-0,135332	22,730000	57,590000
1,948627	-0,523860	233,583	-0,135305	22,730000	57,590000
1,946679	-0,415898	233,884	-0,135262	22,730000	57,590000
1,944678	-0,506684	234,184	-0,135298	22,730000	57,590000
1,942654	-0,365598	234,484	-0,135242	22,730000	57,590000
1,940652	-0,689483	234,785	-0,135371	22,730000	57,590000
1,938642	-0,457610	235,085	-0,135279	22,740000	57,580000
1,936644	-0,398722	235,385	-0,135255	22,740000	57,580000
1,934652	-0,090786	235,687	-0,135133	22,740000	57,580000
1,932661	-0,415898	235,988	-0,135262	22,740000	57,580000
1,930628	-0,357010	236,288	-0,135239	22,740000	57,580000
1,928639	-0,466198	236,590	-0,135282	22,740000	57,580000
1,926601	-0,315297	236,891	-0,135222	22,740000	57,580000
1,924701	-0,282173	237,192	-0,135209	22,740000	57,580000
1,922652	-0,490735	237,492	-0,135292	22,740000	57,580000
1,920644	-0,739783	237,793	-0,135391	22,740000	57,580000
1,918661	-0,282173	238,094	-0,135209	22,740000	57,580000
1,916669	-0,315297	238,394	-0,135222	22,740000	57,580000
1,914645	-0,323885	238,696	-0,135226	22,740000	57,580000
1,912698	-0,415898	238,998	-0,135262	22,730000	57,580000
1,910638	-0,158262	239,298	-0,135160	22,730000	57,580000
1,908650	-0,515272	239,598	-0,135302	22,730000	57,580000
1,906675	-0,341061	239,899	-0,135232	22,730000	57,580000
1,904680	-0,407310	240,201	-0,135259	22,730000	57,580000
1,902731	-0,499323	240,501	-0,135295	22,730000	57,580000
1,900638	-0,332473	240,801	-0,135229	22,730000	57,580000
1,898678	-0,482147	241,101	-0,135289	22,730000	57,580000
1,896634	-0,224511	241,401	-0,135186	22,730000	57,580000
1,894700	-0,166850	241,703	-0,135163	22,730000	57,580000
1,892643	-0,499323	242,003	-0,135295	22,730000	57,580000
1,890653	-0,640409	242,303	-0,135352	22,730000	57,580000
1,888655	-0,572933	242,603	-0,135325	22,730000	57,580000
1,886677	-0,640409	242,903	-0,135352	22,740000	57,565000
1,884628	-0,224511	243,204	-0,135186	22,740000	57,565000
1,882657	-0,332473	243,504	-0,135229	22,740000	57,565000
1,880682	-0,598697	243,805	-0,135335	22,740000	57,565000
1,878669	-0,365598	244,105	-0,135242	22,740000	57,565000
1,876656	-0,166850	244,405	-0,135163	22,740000	57,565000
1,874662	-0,407310	244,705	-0,135259	22,740000	57,565000
1,872692	-0,132498	245,006	-0,135149	22,740000	57,565000
1,870639	-0,158262	245,307	-0,135160	22,740000	57,565000
1,868630	-0,357010	245,607	-0,135239	22,740000	57,565000
1,866616	-0,341061	245,908	-0,135232	22,740000	57,565000
1,864634	-0,233099	246,210	-0,135189	22,740000	57,565000
1,862681	-0,282173	246,513	-0,135209	22,740000	57,565000
1,860682	-0,307936	246,814	-0,135219	22,740000	57,565000
1,858670	-0,382773	247,115	-0,135249	22,730000	57,525000
1,856643	-0,424486	247,415	-0,135266	22,730000	57,525000
1,854608	-0,166850	247,715	-0,135163	22,730000	57,525000
1,852660	-0,398722	248,016	-0,135255	22,730000	57,525000
1,850629	-0,249048	248,316	-0,135196	22,730000	57,525000
1,848690	-0,365598	248,617	-0,135242	22,730000	57,525000
1,846654	-0,166850	248,918	-0,135163	22,730000	57,565000
1,844692	-0,490735	249,221	-0,135292	22,730000	57,565000
1,842635	-0,174211	249,521	-0,135166	22,730000	57,565000
1,840668	-0,257636	249,823	-0,135199	22,730000	57,565000
1,838684	-0,149674	250,123	-0,135156	22,730000	57,565000
1,836686	-0,233099	250,423	-0,135189	22,730000	57,565000
1,834665	-0,374185	250,724	-0,135246	22,730000	57,565000
1,833989	-0,224511	250,825	-0,135186	22,730000	57,565000