File: Nanoindentation Datenauswertung/data/PDMS/EM-PDMS-50-10-50-0,3um
Quasi static measurement routine
Tip parameters (shape,radius, material...)
12.08.2022

Piezo position[nm]	MEMS displ.[nm]	Time[ms]	Cap [pf]	Temp [°C]	Rh [%]
eoh
2,050077	0,194353	0,176	-0,106559	22,340000	47,360000
2,050968	0,909379	0,372	-0,106268	22,340000	47,360000
2,051793	0,323921	0,523	-0,106506	22,340000	47,360000
2,052769	0,974163	0,677	-0,106241	22,340000	47,360000
2,053709	1,169716	0,827	-0,106162	22,340000	47,360000
2,054576	-0,130768	0,977	-0,106691	22,340000	47,360000
2,055442	0,323921	1,128	-0,106506	22,340000	47,360000
2,056396	0,584258	1,279	-0,106400	22,340000	47,360000
2,057256	1,364068	1,430	-0,106083	22,340000	47,360000
2,058098	0,909379	1,581	-0,106268	22,340000	47,360000
2,059022	0,909379	1,732	-0,106268	22,350000	47,335000
2,059987	0,519474	1,885	-0,106426	22,350000	47,335000
2,060894	0,844595	2,037	-0,106294	22,350000	47,335000
2,061752	0,454689	2,191	-0,106453	22,350000	47,335000
2,062668	0,259137	2,341	-0,106532	22,350000	47,335000
2,063542	0,389905	2,493	-0,106479	22,350000	47,335000
2,064482	0,519474	2,644	-0,106426	22,350000	47,335000
2,065339	0,844595	2,796	-0,106294	22,350000	47,335000
2,066191	1,104931	2,946	-0,106188	22,350000	47,335000
2,067144	0,454689	3,105	-0,106453	22,350000	47,335000
2,068083	0,194353	3,256	-0,106559	22,350000	47,335000
2,068936	0,064784	3,406	-0,106611	22,350000	47,335000
2,069906	0,519474	3,557	-0,106426	22,350000	47,335000
2,070761	1,169716	3,707	-0,106162	22,350000	47,335000
2,071620	1,364068	3,867	-0,106083	22,340000	47,350000
2,072539	0,779810	4,019	-0,106320	22,340000	47,350000
2,073409	0,974163	4,172	-0,106241	22,340000	47,350000
2,074411	0,323921	4,323	-0,106506	22,340000	47,350000
2,075213	0,909379	4,474	-0,106268	22,340000	47,350000
2,076185	0,844595	4,625	-0,106294	22,340000	47,350000
2,077048	0,909379	4,775	-0,106268	22,340000	47,350000
2,077992	0,844595	4,925	-0,106294	22,340000	47,350000
2,078816	0,389905	5,076	-0,106479	22,340000	47,350000
2,079748	0,974163	5,227	-0,106241	22,340000	47,350000
2,080629	0,584258	5,379	-0,106400	22,340000	47,350000
2,081575	0,584258	5,530	-0,106400	22,340000	47,350000
2,082500	0,909379	5,683	-0,106268	22,340000	47,350000
2,083319	0,779810	5,835	-0,106320	22,340000	47,350000
2,084227	0,909379	5,985	-0,106268	22,340000	47,350000
2,085119	1,169716	6,136	-0,106162	22,340000	47,350000
2,086066	0,909379	6,286	-0,106268	22,340000	47,350000
2,086950	0,974163	6,436	-0,106241	22,340000	47,350000
2,087910	0,779810	6,589	-0,106320	22,340000	47,350000
2,088763	0,389905	6,739	-0,106479	22,340000	47,350000
2,089612	0,844595	6,890	-0,106294	22,340000	47,350000
2,090543	1,169716	7,040	-0,106162	22,340000	47,350000
2,091475	1,040147	7,191	-0,106214	22,340000	47,350000
2,092309	0,715026	7,341	-0,106347	22,340000	47,350000
2,093260	0,909379	7,492	-0,106268	22,340000	47,350000
2,094178	0,584258	7,643	-0,106400	22,340000	47,350000
2,095081	0,974163	7,794	-0,106241	22,350000	47,335000
2,096000	0,909379	7,945	-0,106268	22,350000	47,335000
2,096880	1,364068	8,096	-0,106083	22,350000	47,335000
2,097741	0,323921	8,246	-0,106506	22,350000	47,335000
2,098682	0,909379	8,397	-0,106268	22,350000	47,335000
2,099559	0,584258	8,547	-0,106400	22,350000	47,335000
2,100413	0,909379	8,697	-0,106268	22,350000	47,335000
2,101377	1,169716	8,848	-0,106162	22,350000	47,335000
2,102239	0,584258	8,998	-0,106400	22,350000	47,335000
2,103129	0,974163	9,150	-0,106241	22,350000	47,335000
2,104053	0,650242	9,301	-0,106373	22,350000	47,335000
2,104906	0,844595	9,451	-0,106294	22,350000	47,335000
2,105878	0,974163	9,601	-0,106241	22,350000	47,335000
2,106763	0,454689	9,752	-0,106453	22,340000	47,350000
2,107671	0,454689	9,904	-0,106453	22,340000	47,350000
2,108564	0,715026	10,054	-0,106347	22,340000	47,350000
2,109516	0,715026	10,205	-0,106347	22,340000	47,350000
2,110387	1,234500	10,355	-0,106135	22,340000	47,350000
2,111271	0,584258	10,505	-0,106400	22,340000	47,350000
2,112164	0,323921	10,655	-0,106506	22,340000	47,350000
2,113002	0,909379	10,806	-0,106268	22,340000	47,350000
2,113925	1,169716	10,957	-0,106162	22,340000	47,350000
2,114876	0,194353	11,107	-0,106559	22,340000	47,350000
2,115755	1,040147	11,258	-0,106214	22,340000	47,350000
2,116694	1,040147	11,410	-0,106214	22,340000	47,350000
2,117561	0,909379	11,560	-0,106268	22,340000	47,350000
2,118432	0,909379	11,711	-0,106268	22,340000	47,350000
2,119348	0,909379	11,863	-0,106268	22,340000	47,350000
2,120273	1,040147	12,013	-0,106214	22,340000	47,350000
2,121150	0,844595	12,164	-0,106294	22,340000	47,350000
2,122078	0,909379	12,315	-0,106268	22,340000	47,350000
2,122939	0,519474	12,467	-0,106426	22,340000	47,350000
2,123865	0,194353	12,618	-0,106559	22,340000	47,350000
2,124753	0,454689	12,771	-0,106453	22,340000	47,350000
2,125646	0,715026	12,922	-0,106347	22,340000	47,350000
2,126543	0,584258	13,072	-0,106400	22,340000	47,350000
2,127426	0,584258	13,222	-0,106400	22,340000	47,350000
2,128355	0,844595	13,372	-0,106294	22,340000	47,350000
2,129241	0,584258	13,522	-0,106400	22,340000	47,350000
2,130169	0,715026	13,673	-0,106347	22,340000	47,350000
2,131048	0,909379	13,824	-0,106268	22,340000	47,335000
2,131966	0,715026	13,976	-0,106347	22,340000	47,335000
2,132852	0,000000	14,127	-0,106638	22,340000	47,335000
2,133734	0,779810	14,279	-0,106320	22,340000	47,335000
2,134683	0,425896	14,430	-0,106464	22,340000	47,335000
2,135575	0,259137	14,580	-0,106532	22,340000	47,335000
2,136428	1,430052	14,731	-0,106056	22,340000	47,335000
2,137317	0,650242	14,883	-0,106373	22,340000	47,335000
2,138233	0,129568	15,035	-0,106585	22,340000	47,335000
2,139125	1,040147	15,185	-0,106214	22,340000	47,335000
2,140049	0,650242	15,335	-0,106373	22,340000	47,335000
2,140978	0,650242	15,485	-0,106373	22,340000	47,335000
2,141772	1,104931	15,637	-0,106188	22,340000	47,335000
2,142721	0,323921	15,788	-0,106506	22,340000	47,320000
2,143622	0,844595	15,939	-0,106294	22,340000	47,320000
2,144510	0,454689	16,090	-0,106453	22,340000	47,320000
2,145442	0,584258	16,241	-0,106400	22,340000	47,320000
2,146346	0,323921	16,392	-0,106506	22,340000	47,320000
2,147232	0,779810	16,543	-0,106320	22,340000	47,320000
2,148165	0,650242	16,694	-0,106373	22,340000	47,320000
2,149027	0,323921	16,846	-0,106506	22,340000	47,320000
2,149951	0,974163	16,998	-0,106241	22,340000	47,320000
2,150878	0,323921	17,148	-0,106506	22,340000	47,320000
2,151806	0,844595	17,298	-0,106294	22,340000	47,320000
2,152641	0,454689	17,448	-0,106453	22,340000	47,320000
2,153539	1,169716	17,602	-0,106162	22,340000	47,320000
2,154439	0,974163	17,752	-0,106241	22,340000	47,335000
2,155356	0,844595	17,903	-0,106294	22,340000	47,335000
2,156268	1,040147	18,055	-0,106214	22,340000	47,335000
2,157159	0,715026	18,206	-0,106347	22,340000	47,335000
2,158055	0,519474	18,356	-0,106426	22,340000	47,335000
2,158974	1,494836	18,507	-0,106029	22,340000	47,335000
2,159876	0,909379	18,659	-0,106268	22,340000	47,335000
2,160772	1,040147	18,810	-0,106214	22,340000	47,335000
2,161673	0,389905	18,960	-0,106479	22,340000	47,335000
2,162551	0,519474	19,112	-0,106426	22,340000	47,335000
2,163420	0,974163	19,264	-0,106241	22,340000	47,335000
2,164301	0,584258	19,414	-0,106400	22,340000	47,335000
2,165223	0,519474	19,566	-0,106426	22,340000	47,335000
2,166195	0,194353	19,716	-0,106559	22,340000	47,335000
2,167058	0,844595	19,867	-0,106294	22,340000	47,335000
2,167977	0,323921	20,023	-0,106506	22,340000	47,335000
2,168863	1,040147	20,174	-0,106214	22,340000	47,335000
2,169743	0,323921	20,326	-0,106506	22,340000	47,335000
2,170624	0,974163	20,477	-0,106241	22,340000	47,335000
2,171576	0,389905	20,628	-0,106479	22,340000	47,335000
2,172440	0,584258	20,778	-0,106400	22,340000	47,335000
2,173368	0,779810	20,928	-0,106320	22,340000	47,335000
2,174237	1,169716	21,080	-0,106162	22,340000	47,335000
2,175111	0,129568	21,230	-0,106585	22,340000	47,335000
2,176070	0,584258	21,381	-0,106400	22,340000	47,335000
2,176982	0,129568	21,533	-0,106585	22,340000	47,335000
2,177828	0,909379	21,683	-0,106268	22,340000	47,335000
2,178744	0,715026	21,834	-0,106347	22,340000	47,350000
2,179652	0,779810	21,985	-0,106320	22,340000	47,350000
2,180572	0,909379	22,135	-0,106268	22,340000	47,350000
2,181444	0,844595	22,286	-0,106294	22,340000	47,350000
2,182357	1,169716	22,437	-0,106162	22,340000	47,350000
2,183282	0,129568	22,593	-0,106585	22,340000	47,350000
2,184102	0,584258	22,743	-0,106400	22,340000	47,350000
2,185027	0,909379	22,893	-0,106268	22,340000	47,350000
2,185988	1,169716	23,044	-0,106162	22,340000	47,350000
2,186859	0,974163	23,196	-0,106241	22,340000	47,350000
2,187723	1,624405	23,347	-0,105977	22,340000	47,350000
2,188628	0,844595	23,498	-0,106294	22,340000	47,350000
2,189590	0,000000	23,648	-0,106638	22,340000	47,350000
2,190422	0,323921	23,799	-0,106506	22,340000	47,350000
2,191309	0,323921	23,950	-0,106506	22,340000	47,350000
2,192228	0,129568	24,100	-0,106585	22,340000	47,350000
2,193155	0,715026	24,250	-0,106347	22,340000	47,350000
2,194049	0,584258	24,407	-0,106400	22,340000	47,350000
2,195005	0,909379	24,558	-0,106268	22,340000	47,350000
2,195866	0,519474	24,712	-0,106426	22,340000	47,350000
2,196781	0,909379	24,862	-0,106268	22,340000	47,350000
2,197658	0,974163	25,013	-0,106241	22,340000	47,350000
2,198535	0,194353	25,169	-0,106559	22,340000	47,350000
2,199445	0,584258	25,319	-0,106400	22,340000	47,350000
2,200309	0,584258	25,469	-0,106400	22,340000	47,350000
2,201251	1,040147	25,623	-0,106214	22,340000	47,350000
2,202106	0,519474	25,773	-0,106426	22,340000	47,335000
2,203066	0,584258	25,923	-0,106400	22,340000	47,335000
2,203941	0,650242	26,073	-0,106373	22,340000	47,335000
2,204860	0,454689	26,223	-0,106453	22,340000	47,335000
2,205754	0,650242	26,375	-0,106373	22,340000	47,335000
2,206652	0,323921	26,526	-0,106506	22,340000	47,335000
2,207521	0,454689	26,677	-0,106453	22,340000	47,335000
2,208433	0,389905	26,828	-0,106479	22,340000	47,335000
2,209320	0,519474	26,978	-0,106426	22,340000	47,335000
2,210266	0,909379	27,129	-0,106268	22,340000	47,335000
2,211114	0,974163	27,279	-0,106241	22,340000	47,335000
2,211996	0,650242	27,429	-0,106373	22,340000	47,335000
2,212928	0,974163	27,580	-0,106241	22,340000	47,335000
2,213816	0,715026	27,732	-0,106347	22,350000	47,350000
2,214721	0,389905	27,883	-0,106479	22,350000	47,350000
2,215626	0,519474	28,034	-0,106426	22,350000	47,350000
2,216566	0,909379	28,185	-0,106268	22,350000	47,350000
2,217476	0,194353	28,337	-0,106559	22,350000	47,350000
2,218321	0,844595	28,489	-0,106294	22,350000	47,350000
2,219212	0,584258	28,640	-0,106400	22,350000	47,350000
2,220149	1,104931	28,791	-0,106188	22,350000	47,350000
2,221039	0,064784	28,941	-0,106611	22,350000	47,350000
2,221958	0,974163	29,091	-0,106241	22,350000	47,350000
2,222836	1,169716	29,243	-0,106162	22,350000	47,350000
2,223785	-4,291356	29,394	-0,108384	22,350000	47,350000
2,224665	-2,990873	29,544	-0,107855	22,350000	47,350000
2,225545	-2,926088	29,695	-0,107829	22,350000	47,350000
2,226430	-2,471399	29,845	-0,107644	22,340000	47,335000
2,227377	-2,796520	30,005	-0,107776	22,340000	47,335000
2,228252	-2,340631	30,157	-0,107590	22,340000	47,335000
2,229147	-2,081494	30,309	-0,107485	22,340000	47,335000
2,230056	-1,691589	30,461	-0,107326	22,340000	47,335000
2,230956	-2,015510	30,611	-0,107458	22,340000	47,335000
2,231829	-1,821157	30,762	-0,107379	22,340000	47,335000
2,232760	-1,106131	30,913	-0,107088	22,340000	47,335000
2,233624	-1,235699	31,065	-0,107141	22,340000	47,335000
2,234572	-0,520673	31,216	-0,106850	22,340000	47,335000
2,235472	-0,130768	31,366	-0,106691	22,340000	47,335000
2,236360	-0,650242	31,518	-0,106902	22,340000	47,335000
2,237243	0,000000	31,668	-0,106638	22,340000	47,335000
2,238190	0,909379	31,819	-0,106268	22,340000	47,310000
2,239044	1,169716	31,974	-0,106162	22,340000	47,310000
2,239910	1,430052	32,125	-0,106056	22,340000	47,310000
2,240860	2,209863	32,276	-0,105738	22,340000	47,310000
2,241766	1,819957	32,440	-0,105897	22,340000	47,310000
2,242664	1,949526	32,591	-0,105844	22,340000	47,310000
2,243545	2,145078	32,742	-0,105765	22,340000	47,310000
2,244441	2,534983	32,893	-0,105606	22,340000	47,310000
2,245357	2,664552	33,046	-0,105553	22,340000	47,310000
2,246256	2,470199	33,197	-0,105632	22,340000	47,310000
2,247141	2,795320	33,347	-0,105500	22,340000	47,310000
2,248007	2,860104	33,497	-0,105474	22,340000	47,310000
2,249012	3,314794	33,648	-0,105289	22,340000	47,310000
2,249843	3,639915	33,800	-0,105156	22,340000	47,320000
2,250753	3,250010	33,951	-0,105315	22,340000	47,320000
2,251664	3,379578	34,101	-0,105262	22,340000	47,320000
2,252572	3,835467	34,253	-0,105077	22,340000	47,320000
2,253413	5,069967	34,404	-0,104574	22,340000	47,320000
2,254354	4,875614	34,561	-0,104653	22,340000	47,320000
2,255222	5,069967	34,719	-0,104574	22,340000	47,320000
2,256150	5,005183	34,869	-0,104601	22,340000	47,320000
2,257057	4,485709	35,021	-0,104812	22,340000	47,320000
2,257917	5,590640	35,174	-0,104362	22,340000	47,320000
2,258854	5,850977	35,324	-0,104256	22,340000	47,320000
2,259724	5,786193	35,484	-0,104283	22,340000	47,320000
2,260635	6,501219	35,644	-0,103992	22,340000	47,320000
2,261558	6,240882	35,796	-0,104098	22,340000	47,320000
2,262377	7,085477	35,948	-0,103754	22,340000	47,320000
2,263375	6,501219	36,100	-0,103992	22,340000	47,320000
2,264257	6,630787	36,251	-0,103939	22,340000	47,320000
2,265177	8,191608	36,401	-0,103304	22,340000	47,320000
2,266093	8,321176	36,552	-0,103251	22,340000	47,320000
2,266937	8,256392	36,702	-0,103277	22,340000	47,320000
2,267792	8,646297	36,866	-0,103119	22,340000	47,320000
2,268764	8,450745	37,017	-0,103198	22,340000	47,320000
2,269630	8,777065	37,175	-0,103065	22,340000	47,320000
2,270555	9,361323	37,326	-0,102828	22,340000	47,320000
2,271406	9,231755	37,477	-0,102880	22,340000	47,320000
2,272349	9,817212	37,628	-0,102642	22,340000	47,320000
2,273309	9,556876	37,778	-0,102748	22,340000	47,335000
2,274184	10,922144	37,946	-0,102192	22,340000	47,335000
2,275072	10,141134	38,096	-0,102510	22,340000	47,335000
2,275969	11,051712	38,248	-0,102140	22,340000	47,335000
2,276846	11,897507	38,399	-0,101795	22,340000	47,335000
2,277719	11,572386	38,549	-0,101928	22,340000	47,335000
2,278711	11,182480	38,699	-0,102086	22,340000	47,335000
2,279572	12,287412	38,851	-0,101637	22,340000	47,335000
2,280420	12,352196	39,018	-0,101610	22,340000	47,335000
2,281333	12,352196	39,177	-0,101610	22,340000	47,335000
2,282210	12,937654	39,329	-0,101372	22,340000	47,335000
2,283165	13,196791	39,480	-0,101267	22,340000	47,335000
2,284048	12,872869	39,631	-0,101398	22,340000	47,335000
2,284959	13,523111	39,783	-0,101134	22,340000	47,335000
2,285869	14,953163	39,944	-0,100552	22,340000	47,335000
2,286722	15,082732	40,095	-0,100499	22,340000	47,335000
2,287645	15,472637	40,246	-0,100340	22,340000	47,335000
2,288527	15,602206	40,397	-0,100288	22,340000	47,335000
2,289440	15,278284	40,547	-0,100419	22,340000	47,335000
2,290340	15,928526	40,698	-0,100155	22,340000	47,335000
2,291208	16,122879	40,855	-0,100076	22,340000	47,335000
2,292182	16,122879	41,005	-0,100076	22,340000	47,335000
2,293037	15,928526	41,165	-0,100155	22,340000	47,335000
2,293979	17,748484	41,315	-0,099414	22,340000	47,335000
2,294877	16,903889	41,467	-0,099758	22,340000	47,335000
2,295709	17,944036	41,619	-0,099334	22,340000	47,335000
2,296617	18,267957	41,770	-0,099203	22,340000	47,335000
2,297507	18,463510	41,921	-0,099123	22,340000	47,335000
2,298427	18,528294	42,080	-0,099097	22,340000	47,335000
2,299326	18,984183	42,232	-0,098911	22,340000	47,335000
2,300248	19,243320	42,395	-0,098806	22,340000	47,335000
2,301159	20,024330	42,545	-0,098488	22,340000	47,335000
2,302043	20,283467	42,697	-0,098382	22,340000	47,335000
2,303014	19,959546	42,850	-0,098514	22,340000	47,335000
2,303850	19,763993	43,002	-0,098594	22,340000	47,335000
2,304790	20,999693	43,153	-0,098091	22,340000	47,335000
2,305684	20,674572	43,303	-0,098223	22,340000	47,335000
2,306537	21,064477	43,454	-0,098064	22,340000	47,335000
2,307449	21,779503	43,617	-0,097773	22,340000	47,335000
2,308411	21,844287	43,768	-0,097747	22,350000	47,350000
2,309234	22,039840	43,919	-0,097667	22,350000	47,350000
2,310135	22,234193	44,084	-0,097588	22,350000	47,350000
2,311069	23,534676	44,234	-0,097059	22,350000	47,350000
2,311933	23,534676	44,384	-0,097059	22,350000	47,350000
2,312850	24,314487	44,534	-0,096742	22,350000	47,350000
2,313750	24,120134	44,686	-0,096821	22,350000	47,350000
2,314681	23,730229	44,837	-0,096979	22,350000	47,350000
2,315521	24,314487	44,987	-0,096742	22,350000	47,350000
2,316471	24,445255	45,146	-0,096688	22,350000	47,350000
2,317329	25,550186	45,297	-0,096239	22,350000	47,350000
2,318275	25,420618	45,448	-0,096292	22,350000	47,350000
2,319218	25,940091	45,623	-0,096080	22,350000	47,350000
2,320073	25,680954	45,774	-0,096186	22,350000	47,350000
2,320960	26,655117	45,929	-0,095789	22,350000	47,350000
2,321838	26,135644	46,080	-0,096000	22,350000	47,350000
2,322758	27,240575	46,231	-0,095551	22,350000	47,350000
2,323632	26,265212	46,391	-0,095948	22,350000	47,350000
2,324535	27,436128	46,542	-0,095471	22,350000	47,350000
2,325444	27,630480	46,694	-0,095392	22,350000	47,350000
2,326351	28,086369	46,844	-0,095207	22,350000	47,350000
2,327251	27,826033	46,995	-0,095313	22,350000	47,350000
2,328068	28,020385	47,147	-0,095233	22,350000	47,350000
2,329052	28,151154	47,297	-0,095180	22,350000	47,350000
2,329938	29,256085	47,449	-0,094730	22,350000	47,350000
2,330855	29,386853	47,602	-0,094677	22,350000	47,350000
2,331759	29,906327	47,752	-0,094466	22,350000	47,335000
2,332667	29,450438	47,928	-0,094651	22,350000	47,335000
2,333580	29,320869	48,078	-0,094704	22,350000	47,335000
2,334463	30,946474	48,231	-0,094042	22,350000	47,335000
2,335337	31,921837	48,385	-0,093646	22,350000	47,335000
2,336206	31,271595	48,535	-0,093910	22,350000	47,335000
2,337156	31,596716	48,685	-0,093778	22,350000	47,335000
2,338054	31,792268	48,835	-0,093698	22,350000	47,335000
2,338961	32,116189	48,986	-0,093566	22,350000	47,335000
2,339776	31,857052	49,143	-0,093672	22,350000	47,335000
2,340762	32,572078	49,296	-0,093381	22,350000	47,335000
2,341591	32,182173	49,447	-0,093540	22,350000	47,335000
2,342549	33,026768	49,598	-0,093196	22,350000	47,335000
2,343472	33,481457	49,748	-0,093011	22,350000	47,335000
2,344384	33,091552	49,899	-0,093169	22,350000	47,335000
2,345250	33,287105	50,050	-0,093090	22,350000	47,335000
2,346123	33,807778	50,202	-0,092878	22,350000	47,335000
2,347026	33,741794	50,355	-0,092905	22,350000	47,335000
2,347934	34,458020	50,505	-0,092613	22,350000	47,335000
2,348892	34,717157	50,662	-0,092508	22,350000	47,335000
2,349721	35,627735	50,825	-0,092137	22,350000	47,335000
2,350033	35,107062	50,976	-0,092349	22,350000	47,335000
2,350091	34,977493	51,127	-0,092402	22,350000	47,335000
2,350048	35,107062	51,277	-0,092349	22,350000	47,335000
2,350048	34,977493	51,428	-0,092402	22,350000	47,335000
2,350035	34,521604	51,583	-0,092587	22,350000	47,335000
2,350015	34,392036	51,734	-0,092640	22,340000	47,320000
2,350037	33,612226	51,887	-0,092958	22,340000	47,320000
2,350025	33,807778	52,045	-0,092878	22,340000	47,320000
2,350075	33,937346	52,196	-0,092825	22,340000	47,320000
2,350067	34,197683	52,347	-0,092719	22,340000	47,320000
2,350009	34,066915	52,499	-0,092772	22,340000	47,320000
2,350081	34,066915	52,650	-0,092772	22,340000	47,320000
2,350026	34,131699	52,801	-0,092746	22,340000	47,320000
2,350027	33,351889	52,951	-0,093063	22,340000	47,320000
2,350040	33,481457	53,101	-0,093011	22,340000	47,320000
2,350021	34,262467	53,255	-0,092693	22,340000	47,320000
2,350091	33,481457	53,405	-0,093011	22,340000	47,320000
2,350039	33,677010	53,568	-0,092931	22,340000	47,320000
2,350013	33,156336	53,719	-0,093143	22,340000	47,320000
2,350087	33,026768	53,871	-0,093196	22,340000	47,320000
2,350022	33,287105	54,034	-0,093090	22,340000	47,320000
2,350054	32,506095	54,186	-0,093408	22,340000	47,320000
2,350058	33,222320	54,343	-0,093116	22,340000	47,320000
2,350043	33,156336	54,495	-0,093143	22,340000	47,320000
2,350075	32,442510	54,645	-0,093434	22,340000	47,320000
2,349985	33,222320	54,800	-0,093116	22,340000	47,320000
2,350033	33,026768	54,951	-0,093196	22,340000	47,320000
2,350100	32,897199	55,103	-0,093249	22,340000	47,320000
2,350046	33,612226	55,257	-0,092958	22,340000	47,320000
2,350041	33,287105	55,408	-0,093090	22,340000	47,320000
2,350024	33,612226	55,559	-0,092958	22,340000	47,320000
2,350063	32,506095	55,709	-0,093408	22,340000	47,320000
2,350050	32,442510	55,859	-0,093434	22,350000	47,350000
2,350040	32,961984	56,010	-0,093222	22,350000	47,350000
2,350021	32,572078	56,162	-0,093381	22,350000	47,350000
2,350063	32,246958	56,314	-0,093513	22,350000	47,350000
2,349975	33,416673	56,464	-0,093037	22,350000	47,350000
2,350056	32,442510	56,615	-0,093434	22,350000	47,350000
2,350063	32,182173	56,767	-0,093540	22,350000	47,350000
2,350038	31,792268	56,917	-0,093698	22,350000	47,350000
2,350027	32,182173	57,067	-0,093540	22,350000	47,350000
2,350050	31,792268	57,218	-0,093698	22,350000	47,350000
2,350029	32,572078	57,369	-0,093381	22,350000	47,350000
2,350036	32,182173	57,521	-0,093540	22,350000	47,350000
2,350061	32,442510	57,675	-0,093434	22,350000	47,350000
2,350085	32,246958	57,829	-0,093513	22,340000	47,335000
2,350087	31,596716	57,991	-0,093778	22,340000	47,335000
2,350079	32,051405	58,143	-0,093593	22,340000	47,335000
2,350057	31,792268	58,295	-0,093698	22,340000	47,335000
2,350103	31,921837	58,461	-0,093646	22,340000	47,335000
2,349979	31,792268	58,613	-0,093698	22,340000	47,335000
2,350054	31,921837	58,774	-0,093646	22,340000	47,335000
2,350081	32,766431	58,925	-0,093302	22,340000	47,335000
2,350063	32,376526	59,077	-0,093460	22,340000	47,335000
2,350039	32,636863	59,228	-0,093354	22,340000	47,335000
2,350036	32,506095	59,379	-0,093408	22,340000	47,335000
2,350009	31,661500	59,530	-0,093751	22,340000	47,335000
2,350069	31,465947	59,681	-0,093831	22,340000	47,335000
2,350045	31,857052	59,833	-0,093672	22,340000	47,335000
2,350007	32,376526	59,986	-0,093460	22,340000	47,335000
2,350077	32,116189	60,136	-0,093566	22,340000	47,335000
2,350039	32,051405	60,287	-0,093593	22,340000	47,335000
2,350051	31,792268	60,438	-0,093698	22,340000	47,335000
2,350119	31,726284	60,591	-0,093725	22,340000	47,335000
2,350035	32,246958	60,760	-0,093513	22,340000	47,335000
2,350028	31,596716	60,910	-0,093778	22,340000	47,335000
2,350056	31,921837	61,061	-0,093646	22,340000	47,335000
2,349163	31,401163	61,211	-0,093857	22,340000	47,335000
2,348267	30,816905	61,362	-0,094095	22,340000	47,335000
2,347369	30,556569	61,513	-0,094201	22,340000	47,335000
2,346446	29,710774	61,663	-0,094545	22,340000	47,335000
2,345547	29,320869	61,813	-0,094704	22,350000	47,360000
2,344683	29,516422	61,965	-0,094625	22,350000	47,360000
2,343747	28,086369	62,118	-0,095207	22,350000	47,360000
2,342850	27,436128	62,268	-0,095471	22,350000	47,360000
2,341995	27,500912	62,418	-0,095445	22,350000	47,360000
2,341056	27,500912	62,568	-0,095445	22,350000	47,360000
2,340124	26,525549	62,719	-0,095842	22,350000	47,360000
2,339219	26,590333	62,870	-0,095815	22,350000	47,360000
2,338349	25,095497	63,020	-0,096424	22,350000	47,360000
2,337426	25,745739	63,176	-0,096159	22,350000	47,360000
2,336573	23,989366	63,331	-0,096874	22,350000	47,360000
2,335640	24,835160	63,481	-0,096530	22,350000	47,360000
2,334770	24,574823	63,637	-0,096636	22,350000	47,360000
2,333824	23,599461	63,788	-0,097033	22,340000	47,320000
2,332909	23,599461	63,938	-0,097033	22,340000	47,320000
2,332007	22,884435	64,098	-0,097324	22,340000	47,320000
2,331128	22,819650	64,248	-0,097350	22,340000	47,320000
2,330229	21,909072	64,418	-0,097721	22,340000	47,320000
2,329372	21,389598	64,569	-0,097932	22,340000	47,320000
2,328480	21,454382	64,720	-0,097906	22,340000	47,320000
2,327543	20,543804	64,871	-0,098276	22,340000	47,320000
2,326608	21,454382	65,022	-0,097906	22,340000	47,320000
2,325732	20,024330	65,174	-0,098488	22,340000	47,320000
2,324811	19,309304	65,324	-0,098779	22,340000	47,320000
2,323983	18,918199	65,474	-0,098938	22,340000	47,320000
2,323087	18,788631	65,625	-0,098991	22,340000	47,320000
2,322176	18,918199	65,775	-0,098938	22,350000	47,335000
2,321265	18,138389	65,926	-0,099255	22,350000	47,335000
2,320391	17,878052	66,094	-0,099361	22,350000	47,335000
2,319460	16,773121	66,244	-0,099811	22,350000	47,335000
2,318578	16,253647	66,419	-0,100022	22,350000	47,335000
2,317665	17,227810	66,571	-0,099626	22,350000	47,335000
2,316762	16,773121	66,723	-0,099811	22,350000	47,335000
2,315814	16,187663	66,875	-0,100049	22,350000	47,335000
2,314921	16,318431	67,026	-0,099996	22,350000	47,335000
2,314029	15,343069	67,182	-0,100393	22,350000	47,335000
2,313102	15,343069	67,334	-0,100393	22,350000	47,335000
2,312226	15,147516	67,484	-0,100473	22,350000	47,335000
2,311315	15,472637	67,646	-0,100340	22,350000	47,335000
2,310445	14,563258	67,798	-0,100710	22,350000	47,335000
2,309561	14,432490	67,956	-0,100764	22,350000	47,335000
2,308626	14,172153	68,106	-0,100870	22,350000	47,335000
2,307790	13,652680	68,256	-0,101081	22,350000	47,335000
2,306865	12,872869	68,418	-0,101398	22,350000	47,335000
2,305988	13,717464	68,568	-0,101055	22,350000	47,335000
2,305049	12,482964	68,719	-0,101557	22,350000	47,335000
2,304140	13,262774	68,870	-0,101240	22,350000	47,335000
2,303240	11,832722	69,020	-0,101822	22,350000	47,335000
2,302295	10,726591	69,188	-0,102272	22,350000	47,335000
2,301420	11,376833	69,339	-0,102007	22,350000	47,335000
2,300545	11,897507	69,490	-0,101795	22,350000	47,335000
2,299622	10,336686	69,647	-0,102431	22,350000	47,335000
2,298772	10,532239	69,798	-0,102351	22,350000	47,335000
2,297869	10,726591	69,960	-0,102272	22,350000	47,335000
2,296991	10,726591	70,112	-0,102272	22,350000	47,335000
2,296047	10,336686	70,263	-0,102431	22,350000	47,335000
2,295109	9,361323	70,414	-0,102828	22,350000	47,335000
2,294259	9,881997	70,565	-0,102616	22,350000	47,335000
2,293369	9,361323	70,727	-0,102828	22,350000	47,335000
2,292444	8,516729	70,878	-0,103171	22,350000	47,335000
2,291542	8,906634	71,029	-0,103013	22,350000	47,335000
2,290650	8,646297	71,183	-0,103119	22,350000	47,335000
2,289751	7,931271	71,333	-0,103410	22,350000	47,335000
2,288772	7,996055	71,484	-0,103383	22,350000	47,335000
2,287956	7,411797	71,635	-0,103621	22,350000	47,335000
2,287047	6,955908	71,786	-0,103807	22,350000	47,350000
2,286150	6,695572	71,937	-0,103913	22,350000	47,350000
2,285193	6,305666	72,091	-0,104071	22,350000	47,350000
2,284378	5,721409	72,241	-0,104309	22,350000	47,350000
2,283471	5,915761	72,405	-0,104230	22,350000	47,350000
2,282508	5,461072	72,558	-0,104415	22,350000	47,350000
2,281627	5,786193	72,713	-0,104283	22,350000	47,350000
2,280758	4,550493	72,866	-0,104786	22,350000	47,350000
2,279844	5,069967	73,016	-0,104574	22,350000	47,350000
2,278935	4,615278	73,168	-0,104759	22,350000	47,350000
2,277983	4,356141	73,319	-0,104865	22,350000	47,350000
2,277152	3,770683	73,477	-0,105103	22,350000	47,350000
2,276277	3,185225	73,627	-0,105341	22,350000	47,350000
2,275348	3,185225	73,780	-0,105341	22,340000	47,360000
2,274436	2,599768	73,932	-0,105580	22,340000	47,360000
2,273525	2,405415	74,082	-0,105659	22,340000	47,360000
2,272611	1,884742	74,234	-0,105871	22,340000	47,360000
2,271731	3,250010	74,397	-0,105315	22,340000	47,360000
2,270818	1,690389	74,547	-0,105950	22,340000	47,360000
2,269947	1,819957	74,697	-0,105897	22,340000	47,360000
2,269078	2,534983	74,858	-0,105606	22,340000	47,360000
2,268172	0,974163	75,009	-0,106241	22,340000	47,360000
2,267291	0,909379	75,172	-0,106268	22,340000	47,360000
2,266334	0,779810	75,322	-0,106320	22,340000	47,360000
2,265415	0,000000	75,473	-0,106638	22,340000	47,360000
2,264554	0,259137	75,624	-0,106532	22,340000	47,360000
2,263633	-0,585458	75,775	-0,106876	22,340000	47,360000
2,262780	-0,716226	75,929	-0,106929	22,340000	47,360000
2,261975	-1,235699	76,083	-0,107141	22,340000	47,360000
2,260938	-1,560820	76,234	-0,107273	22,340000	47,360000
2,260053	-0,716226	76,390	-0,106929	22,340000	47,360000
2,259171	-1,755173	76,541	-0,107352	22,340000	47,360000
2,258286	-2,146278	76,691	-0,107511	22,340000	47,360000
2,257349	-2,600967	76,853	-0,107696	22,340000	47,360000
2,256469	-2,665752	77,003	-0,107723	22,340000	47,360000
2,255587	-2,796520	77,172	-0,107776	22,340000	47,360000
2,254642	-2,990873	77,322	-0,107855	22,340000	47,360000
2,253781	-2,990873	77,474	-0,107855	22,340000	47,360000
2,252881	-2,926088	77,630	-0,107829	22,340000	47,360000
2,251952	-4,031020	77,785	-0,108278	22,350000	47,350000
2,251054	-4,616477	77,935	-0,108517	22,350000	47,350000
2,250124	-4,747245	78,086	-0,108570	22,350000	47,350000
2,249246	-5,006382	78,236	-0,108675	22,350000	47,350000
2,248422	-5,331503	78,407	-0,108808	22,350000	47,350000
2,247409	-5,266719	78,557	-0,108781	22,350000	47,350000
2,246506	-4,616477	78,707	-0,108517	22,350000	47,350000
2,245661	-5,462272	78,865	-0,108861	22,350000	47,350000
2,244719	-5,981745	79,016	-0,109072	22,350000	47,350000
2,243865	-5,916961	79,183	-0,109046	22,350000	47,350000
2,242959	-6,242082	79,338	-0,109178	22,350000	47,350000
2,242043	-5,852177	79,489	-0,109020	22,350000	47,350000
2,241151	-6,957108	79,646	-0,109469	22,350000	47,350000
2,240291	-6,371650	79,796	-0,109231	22,350000	47,335000
2,239368	-7,152660	79,948	-0,109549	22,350000	47,335000
2,238476	-6,892324	80,105	-0,109443	22,350000	47,335000
2,237535	-7,997255	80,256	-0,109893	22,350000	47,335000
2,236631	-7,021892	80,418	-0,109496	22,350000	47,335000
2,235793	-7,217445	80,570	-0,109575	22,350000	47,335000
2,234865	-7,542566	80,722	-0,109708	22,350000	47,335000
2,233943	-7,607350	80,875	-0,109734	22,350000	47,335000
2,233060	-7,736918	81,027	-0,109787	22,350000	47,335000
2,232143	-7,997255	81,181	-0,109893	22,350000	47,335000
2,231276	-7,932471	81,331	-0,109866	22,350000	47,335000
2,230287	-8,126824	81,483	-0,109945	22,350000	47,335000
2,229432	-7,997255	81,635	-0,109893	22,350000	47,335000
2,228576	-9,362523	81,787	-0,110448	22,350000	47,335000
2,227674	-8,257592	81,938	-0,109999	22,350000	47,335000
2,226779	-8,972618	82,088	-0,110290	22,350000	47,335000
2,225854	-9,297739	82,239	-0,110422	22,350000	47,335000
2,224944	-8,843049	82,390	-0,110237	22,350000	47,335000
2,224078	-8,517928	82,542	-0,110104	22,350000	47,335000
2,223208	-9,752428	82,693	-0,110607	22,350000	47,335000
2,222240	-9,037402	82,853	-0,110316	22,350000	47,335000
2,221276	-9,947981	83,005	-0,110687	22,350000	47,335000
2,220470	-9,037402	83,155	-0,110316	22,350000	47,335000
2,219566	-10,077549	83,312	-0,110739	22,350000	47,335000
2,218580	-9,752428	83,464	-0,110607	22,350000	47,335000
2,217723	-9,883196	83,619	-0,110660	22,350000	47,335000
2,216825	-10,208317	83,769	-0,110792	22,350000	47,350000
2,215912	-9,752428	83,919	-0,110607	22,350000	47,350000
2,215063	-9,947981	84,078	-0,110687	22,350000	47,350000
2,214152	-10,727791	84,229	-0,111004	22,350000	47,350000
2,213237	-10,663007	84,381	-0,110978	22,350000	47,350000
2,212365	-10,858559	84,531	-0,111057	22,350000	47,350000
2,211426	-11,182480	84,681	-0,111189	22,350000	47,350000
2,210551	-11,182480	84,844	-0,111189	22,350000	47,350000
2,209692	-11,313249	84,996	-0,111242	22,350000	47,350000
2,208782	-11,378033	85,146	-0,111269	22,350000	47,350000
2,207858	-11,573585	85,307	-0,111348	22,350000	47,350000
2,207017	-10,988128	85,458	-0,111110	22,350000	47,350000
2,206090	-11,442817	85,629	-0,111295	22,350000	47,350000
2,205191	-11,898706	85,782	-0,111480	22,350000	47,350000
2,204281	-12,157843	85,933	-0,111586	22,350000	47,350000
2,203393	-11,573585	86,084	-0,111348	22,350000	47,350000
2,202447	-11,898706	86,235	-0,111480	22,350000	47,350000
2,201539	-12,353396	86,386	-0,111666	22,350000	47,350000
2,200656	-12,028275	86,537	-0,111533	22,350000	47,350000
2,199805	-12,093059	86,688	-0,111560	22,350000	47,350000
2,198847	-11,703154	86,838	-0,111401	22,350000	47,350000
2,197980	-12,288611	86,988	-0,111639	22,350000	47,350000
2,197086	-12,353396	87,138	-0,111666	22,350000	47,350000
2,196194	-13,197990	87,289	-0,112009	22,350000	47,350000
2,195266	-12,288611	87,442	-0,111639	22,350000	47,350000
2,194336	-13,133206	87,608	-0,111983	22,350000	47,350000
2,193463	-12,874069	87,758	-0,111877	22,340000	47,360000
2,192611	-12,418180	87,908	-0,111692	22,340000	47,360000
2,191634	-12,613732	88,062	-0,111771	22,340000	47,360000
2,190736	-13,263974	88,213	-0,112036	22,340000	47,360000
2,189832	-13,458327	88,379	-0,112115	22,340000	47,360000
2,188938	-13,346754	88,530	-0,112070	22,340000	47,360000
2,188074	-13,718664	88,681	-0,112221	22,340000	47,360000
2,187126	-13,068422	88,833	-0,111957	22,340000	47,360000
2,186241	-13,653879	88,983	-0,112195	22,340000	47,360000
2,185325	-13,458327	89,134	-0,112115	22,340000	47,360000
2,184441	-14,239337	89,287	-0,112433	22,340000	47,360000
2,183520	-13,979000	89,439	-0,112327	22,340000	47,360000
2,182709	-14,758811	89,589	-0,112645	22,340000	47,360000
2,181713	-14,694026	89,742	-0,112618	22,340000	47,335000
2,180869	-14,694026	89,894	-0,112618	22,340000	47,335000
2,179947	-14,433690	90,045	-0,112512	22,340000	47,335000
2,179055	-15,019147	90,196	-0,112750	22,340000	47,335000
2,178121	-14,823595	90,347	-0,112671	22,340000	47,335000
2,177236	-15,083932	90,497	-0,112777	22,340000	47,335000
2,176363	-15,019147	90,649	-0,112750	22,340000	47,335000
2,175513	-15,734173	90,800	-0,113042	22,340000	47,335000
2,174535	-15,213500	90,951	-0,112830	22,340000	47,335000
2,173687	-15,148716	91,101	-0,112803	22,340000	47,335000
2,172779	-15,148716	91,272	-0,112803	22,340000	47,335000
2,171843	-14,823595	91,423	-0,112671	22,340000	47,335000
2,170957	-14,954363	91,595	-0,112724	22,340000	47,335000
2,170059	-15,409053	91,746	-0,112909	22,340000	47,350000
2,169130	-16,059294	91,896	-0,113174	22,340000	47,350000
2,168242	-16,124079	92,074	-0,113200	22,340000	47,350000
2,167343	-16,384415	92,224	-0,113306	22,340000	47,350000
2,166432	-17,034657	92,375	-0,113571	22,340000	47,350000
2,165571	-16,253647	92,535	-0,113253	22,340000	47,350000
2,164619	-16,449200	92,685	-0,113333	22,340000	47,350000
2,163734	-16,513984	92,836	-0,113359	22,340000	47,350000
2,162860	-16,449200	92,987	-0,113333	22,340000	47,350000
2,161941	-16,579968	93,138	-0,113386	22,340000	47,350000
2,161062	0,194353	93,297	-0,106559	22,340000	47,350000
2,160115	1,104931	93,449	-0,106188	22,340000	47,350000
2,159231	0,974163	93,618	-0,106241	22,340000	47,350000
2,158321	0,909379	93,769	-0,106268	22,340000	47,335000
2,157468	0,779810	93,920	-0,106320	22,340000	47,335000
2,156556	0,323921	94,070	-0,106506	22,340000	47,335000
2,155675	1,040147	94,220	-0,106214	22,340000	47,335000
2,154808	0,779810	94,385	-0,106320	22,340000	47,335000
2,153856	0,779810	94,536	-0,106320	22,340000	47,335000
2,152899	-0,130768	94,686	-0,106691	22,340000	47,335000
2,152034	1,104931	94,838	-0,106188	22,340000	47,335000
2,151164	1,300484	94,988	-0,106108	22,340000	47,335000
2,150204	1,169716	95,140	-0,106162	22,340000	47,335000
2,149378	0,715026	95,296	-0,106347	22,340000	47,335000
2,148420	0,323921	95,446	-0,106506	22,340000	47,335000
2,147608	0,974163	95,598	-0,106241	22,340000	47,335000
2,146668	0,844595	95,748	-0,106294	22,340000	47,335000
2,145783	0,974163	95,899	-0,106241	22,340000	47,335000
2,144849	0,389905	96,055	-0,106479	22,340000	47,335000
2,143932	0,974163	96,206	-0,106241	22,340000	47,335000
2,143026	0,519474	96,356	-0,106426	22,340000	47,335000
2,142161	0,454689	96,506	-0,106453	22,340000	47,335000
2,141265	0,323921	96,657	-0,106506	22,340000	47,335000
2,140369	1,234500	96,849	-0,106135	22,340000	47,335000
2,139440	0,259137	97,000	-0,106532	22,340000	47,335000
2,138540	0,909379	97,152	-0,106268	22,340000	47,335000
2,137624	0,779810	97,304	-0,106320	22,340000	47,335000
2,136724	1,040147	97,455	-0,106214	22,340000	47,335000
2,135853	1,104931	97,623	-0,106188	22,340000	47,335000
2,134950	0,584258	97,775	-0,106400	22,340000	47,335000
2,134074	0,389905	97,926	-0,106479	22,340000	47,335000
2,133113	1,234500	98,096	-0,106135	22,340000	47,335000
2,132256	0,779810	98,247	-0,106320	22,340000	47,335000
2,131330	1,169716	98,398	-0,106162	22,340000	47,335000
2,130421	0,259137	98,548	-0,106532	22,340000	47,335000
2,129545	0,259137	98,698	-0,106532	22,340000	47,335000
2,128614	0,779810	98,851	-0,106320	22,340000	47,335000
2,127789	1,104931	99,002	-0,106188	22,340000	47,335000
2,126815	0,194353	99,152	-0,106559	22,340000	47,335000
2,125943	0,715026	99,302	-0,106347	22,340000	47,335000
2,125055	0,909379	99,453	-0,106268	22,340000	47,335000
2,124166	0,389905	99,605	-0,106479	22,340000	47,335000
2,123264	0,844595	99,756	-0,106294	22,340000	47,320000
2,122320	0,129568	99,906	-0,106585	22,340000	47,320000
2,121466	0,909379	100,058	-0,106268	22,340000	47,320000
2,120561	1,040147	100,211	-0,106214	22,340000	47,320000
2,119637	1,169716	100,362	-0,106162	22,340000	47,320000
2,118757	0,650242	100,527	-0,106373	22,340000	47,320000
2,117805	0,844595	100,677	-0,106294	22,340000	47,320000
2,116934	0,519474	100,833	-0,106426	22,340000	47,320000
2,116066	0,779810	100,984	-0,106320	22,340000	47,320000
2,115093	0,389905	101,135	-0,106479	22,340000	47,320000
2,114252	0,584258	101,297	-0,106400	22,340000	47,320000
2,113381	0,974163	101,448	-0,106241	22,340000	47,320000
2,112459	0,519474	101,599	-0,106426	22,340000	47,320000
2,111562	1,104931	101,750	-0,106188	22,340000	47,350000
2,110625	0,323921	101,901	-0,106506	22,340000	47,350000
2,109765	0,909379	102,052	-0,106268	22,340000	47,350000
2,108865	1,104931	102,202	-0,106188	22,340000	47,350000
2,107929	0,454689	102,354	-0,106453	22,340000	47,350000
2,107084	1,169716	102,511	-0,106162	22,340000	47,350000
2,106102	0,389905	102,663	-0,106479	22,340000	47,350000
2,105242	0,454689	102,841	-0,106453	22,340000	47,350000
2,104368	1,169716	102,992	-0,106162	22,340000	47,350000
2,103490	0,259137	103,143	-0,106532	22,340000	47,350000
2,102539	1,040147	103,300	-0,106214	22,340000	47,350000
2,101673	0,909379	103,452	-0,106268	22,340000	47,350000
2,100750	0,259137	103,602	-0,106532	22,340000	47,350000
2,099818	0,974163	103,752	-0,106241	22,340000	47,350000
2,098950	0,519474	103,905	-0,106426	22,340000	47,350000
2,098022	0,650242	104,071	-0,106373	22,340000	47,350000
2,097113	0,519474	104,222	-0,106426	22,340000	47,350000
2,096296	0,454689	104,372	-0,106453	22,340000	47,350000
2,095326	0,715026	104,543	-0,106347	22,340000	47,350000
2,094443	0,064784	104,693	-0,106611	22,340000	47,350000
2,093600	0,650242	104,857	-0,106373	22,340000	47,350000
2,092648	0,909379	105,010	-0,106268	22,340000	47,350000
2,091727	0,584258	105,161	-0,106400	22,340000	47,350000
2,090892	1,234500	105,312	-0,106135	22,340000	47,350000
2,089936	0,650242	105,463	-0,106373	22,340000	47,350000
2,089092	0,715026	105,629	-0,106347	22,340000	47,350000
2,088200	0,844595	105,779	-0,106294	22,340000	47,360000
2,087227	0,650242	105,929	-0,106373	22,340000	47,360000
2,086390	0,129568	106,088	-0,106585	22,340000	47,360000
2,085496	1,234500	106,239	-0,106135	22,340000	47,360000
2,084555	0,519474	106,406	-0,106426	22,340000	47,360000
2,083653	0,650242	106,558	-0,106373	22,340000	47,360000
2,082774	0,715026	106,708	-0,106347	22,340000	47,360000
2,081899	1,169716	106,859	-0,106162	22,340000	47,360000
2,080964	0,779810	107,010	-0,106320	22,340000	47,360000
2,080097	0,974163	107,162	-0,106241	22,340000	47,360000
2,079152	0,909379	107,312	-0,106268	22,340000	47,360000
2,078274	1,104931	107,462	-0,106188	22,340000	47,360000
2,077372	0,389905	107,615	-0,106479	22,340000	47,360000
2,076437	0,779810	107,766	-0,106320	22,340000	47,360000
2,075549	0,000000	107,916	-0,106638	22,340000	47,360000
2,074697	1,234500	108,068	-0,106135	22,340000	47,360000
2,073809	1,234500	108,220	-0,106135	22,340000	47,360000
2,072840	0,844595	108,393	-0,106294	22,340000	47,360000
2,071962	0,584258	108,544	-0,106400	22,340000	47,360000
2,071064	1,300484	108,695	-0,106108	22,340000	47,360000
2,070128	0,779810	108,856	-0,106320	22,340000	47,360000
2,069184	0,909379	109,007	-0,106268	22,340000	47,360000
2,068356	0,584258	109,157	-0,106400	22,340000	47,360000
2,067487	1,169716	109,314	-0,106162	22,340000	47,360000
2,066552	0,323921	109,467	-0,106506	22,340000	47,360000
2,065650	0,974163	109,629	-0,106241	22,340000	47,360000
2,064781	0,323921	109,780	-0,106506	22,350000	47,320000
2,063872	0,194353	109,931	-0,106559	22,350000	47,320000
2,062963	1,040147	110,094	-0,106214	22,350000	47,320000
2,062069	0,194353	110,246	-0,106559	22,350000	47,320000
2,061156	0,844595	110,416	-0,106294	22,350000	47,320000
2,060213	0,259137	110,566	-0,106532	22,350000	47,320000
2,059375	1,040147	110,716	-0,106214	22,350000	47,320000
2,058452	0,909379	110,866	-0,106268	22,350000	47,320000
2,057545	1,364068	111,016	-0,106083	22,350000	47,320000
2,056657	0,909379	111,167	-0,106268	22,350000	47,320000
2,055727	0,389905	111,318	-0,106479	22,350000	47,320000
2,054848	0,779810	111,468	-0,106320	22,350000	47,320000
2,053913	0,584258	111,632	-0,106400	22,350000	47,320000
2,053109	0,844595	111,784	-0,106294	22,340000	47,335000
2,052174	0,454689	111,935	-0,106453	22,340000	47,335000
2,051298	0,064784	112,098	-0,106611	22,340000	47,335000
2,050382	0,129568	112,248	-0,106585	22,340000	47,335000
2,050120	0,064784	112,299	-0,106611	22,340000	47,335000