File: Nanoindentation Datenauswertung/data/PDMS/EM-PDMS-100-10-100-2um-1
Quasi static measurement routine
Tip parameters (shape,radius, material...)
24.08.2022

Piezo position[nm]	MEMS displ.[nm]	Time[ms]	Cap [pf]	Temp [°C]	Rh [%]
eoh
2,551863	-0,050300	0,197	-0,136129	22,680000	51,870000
2,557870	-0,231872	0,497	-0,136201	22,680000	51,870000
2,563850	0,024537	0,797	-0,136099	22,680000	51,870000
2,569864	0,024537	1,097	-0,136099	22,680000	51,870000
2,575857	-0,099374	1,397	-0,136148	22,680000	51,870000
2,581857	-0,266224	1,697	-0,136215	22,680000	51,870000
2,587894	0,024537	1,999	-0,136099	22,680000	51,870000
2,593871	0,050300	2,299	-0,136089	22,680000	51,870000
2,599929	0,074837	2,599	-0,136079	22,680000	51,870000
2,605834	-0,041712	2,899	-0,136125	22,680000	51,870000
2,611882	0,074837	3,202	-0,136079	22,680000	51,870000
2,617926	0,158262	3,504	-0,136046	22,680000	51,870000
2,623870	-0,307936	3,804	-0,136231	22,680000	51,870000
2,629851	-0,107962	4,104	-0,136152	22,680000	51,870000
2,635933	0,033125	4,404	-0,136096	22,680000	51,870000
2,641855	-0,266224	4,704	-0,136215	22,680000	51,870000
2,647811	0,008588	5,004	-0,136105	22,680000	51,870000
2,653898	-0,249048	5,304	-0,136208	22,680000	51,870000
2,659863	-0,033125	5,605	-0,136122	22,680000	51,870000
2,665916	-0,449022	5,906	-0,136288	22,680000	51,870000
2,671855	-0,290760	6,206	-0,136225	22,680000	51,870000
2,677882	-0,149674	6,507	-0,136168	22,680000	51,870000
2,683868	-0,332473	6,809	-0,136241	22,680000	51,870000
2,689828	-0,191387	7,109	-0,136185	22,680000	51,870000
2,695868	-0,664946	7,411	-0,136374	22,680000	51,870000
2,701876	-0,482147	7,712	-0,136301	22,680000	51,870000
2,707868	-0,440435	8,012	-0,136284	22,680000	51,870000
2,713874	-0,506684	8,312	-0,136311	22,690000	51,845000
2,719883	-0,572933	8,612	-0,136337	22,690000	51,845000
2,725796	-0,515272	8,912	-0,136314	22,690000	51,845000
2,731865	-0,332473	9,212	-0,136241	22,690000	51,845000
2,737871	-0,374185	9,513	-0,136258	22,690000	51,845000
2,743840	-0,607284	9,813	-0,136351	22,690000	51,845000
2,749913	-0,357010	10,115	-0,136251	22,690000	51,845000
2,755861	-0,598697	10,415	-0,136347	22,690000	51,845000
2,761895	-0,382773	10,715	-0,136261	22,690000	51,845000
2,767878	-0,764320	11,016	-0,136413	22,690000	51,845000
2,773878	-0,656358	11,318	-0,136370	22,690000	51,845000
2,779802	-0,548396	11,618	-0,136327	22,690000	51,845000
2,785849	-0,922582	11,920	-0,136476	22,690000	51,845000
2,791811	-0,947118	12,221	-0,136486	22,690000	51,870000
2,797818	-0,772908	12,521	-0,136417	22,690000	51,870000
2,803879	-0,748371	12,823	-0,136407	22,690000	51,870000
2,809887	-0,922582	13,124	-0,136476	22,690000	51,870000
2,815869	-0,531221	13,426	-0,136320	22,690000	51,870000
2,821819	-0,614645	13,726	-0,136354	22,690000	51,870000
2,827867	-0,806032	14,029	-0,136430	22,690000	51,870000
2,833823	-1,072256	14,330	-0,136536	22,690000	51,870000
2,839860	-1,006007	14,631	-0,136509	22,690000	51,870000
2,845829	-0,856332	14,932	-0,136450	22,690000	51,870000
2,851908	-1,138505	15,233	-0,136562	22,690000	51,870000
2,857863	-0,922582	15,535	-0,136476	22,690000	51,870000
2,863869	-1,072256	15,836	-0,136536	22,690000	51,870000
2,869812	-1,412090	16,138	-0,136671	22,690000	51,870000
2,875840	-1,080844	16,438	-0,136539	22,690000	51,870000
2,881847	-1,354428	16,739	-0,136648	22,690000	51,870000
2,887885	-1,213342	17,042	-0,136592	22,690000	51,870000
2,893837	-1,504103	17,343	-0,136708	22,690000	51,870000
2,899819	-1,288179	17,644	-0,136622	22,690000	51,870000
2,905813	-1,337253	17,944	-0,136641	22,690000	51,870000
2,911872	-1,504103	18,244	-0,136708	22,680000	51,830000
2,917808	-1,453802	18,545	-0,136687	22,680000	51,830000
2,923871	-1,745789	18,845	-0,136804	22,680000	51,830000
2,929727	-1,629240	19,146	-0,136757	22,680000	51,830000
2,935818	-1,711438	19,447	-0,136790	22,680000	51,830000
2,941860	-1,711438	19,747	-0,136790	22,680000	51,830000
2,947822	-1,902825	20,047	-0,136866	22,680000	51,830000
2,953849	-1,961713	20,348	-0,136890	22,680000	51,830000
2,959866	-2,102799	20,649	-0,136946	22,680000	51,830000
2,965822	-2,235298	20,951	-0,136999	22,680000	51,830000
2,971804	-2,202173	21,252	-0,136985	22,680000	51,830000
2,977844	-2,252473	21,553	-0,137005	22,680000	51,830000
2,983806	-2,526058	21,853	-0,137114	22,680000	51,830000
2,989813	-2,559183	22,154	-0,137127	22,680000	51,860000
2,995814	-2,642608	22,455	-0,137161	22,680000	51,860000
3,001795	-2,933368	22,757	-0,137276	22,680000	51,860000
3,007801	-3,091630	23,058	-0,137339	22,680000	51,860000
3,013838	-3,191004	23,358	-0,137379	22,680000	51,860000
3,019797	-3,598314	23,658	-0,137541	22,680000	51,860000
3,025832	-4,155298	23,959	-0,137763	22,680000	51,860000
3,031825	-4,279209	24,260	-0,137812	22,700000	51,860000
3,037801	-4,661982	24,560	-0,137964	22,700000	51,860000
3,043804	-74,786776	24,861	-0,165874	22,700000	51,860000
3,049790	-74,870201	25,162	-0,165907	22,700000	51,860000
3,055802	-72,219005	25,462	-0,164852	22,700000	51,860000
3,061834	-70,041369	25,765	-0,163985	22,700000	51,860000
3,067867	-67,823247	26,065	-0,163103	22,700000	51,860000
3,073831	-65,662787	26,366	-0,162243	22,700000	51,860000
3,079815	-63,326888	26,667	-0,161313	22,700000	51,860000
3,085798	-61,406888	26,968	-0,160549	22,700000	51,860000
3,091821	-59,429226	27,270	-0,159762	22,700000	51,860000
3,097818	-57,533763	27,571	-0,159007	22,700000	51,860000
3,103795	-55,124254	27,873	-0,158048	22,700000	51,860000
3,109827	-52,032624	28,174	-0,156818	22,690000	51,830000
3,115832	-49,764202	28,474	-0,155915	22,690000	51,830000
3,121846	-48,608521	28,774	-0,155455	22,690000	51,830000
3,127808	-46,381811	29,075	-0,154569	22,690000	51,830000
3,133821	-43,722028	29,375	-0,153510	22,690000	51,830000
3,139855	-41,702654	29,675	-0,152707	22,690000	51,830000
3,145868	-38,254014	29,976	-0,151334	22,690000	51,830000
3,151840	-35,860455	30,277	-0,150381	22,690000	51,830000
3,157793	-33,774831	30,577	-0,149551	22,690000	51,830000
3,163815	-31,256134	30,878	-0,148549	22,690000	51,830000
3,169752	-29,901706	31,178	-0,148010	22,690000	51,830000
3,175805	-26,460427	31,478	-0,146640	22,690000	51,830000
3,181790	-24,507302	31,778	-0,145863	22,690000	51,830000
3,187795	-21,899046	32,078	-0,144825	22,690000	51,860000
3,193784	-19,712822	32,378	-0,143955	22,690000	51,860000
3,199847	-17,302087	32,678	-0,142995	22,690000	51,860000
3,205812	-13,588450	32,978	-0,141517	22,690000	51,860000
3,211837	-11,468475	33,279	-0,140673	22,690000	51,860000
3,217791	-8,592769	33,579	-0,139529	22,690000	51,860000
3,223829	-6,166084	33,881	-0,138563	22,690000	51,860000
3,229807	-3,822825	34,183	-0,137630	22,680000	51,860000
3,235803	-1,329892	34,484	-0,136638	22,680000	51,860000
3,241779	1,138505	34,784	-0,135656	22,680000	51,860000
3,247771	3,457228	35,084	-0,134733	22,680000	51,860000
3,253802	6,515733	35,385	-0,133516	22,680000	51,860000
3,259778	10,288258	35,686	-0,132014	22,680000	51,860000
3,265767	11,701574	35,986	-0,131452	22,680000	51,860000
3,271772	14,319645	36,288	-0,130410	22,680000	51,845000
3,277724	16,995377	36,588	-0,129345	22,680000	51,845000
3,283756	21,283174	36,888	-0,127638	22,680000	51,845000
3,289794	23,967494	37,189	-0,126570	22,680000	51,845000
3,295806	26,851788	37,491	-0,125422	22,680000	51,845000
3,301772	28,106843	37,793	-0,124922	22,680000	51,845000
3,307818	31,638907	38,094	-0,123517	22,680000	51,845000
3,313750	34,588224	38,395	-0,122343	22,680000	51,845000
3,319833	36,915535	38,695	-0,121417	22,680000	51,845000
3,325816	39,035510	38,996	-0,120573	22,680000	51,845000
3,331787	41,993414	39,297	-0,119396	22,680000	51,845000
3,337802	45,551243	39,597	-0,117979	22,680000	51,845000
3,343788	47,271268	39,898	-0,117295	22,680000	51,845000
3,349736	50,678196	40,198	-0,115939	22,680000	51,860000
3,355779	52,780995	40,499	-0,115102	22,680000	51,860000
3,361712	56,553520	40,799	-0,113601	22,680000	51,860000
3,367755	44,071677	41,099	-0,118568	22,680000	51,860000
3,373814	32,427764	41,400	-0,123203	22,680000	51,860000
3,379773	33,266921	41,701	-0,122869	22,680000	51,860000
3,385752	35,884991	42,003	-0,121827	22,680000	51,860000
3,391809	38,677273	42,304	-0,120715	22,680000	51,870000
3,397782	41,429069	42,604	-0,119620	22,680000	51,870000
3,403722	44,761159	42,904	-0,118294	22,680000	51,870000
3,409735	47,703115	43,205	-0,117123	22,680000	51,870000
3,415755	51,625314	43,506	-0,115562	22,680000	51,870000
3,421742	54,201672	43,807	-0,114537	22,680000	51,870000
3,427764	57,526402	44,107	-0,113213	22,670000	51,865000
3,433753	59,039092	44,409	-0,112611	22,670000	51,865000
3,439798	61,939335	44,710	-0,111457	22,670000	51,865000
3,445721	63,718249	45,011	-0,110749	22,670000	51,865000
3,451817	66,169470	45,313	-0,109773	22,670000	51,865000
3,457671	68,206020	45,615	-0,108963	22,670000	51,865000
3,463813	68,961752	45,916	-0,108662	22,670000	51,865000
3,469687	70,948002	46,216	-0,107872	22,690000	51,830000
3,475757	72,701152	46,516	-0,107174	22,690000	51,830000
3,481746	75,700769	46,818	-0,105980	22,690000	51,830000
3,487762	80,022917	47,121	-0,104260	22,690000	51,830000
3,493722	81,634982	47,422	-0,103618	22,690000	51,830000
3,499774	84,776912	47,722	-0,102368	22,690000	51,830000
3,505679	88,765360	48,025	-0,100780	22,690000	51,830000
3,511729	90,161501	48,325	-0,100225	22,680000	51,845000
3,517818	94,741285	48,627	-0,098402	22,680000	51,845000
3,523715	97,881988	48,928	-0,097152	22,680000	51,845000
3,529757	100,891420	49,229	-0,095954	22,680000	51,845000
3,535721	102,801606	49,530	-0,095194	22,680000	51,845000
3,541700	106,758156	49,830	-0,093619	22,680000	51,845000
3,547706	110,523320	50,132	-0,092121	22,680000	51,845000
3,553665	112,558643	50,433	-0,091311	22,680000	51,845000
3,559653	116,182720	50,733	-0,089868	22,680000	51,845000
3,565742	119,506223	51,034	-0,088545	22,680000	51,845000
3,571710	122,772063	51,337	-0,087246	22,680000	51,845000
3,577697	125,806032	51,637	-0,086038	22,680000	51,845000
3,583686	129,437471	51,938	-0,084593	22,680000	51,845000
3,589703	133,850404	52,239	-0,082836	22,680000	51,830000
3,595709	137,606980	52,540	-0,081341	22,680000	51,830000
3,601728	139,925703	52,841	-0,080418	22,680000	51,830000
3,607712	144,820784	53,142	-0,078470	22,680000	51,830000
3,613724	147,995839	53,442	-0,077207	22,680000	51,830000
3,619764	151,743827	53,742	-0,075715	22,680000	51,830000
3,625702	155,026843	54,042	-0,074408	22,680000	51,885000
3,631712	156,795943	54,343	-0,073704	22,680000	51,885000
3,637704	161,824749	54,643	-0,071703	22,680000	51,885000
3,643649	165,156839	54,944	-0,070376	22,680000	51,885000
3,649690	167,641184	55,245	-0,069388	22,680000	51,885000
3,655663	171,098412	55,547	-0,068012	22,680000	51,885000
3,661691	174,839039	55,849	-0,066523	22,680000	51,885000
3,667707	178,012867	56,150	-0,065260	22,680000	51,860000
3,673729	181,612408	56,451	-0,063827	22,680000	51,860000
3,679695	186,756537	56,752	-0,061780	22,680000	51,860000
3,685707	188,809035	57,053	-0,060963	22,680000	51,860000
3,691715	193,404768	57,355	-0,059134	22,680000	51,860000
3,697671	197,185881	57,655	-0,057629	22,680000	51,860000
3,703762	199,405229	57,956	-0,056746	22,680000	51,860000
3,709668	203,153217	58,257	-0,055254	22,700000	51,845000
3,715711	206,760119	58,557	-0,053818	22,700000	51,845000
3,721678	211,853947	58,859	-0,051791	22,700000	51,845000
3,727712	214,978702	59,159	-0,050547	22,700000	51,845000
3,733643	217,596773	59,461	-0,049505	22,700000	51,845000
3,739732	222,683240	59,761	-0,047481	22,700000	51,845000
3,745686	225,832532	60,062	-0,046228	22,690000	51,885000
3,751667	229,373184	60,363	-0,044818	22,690000	51,885000
3,757657	233,029159	60,663	-0,043363	22,690000	51,885000
3,763706	237,293646	60,963	-0,041666	22,690000	51,885000
3,769690	239,619730	61,264	-0,040740	22,690000	51,885000
3,775740	243,525980	61,566	-0,039186	22,690000	51,885000
3,781697	246,791820	61,867	-0,037886	22,690000	51,885000
3,787669	251,072256	62,168	-0,036182	22,680000	51,845000
3,793687	253,981087	62,468	-0,035024	22,680000	51,845000
3,799632	257,737663	62,769	-0,033529	22,680000	51,845000
3,805687	261,327389	63,071	-0,032101	22,680000	51,845000
3,811727	265,980783	63,372	-0,030249	22,680000	51,845000
3,817699	270,344643	63,674	-0,028512	22,680000	51,845000
3,823675	272,313717	63,974	-0,027728	22,680000	51,845000
3,829704	277,433309	64,274	-0,025690	22,680000	51,845000
3,835655	279,926243	64,577	-0,024698	22,680000	51,845000
3,841680	284,048416	64,877	-0,023058	22,680000	51,845000
3,847709	288,254014	65,178	-0,021384	22,680000	51,845000
3,853721	291,752954	65,479	-0,019991	22,680000	51,845000
3,859658	294,220124	65,779	-0,019009	22,680000	51,845000
3,865652	298,242924	66,080	-0,017408	22,680000	51,860000
3,871687	302,041212	66,382	-0,015896	22,680000	51,860000
3,877717	305,731539	66,683	-0,014428	22,680000	51,860000
3,883675	309,155641	66,985	-0,013065	22,680000	51,860000
3,889667	313,011591	67,286	-0,011530	22,680000	51,860000
3,895620	317,955746	67,586	-0,009562	22,680000	51,860000
3,901711	319,941995	67,887	-0,008772	22,680000	51,860000
3,907667	324,039632	68,187	-0,007141	22,690000	51,885000
3,913652	327,745907	68,487	-0,005666	22,690000	51,885000
3,919691	332,839736	68,788	-0,003639	22,690000	51,885000
3,925622	334,933947	69,090	-0,002805	22,690000	51,885000
3,931707	338,424299	69,391	-0,001416	22,690000	51,885000
3,937634	342,398025	69,691	0,000166	22,690000	51,885000
3,943698	347,732314	69,992	0,002289	22,690000	51,885000
3,949718	351,447177	70,292	0,003767	22,680000	51,895000
3,955713	353,359817	70,592	0,004528	22,680000	51,895000
3,961671	357,140929	70,893	0,006033	22,680000	51,895000
3,967678	361,461850	71,193	0,007753	22,680000	51,895000
3,973668	364,910490	71,494	0,009125	22,680000	51,895000
3,979681	369,365136	71,794	0,010898	22,680000	51,895000
3,985629	372,042095	72,096	0,011964	22,680000	51,845000
3,991675	375,689483	72,398	0,013416	22,680000	51,845000
3,997672	379,903669	72,698	0,015093	22,680000	51,845000
4,003646	383,409970	72,999	0,016488	22,680000	51,845000
4,009679	388,305051	73,299	0,018437	22,680000	51,845000
4,015669	391,746329	73,599	0,019806	22,680000	51,845000
4,021698	394,081001	73,899	0,020735	22,680000	51,845000
4,027760	395,569154	74,200	0,021328	22,680000	51,885000
4,033638	399,050919	74,502	0,022713	22,680000	51,885000
4,039755	402,932632	74,805	0,024258	22,680000	51,885000
4,045722	406,148173	75,105	0,025538	22,680000	51,885000
4,051680	409,671649	75,405	0,026940	22,680000	51,885000
4,057633	414,949503	75,705	0,029041	22,680000	51,885000
4,063699	417,017951	76,006	0,029864	22,680000	51,885000
4,069694	422,461428	76,307	0,032031	22,680000	51,885000
4,075690	425,803333	76,607	0,033361	22,680000	51,885000
4,081628	428,096292	76,907	0,034273	22,680000	51,885000
4,087696	432,018491	77,208	0,035834	22,680000	51,885000
4,093641	436,481725	77,509	0,037611	22,680000	51,885000
4,099693	439,407732	77,810	0,038775	22,680000	51,885000
4,105662	443,645228	78,111	0,040462	22,670000	51,855000
4,111593	446,454686	78,412	0,041580	22,670000	51,855000
4,117600	450,717945	78,712	0,043277	22,670000	51,855000
4,123675	453,917537	79,012	0,044550	22,670000	51,855000
4,129628	457,698649	79,313	0,046055	22,670000	51,855000
4,135678	461,787698	79,613	0,047683	22,670000	51,855000
4,141710	465,386012	79,915	0,049115	22,670000	51,855000
4,147687	470,256556	80,216	0,051053	22,670000	51,855000
4,153618	472,566691	80,517	0,051973	22,670000	51,855000
4,159657	476,215305	80,817	0,053425	22,670000	51,855000
4,165670	479,688481	81,119	0,054807	22,670000	51,855000
4,171625	483,586144	81,419	0,056358	22,670000	51,855000
4,177713	487,983129	81,720	0,058108	22,670000	51,855000
4,183623	492,537149	82,022	0,059921	22,670000	51,855000
4,189666	496,260600	82,323	0,061403	22,690000	51,845000
4,195608	498,462773	82,623	0,062279	22,690000	51,845000
4,201659	503,673151	82,924	0,064353	22,690000	51,845000
4,207615	505,975925	83,225	0,065270	22,690000	51,845000
4,213641	509,914072	83,525	0,066837	22,690000	51,845000
4,219657	514,443556	83,827	0,068640	22,690000	51,845000
4,225593	517,078802	84,128	0,069688	22,690000	51,860000
4,231590	521,124912	84,429	0,071299	22,690000	51,860000
4,237624	524,482765	84,730	0,072635	22,690000	51,860000
4,243650	528,331354	85,032	0,074167	22,690000	51,860000
4,249639	532,044991	85,332	0,075645	22,690000	51,860000
4,255649	535,909528	85,633	0,077183	22,690000	51,860000
4,261624	541,095369	85,935	0,079247	22,690000	51,860000
4,267589	543,464392	86,236	0,080190	22,680000	51,845000
4,273576	547,095831	86,539	0,081635	22,680000	51,845000
4,279681	552,382273	86,839	0,083739	22,680000	51,845000
4,285594	554,741481	87,143	0,084678	22,680000	51,845000
4,291680	558,490696	87,444	0,086170	22,680000	51,845000
4,297628	562,313521	87,745	0,087692	22,680000	51,845000
4,303615	566,277432	88,048	0,089270	22,690000	51,870000
4,309631	569,783733	88,350	0,090665	22,690000	51,870000
4,315643	573,723108	88,652	0,092233	22,690000	51,870000
4,321623	578,677077	88,953	0,094205	22,690000	51,870000
4,327635	581,103761	89,253	0,095170	22,690000	51,870000
4,333607	584,959711	89,553	0,096705	22,690000	51,870000
4,339629	590,203213	89,854	0,098792	22,690000	51,870000
4,345589	594,026038	90,155	0,100313	22,680000	51,845000
4,351625	595,804952	90,455	0,101021	22,680000	51,845000
4,357636	600,076800	90,755	0,102722	22,680000	51,845000
4,363645	603,732775	91,056	0,104177	22,680000	51,845000
4,369609	608,968917	91,356	0,106261	22,680000	51,845000
4,375582	612,957365	91,656	0,107848	22,680000	51,845000
4,381623	616,141008	91,956	0,109115	22,680000	51,845000
4,387652	618,900165	92,256	0,110213	22,680000	51,845000
4,393693	623,046875	92,558	0,111864	22,680000	51,845000
4,399612	627,501521	92,858	0,113637	22,680000	51,845000
4,405624	630,318340	93,159	0,114758	22,680000	51,845000
4,411599	634,341139	93,461	0,116359	22,680000	51,845000
4,417609	639,335594	93,761	0,118347	22,680000	51,845000
4,423633	641,945077	94,063	0,119385	22,690000	51,845000
4,429544	645,153257	94,364	0,120662	22,690000	51,845000
4,435558	649,084043	94,664	0,122227	22,690000	51,845000
4,441598	654,153335	94,964	0,124244	22,690000	51,845000
4,447569	656,879368	95,264	0,125329	22,690000	51,845000
4,453618	660,237221	95,567	0,126666	22,690000	51,845000
4,459609	663,694449	95,869	0,128042	22,690000	51,845000
4,465595	669,411511	96,170	0,130317	22,680000	51,870000
4,471602	671,414936	96,472	0,131114	22,680000	51,870000
4,477557	676,600777	96,774	0,133178	22,680000	51,870000
4,483620	679,875206	97,077	0,134481	22,680000	51,870000
4,489590	683,233060	97,379	0,135818	22,680000	51,870000
4,495631	686,473137	97,681	0,137107	22,680000	51,870000
4,501612	690,262838	97,983	0,138616	22,680000	51,870000
4,507592	693,828027	98,284	0,140035	22,690000	51,870000
4,513609	697,542890	98,587	0,141513	22,690000	51,870000
4,519594	701,424603	98,888	0,143058	22,690000	51,870000
4,525500	706,909793	99,190	0,145241	22,690000	51,870000
4,531575	710,341257	99,492	0,146607	22,690000	51,870000
4,537597	714,022996	99,793	0,148072	22,690000	51,870000
4,543618	716,865578	100,095	0,149204	22,690000	51,870000
4,549584	720,671227	100,397	0,150718	22,690000	51,870000
4,551583	722,866039	100,699	0,151592	22,690000	51,870000
4,551598	722,350768	100,999	0,151387	22,690000	51,870000
4,551578	721,826908	101,300	0,151178	22,690000	51,870000
4,551587	721,926282	101,600	0,151218	22,690000	51,870000
4,551489	721,701771	101,901	0,151128	22,690000	51,870000
4,551608	721,395061	102,203	0,151006	22,690000	51,885000
4,551611	720,979163	102,505	0,150841	22,690000	51,885000
4,551586	721,054000	102,805	0,150871	22,690000	51,885000
4,551576	720,796365	103,107	0,150768	22,690000	51,885000
4,551510	720,813540	103,408	0,150775	22,690000	51,885000
4,551569	720,679815	103,708	0,150722	22,690000	51,885000
4,551568	720,190307	104,008	0,150527	22,690000	51,885000
4,551538	720,056582	104,309	0,150474	22,690000	51,870000
4,551586	720,181719	104,609	0,150523	22,690000	51,870000
4,551626	719,749872	104,909	0,150352	22,690000	51,870000
4,551592	720,106882	105,210	0,150494	22,690000	51,870000
4,551572	719,416173	105,512	0,150219	22,690000	51,870000
4,551611	719,300850	105,813	0,150173	22,690000	51,870000
4,551634	719,516773	106,113	0,150259	22,680000	51,885000
4,551563	719,699572	106,414	0,150332	22,680000	51,885000
4,551558	719,457885	106,714	0,150235	22,680000	51,885000
4,551605	719,100875	107,015	0,150093	22,680000	51,885000
4,551536	718,992914	107,315	0,150050	22,680000	51,885000
4,551606	719,010090	107,617	0,150057	22,680000	51,885000
4,551526	718,719329	107,918	0,149941	22,680000	51,885000
4,551618	718,893540	108,219	0,150011	22,680000	51,870000
4,551638	718,585604	108,519	0,149888	22,680000	51,870000
4,551578	718,686204	108,821	0,149928	22,680000	51,870000
4,551579	718,444518	109,122	0,149832	22,680000	51,870000
4,551613	718,510767	109,423	0,149858	22,680000	51,870000
4,551587	718,195470	109,723	0,149733	22,680000	51,870000
4,551580	718,112045	110,024	0,149700	22,680000	51,870000
4,551589	718,012671	110,327	0,149660	22,680000	51,870000
4,549569	716,882754	110,627	0,149210	22,680000	51,870000
4,543594	712,793705	110,927	0,147583	22,680000	51,870000
4,537596	707,890036	111,229	0,145631	22,680000	51,870000
4,531581	704,457345	111,531	0,144265	22,680000	51,870000
4,525577	700,667645	111,832	0,142757	22,680000	51,870000
4,519586	696,496398	112,134	0,141097	22,680000	51,845000
4,513566	692,200014	112,434	0,139387	22,680000	51,845000
4,507547	688,351425	112,735	0,137855	22,680000	51,845000
4,501558	684,138466	113,036	0,136178	22,680000	51,845000
4,495601	680,091129	113,336	0,134567	22,680000	51,845000
4,489563	674,323767	113,636	0,132272	22,680000	51,845000
4,483591	671,514310	113,936	0,131154	22,680000	51,845000
4,477609	667,275587	114,236	0,129467	22,690000	51,860000
4,471610	661,857873	114,538	0,127311	22,690000	51,860000
4,465638	657,976160	114,838	0,125766	22,690000	51,860000
4,459581	653,804913	115,139	0,124105	22,690000	51,860000
4,453590	651,336517	115,440	0,123123	22,690000	51,860000
4,447567	647,022957	115,740	0,121406	22,690000	51,860000
4,441628	641,704617	116,041	0,119290	22,690000	51,860000
4,435603	637,598392	116,342	0,117655	22,690000	51,860000
4,429566	635,063746	116,642	0,116646	22,690000	51,860000
4,423555	631,024998	116,943	0,115039	22,690000	51,860000
4,417562	626,720026	117,243	0,113326	22,690000	51,860000
4,411623	622,954862	117,544	0,111827	22,690000	51,860000
4,405619	618,916114	117,847	0,110220	22,690000	51,860000
4,399591	615,126413	118,149	0,108711	22,680000	51,860000
4,393634	609,567613	118,450	0,106499	22,680000	51,860000
4,387618	606,974079	118,751	0,105467	22,680000	51,860000
4,381610	601,414053	119,051	0,103254	22,680000	51,860000
4,375600	598,987368	119,353	0,102288	22,680000	51,860000
4,369574	595,181719	119,653	0,100773	22,680000	51,860000
4,363599	591,125795	119,953	0,099159	22,680000	51,860000
4,357633	587,069871	120,253	0,097545	22,690000	51,830000
4,351618	581,734355	120,553	0,095421	22,690000	51,830000
4,345612	577,862457	120,854	0,093880	22,690000	51,830000
4,339570	575,435773	121,154	0,092915	22,690000	51,830000
4,333632	571,520935	121,455	0,091356	22,690000	51,830000
4,327590	566,035745	121,756	0,089173	22,690000	51,830000
4,321647	563,659361	122,058	0,088228	22,680000	51,860000
4,315653	559,495475	122,358	0,086570	22,680000	51,860000
4,309642	554,650695	122,659	0,084642	22,680000	51,860000
4,303641	550,777569	122,959	0,083101	22,680000	51,860000
4,297622	548,234336	123,259	0,082088	22,680000	51,860000
4,291598	543,547817	123,561	0,080223	22,680000	51,860000
4,285650	540,115126	123,862	0,078857	22,680000	51,860000
4,279640	535,536570	124,162	0,077035	22,680000	51,885000
4,273648	531,123636	124,463	0,075278	22,680000	51,885000
4,267555	528,380428	124,763	0,074187	22,680000	51,885000
4,261597	524,557602	125,063	0,072665	22,680000	51,885000
4,255640	520,585103	125,363	0,071084	22,680000	51,885000
4,249588	516,903364	125,663	0,069619	22,680000	51,885000
4,243608	512,740705	125,963	0,067962	22,680000	51,885000
4,237679	509,349727	126,264	0,066612	22,680000	51,870000
4,231617	505,493777	126,564	0,065078	22,680000	51,870000
4,225638	500,266224	126,865	0,062997	22,680000	51,870000
4,219717	497,747527	127,167	0,061995	22,680000	51,870000
4,213613	493,310056	127,468	0,060229	22,680000	51,870000
4,207620	488,648074	127,768	0,058373	22,680000	51,870000
4,201656	484,700112	128,069	0,056802	22,680000	51,870000
4,195621	482,073453	128,370	0,055756	22,680000	51,870000
4,189634	478,208916	128,671	0,054218	22,680000	51,870000
4,183649	474,495279	128,972	0,052740	22,680000	51,870000
4,177583	468,985553	129,272	0,050547	22,680000	51,870000
4,171643	465,302587	129,574	0,049082	22,680000	51,870000
4,165647	461,862535	129,874	0,047712	22,680000	51,870000
4,159583	457,773487	130,174	0,046085	22,700000	51,870000
4,153650	455,022917	130,476	0,044990	22,700000	51,870000
4,147673	451,565690	130,778	0,043614	22,700000	51,870000
4,141627	446,994494	131,079	0,041795	22,700000	51,870000
4,135659	443,255094	131,380	0,040307	22,700000	51,870000
4,129677	439,806454	131,680	0,038934	22,700000	51,870000
4,123642	435,941917	131,983	0,037396	22,700000	51,870000
4,117689	432,401264	132,283	0,035987	22,690000	51,870000
4,111670	426,600777	132,585	0,033678	22,690000	51,870000
4,105590	422,711703	132,886	0,032130	22,690000	51,870000
4,099682	420,392981	133,187	0,031208	22,690000	51,870000
4,093613	417,167625	133,488	0,029924	22,690000	51,870000
4,087623	413,071215	133,789	0,028293	22,690000	51,870000
4,081583	408,774831	134,090	0,026583	22,690000	51,870000
4,075646	405,300428	134,391	0,025201	22,690000	51,870000
4,069623	401,535264	134,692	0,023702	22,690000	51,870000
4,063701	396,108963	134,993	0,021542	22,690000	51,870000
4,057698	393,349806	135,294	0,020444	22,690000	51,870000
4,051595	388,928284	135,595	0,018685	22,690000	51,870000
4,045694	386,169127	135,895	0,017586	22,690000	51,870000
4,039677	382,986711	136,195	0,016320	22,680000	51,830000
4,033740	378,822825	136,496	0,014663	22,680000	51,830000
4,027711	375,066249	136,796	0,013167	22,680000	51,830000
4,021688	371,285137	137,096	0,011663	22,680000	51,830000
4,015659	367,545736	137,398	0,010174	22,680000	51,830000
4,009717	362,417557	137,700	0,008133	22,680000	51,830000
4,003667	359,700112	138,000	0,007052	22,680000	51,830000
3,997663	355,877287	138,300	0,005530	22,680000	51,830000
3,991668	350,940493	138,602	0,003565	22,680000	51,830000
3,985692	348,954244	138,902	0,002775	22,680000	51,830000
3,979680	344,940032	139,204	0,001177	22,680000	51,830000
3,973676	339,771367	139,505	-0,000880	22,680000	51,830000
3,967678	336,073679	139,806	-0,002352	22,680000	51,830000
3,961736	332,724413	140,107	-0,003685	22,680000	51,845000
3,955685	330,188540	140,407	-0,004694	22,680000	51,845000
3,949698	326,017293	140,707	-0,006354	22,680000	51,845000
3,943735	321,322187	141,008	-0,008223	22,680000	51,845000
3,937726	317,823247	141,308	-0,009615	22,680000	51,845000
3,931712	314,399144	141,610	-0,010978	22,680000	51,845000
3,925714	310,983629	141,912	-0,012337	22,680000	51,845000
3,919668	307,550938	142,214	-0,013704	22,680000	51,845000
3,913704	303,928088	142,514	-0,015146	22,680000	51,845000
3,907678	300,221812	142,815	-0,016621	22,680000	51,845000
3,901674	296,348687	143,115	-0,018162	22,680000	51,845000
3,895707	291,278168	143,415	-0,020180	22,680000	51,845000
3,889567	289,126296	143,716	-0,021037	22,680000	51,845000
3,883654	283,858256	144,016	-0,023133	22,680000	51,845000
3,877697	279,875942	144,318	-0,024718	22,690000	51,845000
3,871696	276,087469	144,618	-0,026226	22,690000	51,845000
3,865703	273,885296	144,918	-0,027103	22,690000	51,845000
3,859753	270,228094	145,218	-0,028558	22,690000	51,845000
3,853703	266,247007	145,518	-0,030143	22,690000	51,845000
3,847724	263,122252	145,818	-0,031386	22,690000	51,845000
3,841710	257,962174	146,118	-0,033440	22,690000	51,845000
3,835681	255,758774	146,418	-0,034317	22,690000	51,845000
3,829693	252,027962	146,718	-0,035802	22,690000	51,845000
3,823711	248,029699	147,018	-0,037393	22,690000	51,845000
3,817701	244,457149	147,318	-0,038815	22,690000	51,845000
3,811729	239,478643	147,618	-0,040796	22,690000	51,845000
3,805723	237,001659	147,919	-0,041782	22,690000	51,845000
3,799722	232,156878	148,220	-0,043710	22,680000	51,845000
3,793729	228,417478	148,521	-0,045199	22,680000	51,845000
3,787659	225,823944	148,821	-0,046231	22,680000	51,845000
3,781697	222,201093	149,122	-0,047673	22,680000	51,845000
3,775729	218,145169	149,422	-0,049287	22,680000	51,845000
3,769663	213,989871	149,722	-0,050941	22,680000	51,845000
3,763723	210,565768	150,024	-0,052304	22,680000	51,845000
3,757734	207,391940	150,324	-0,053567	22,680000	51,860000
3,751734	204,100336	150,625	-0,054877	22,680000	51,860000
3,745720	199,554903	150,925	-0,056686	22,680000	51,860000
3,739809	196,089088	151,225	-0,058065	22,680000	51,860000
3,733700	192,249087	151,526	-0,059594	22,680000	51,860000
3,727745	188,326888	151,828	-0,061155	22,680000	51,860000
3,721714	185,360396	152,128	-0,062335	22,680000	51,845000
3,715692	181,661481	152,430	-0,063808	22,680000	51,845000
3,709727	177,971155	152,730	-0,065276	22,680000	51,845000
3,703727	173,841620	153,031	-0,066920	22,680000	51,845000
3,697663	170,683741	153,331	-0,068177	22,680000	51,845000
3,691699	166,876865	153,632	-0,069692	22,680000	51,845000
3,685708	163,419637	153,932	-0,071068	22,680000	51,845000
3,679708	159,730537	154,232	-0,072536	22,680000	51,845000
3,673691	155,965374	154,532	-0,074035	22,680000	51,845000
3,667764	152,142549	154,834	-0,075556	22,680000	51,845000
3,661744	148,585947	155,135	-0,076972	22,680000	51,845000
3,655752	145,028119	155,436	-0,078388	22,680000	51,845000
3,649687	139,917115	155,736	-0,080422	22,680000	51,845000
3,643739	137,930865	156,036	-0,081212	22,680000	51,845000
3,637694	133,219810	156,338	-0,083087	22,680000	51,845000
3,631735	130,393177	156,638	-0,084212	22,680000	51,845000
3,625755	125,831796	156,939	-0,086028	22,680000	51,845000
3,619752	122,331629	157,239	-0,087421	22,680000	51,845000
3,613741	119,215462	157,542	-0,088661	22,680000	51,845000
3,607742	114,544892	157,844	-0,090520	22,680000	51,845000
3,601688	112,210221	158,145	-0,091449	22,690000	51,845000
3,595692	108,918617	158,446	-0,092759	22,690000	51,845000
3,589759	103,816200	158,746	-0,094790	22,690000	51,845000
3,583816	100,309899	159,048	-0,096186	22,690000	51,845000
3,577776	97,915113	159,348	-0,097139	22,690000	51,845000
3,571752	94,899547	159,651	-0,098339	22,690000	51,845000
3,565721	91,682779	159,951	-0,099619	22,690000	51,845000
3,559793	87,801066	160,253	-0,101164	22,680000	51,870000
3,553697	84,270228	160,555	-0,102569	22,680000	51,870000
3,547724	79,906368	160,856	-0,104306	22,680000	51,870000
3,541732	77,504220	161,156	-0,105262	22,680000	51,870000
3,535777	73,299849	161,457	-0,106936	22,680000	51,870000
3,529821	70,498979	161,758	-0,108050	22,680000	51,870000
3,523737	66,766940	162,059	-0,109536	22,690000	51,870000
3,517721	63,883872	162,362	-0,110683	22,690000	51,870000
3,511722	60,875667	162,663	-0,111880	22,690000	51,870000
3,505717	57,891999	162,963	-0,113068	22,690000	51,870000
3,499743	53,179717	163,264	-0,114943	22,690000	51,870000
3,493681	50,312598	163,567	-0,116084	22,690000	51,870000
3,487787	47,220968	163,868	-0,117315	22,690000	51,870000
3,481726	45,010207	164,168	-0,118195	22,690000	51,870000
3,475774	41,918577	164,469	-0,119425	22,690000	51,870000
3,469810	37,406270	164,770	-0,121221	22,690000	51,870000
3,463727	34,763662	165,073	-0,122273	22,690000	51,870000
3,457790	30,699150	165,373	-0,123891	22,690000	51,870000
3,451751	28,007469	165,673	-0,124962	22,690000	51,870000
3,445738	24,665564	165,977	-0,126292	22,690000	51,870000
3,439756	21,557985	166,278	-0,127529	22,680000	51,860000
3,433772	17,959671	166,579	-0,128961	22,680000	51,860000
3,427790	14,610406	166,881	-0,130294	22,680000	51,860000
3,421778	11,285676	167,182	-0,131617	22,680000	51,860000
3,415710	6,432308	167,483	-0,133549	22,680000	51,860000
3,409800	4,787119	167,784	-0,134204	22,680000	51,860000
3,403746	1,338480	168,085	-0,135576	22,680000	51,860000
3,397792	-3,349266	168,386	-0,137442	22,680000	51,860000
3,391742	-6,972116	168,686	-0,138884	22,680000	51,860000
3,385759	-8,568232	168,986	-0,139519	22,680000	51,860000
3,379710	-13,405651	169,288	-0,141444	22,680000	51,860000
3,373755	-16,696029	169,588	-0,142754	22,680000	51,860000
3,367781	-18,490892	169,889	-0,143468	22,680000	51,860000
3,361856	-22,679315	170,189	-0,145135	22,680000	51,830000
3,355715	-26,651814	170,489	-0,146716	22,680000	51,830000
3,349795	-29,402383	170,789	-0,147811	22,680000	51,830000
3,343755	-31,738281	171,091	-0,148741	22,680000	51,830000
3,337774	-35,411432	171,391	-0,150203	22,680000	51,830000
3,331737	-38,245426	171,693	-0,151331	22,680000	51,830000
3,325794	-42,616648	171,995	-0,153070	22,680000	51,830000
3,319764	-44,561185	172,296	-0,153844	22,690000	51,845000
3,313754	-47,611102	172,596	-0,155058	22,690000	51,845000
3,307796	-50,661020	172,897	-0,156272	22,690000	51,845000
3,301800	-53,520778	173,198	-0,157410	22,690000	51,845000
3,295776	-56,454146	173,499	-0,158578	22,690000	51,845000
3,289776	-59,645150	173,799	-0,159848	22,690000	51,845000
3,283742	-63,758735	174,099	-0,161485	22,690000	51,845000
3,277767	-65,579362	174,400	-0,162209	22,690000	51,845000
3,271810	-68,246506	174,701	-0,163271	22,690000	51,845000
3,265865	-71,188462	175,001	-0,164442	22,690000	51,845000
3,259764	-74,363517	175,302	-0,165706	22,690000	51,845000
3,253770	-76,341179	175,604	-0,166493	22,690000	51,845000
3,247811	-79,474521	175,904	-0,167740	22,690000	51,845000
3,241787	-81,917154	176,205	-0,168712	22,680000	51,870000
3,235793	-84,851749	176,505	-0,169880	22,680000	51,870000
3,229773	-86,371800	176,805	-0,170485	22,680000	51,870000
3,223851	-88,690523	177,106	-0,171408	22,680000	51,870000
3,217794	-90,852210	177,406	-0,172268	22,680000	51,870000
3,211803	-92,796747	177,706	-0,173042	22,680000	51,870000
3,205836	-93,220006	178,006	-0,173210	22,680000	51,870000
3,199815	-95,164543	178,307	-0,173984	22,680000	51,845000
3,193775	-96,668646	178,608	-0,174583	22,680000	51,845000
3,187786	-98,746908	178,909	-0,175410	22,680000	51,845000
3,181809	-100,374921	179,212	-0,176058	22,680000	51,845000
3,175806	-102,470360	179,512	-0,176892	22,680000	51,845000
3,169800	-106,815817	179,814	-0,178622	22,680000	51,845000
3,163832	-109,350463	180,115	-0,179630	22,680000	51,870000
3,157818	-110,963754	180,417	-0,180272	22,680000	51,870000
3,151834	-113,855410	180,719	-0,181423	22,680000	51,870000
3,145827	-117,578861	181,020	-0,182905	22,680000	51,870000
3,139851	-119,996957	181,323	-0,183868	22,680000	51,870000
3,133797	-123,370760	181,624	-0,185210	22,680000	51,870000
3,127796	-125,515272	181,924	-0,186064	22,680000	51,870000
3,121788	-129,595733	182,226	-0,187688	22,680000	51,860000
3,115766	-131,515733	182,527	-0,188452	22,680000	51,860000
3,109757	-134,050379	182,828	-0,189461	22,680000	51,860000
3,103791	-136,891734	183,128	-0,190592	22,680000	51,860000
3,097808	-141,154994	183,429	-0,192289	22,680000	51,860000
3,091772	-143,922739	183,730	-0,193390	22,680000	51,860000
3,085881	-145,353231	184,031	-0,193959	22,680000	51,860000
3,079814	-149,648388	184,332	-0,195669	22,680000	51,870000
3,073829	-152,708121	184,633	-0,196887	22,680000	51,870000
3,067877	-154,269885	184,933	-0,197508	22,680000	51,870000
3,061809	-158,841080	185,234	-0,199328	22,680000	51,870000
3,055829	-160,037247	185,534	-0,199804	22,680000	51,870000
3,049837	-164,242845	185,834	-0,201478	22,680000	51,870000
3,043794	-165,863497	186,135	-0,202123	22,680000	51,870000
3,037838	-168,821402	186,436	-0,203300	22,680000	51,870000
3,031822	-172,379230	186,736	-0,204716	22,680000	51,870000
3,025822	-175,810694	187,038	-0,206082	22,680000	51,870000
3,019850	-178,411589	187,338	-0,207117	22,680000	51,870000
3,013852	-180,639526	187,639	-0,208003	22,680000	51,870000
3,007854	-183,414632	187,940	-0,209108	22,680000	51,870000
3,001811	-186,083003	188,241	-0,210170	22,690000	51,860000
2,995839	-188,842160	188,543	-0,211268	22,690000	51,860000
2,989857	-191,326506	188,844	-0,212257	22,690000	51,860000
2,983849	-194,028001	189,144	-0,213332	22,690000	51,860000
2,977853	-196,545471	189,444	-0,214334	22,690000	51,860000
2,971879	-199,504603	189,744	-0,215512	22,690000	51,860000
2,965844	-201,316642	190,044	-0,216233	22,690000	51,860000
2,959821	-204,565307	190,345	-0,217526	22,680000	51,845000
2,953826	-208,480145	190,645	-0,219084	22,680000	51,845000
2,947891	-209,968299	190,945	-0,219676	22,680000	51,845000
2,941830	-212,444056	191,246	-0,220662	22,680000	51,845000
2,935860	-216,259520	191,547	-0,222180	22,680000	51,845000
2,929857	-217,048377	191,847	-0,222494	22,680000	51,845000
2,923868	-219,384275	192,148	-0,223424	22,680000	51,860000
2,917836	-222,832915	192,450	-0,224796	22,680000	51,860000
2,911905	-224,594653	192,751	-0,225498	22,680000	51,860000
2,905872	-225,924545	193,051	-0,226027	22,680000	51,860000
2,899833	-225,010551	193,352	-0,225663	22,680000	51,860000
2,893878	-177,323385	193,653	-0,206684	22,680000	51,860000
2,887844	-159,621349	193,953	-0,199638	22,680000	51,860000
2,881863	-155,084505	194,253	-0,197833	22,680000	51,860000
2,875829	-153,646651	194,554	-0,197260	22,680000	51,860000
2,869865	-152,308172	194,855	-0,196728	22,680000	51,860000
2,863790	-152,408772	195,155	-0,196768	22,680000	51,860000
2,857868	-152,598932	195,455	-0,196843	22,680000	51,860000
2,851881	-153,272466	195,755	-0,197111	22,680000	51,860000
2,845808	-154,701731	196,055	-0,197680	22,690000	51,885000
2,839871	-155,034204	196,355	-0,197813	22,690000	51,885000
2,833862	-156,106460	196,657	-0,198239	22,690000	51,885000
2,827806	-155,832875	196,959	-0,198130	22,690000	51,885000
2,821842	-155,142166	197,259	-0,197855	22,690000	51,885000
2,815850	-155,674613	197,560	-0,198067	22,690000	51,885000
2,809837	-154,560645	197,860	-0,197624	22,690000	51,885000
2,803841	-153,397603	198,161	-0,197161	22,680000	51,845000
2,797855	-151,211379	198,461	-0,196291	22,680000	51,845000
2,791799	-145,983825	198,763	-0,194210	22,680000	51,845000
2,785866	-137,183721	199,065	-0,190708	22,680000	51,845000
2,779899	-128,432691	199,365	-0,187225	22,680000	51,845000
2,773836	-118,467091	199,666	-0,183259	22,680000	51,845000
2,767857	-0,506684	199,968	-0,136311	22,680000	51,845000
2,761858	-0,590109	200,268	-0,136344	22,680000	51,845000
2,755850	-0,390134	200,571	-0,136264	22,680000	51,845000
2,749909	-0,374185	200,871	-0,136258	22,680000	51,845000
2,743865	-0,565572	201,171	-0,136334	22,680000	51,845000
2,737883	-0,623233	201,473	-0,136357	22,680000	51,845000
2,731878	-0,341061	201,773	-0,136245	22,680000	51,845000
2,725857	-0,349649	202,073	-0,136248	22,680000	51,845000
2,719838	-0,307936	202,374	-0,136231	22,680000	51,845000
2,713829	-0,290760	202,675	-0,136225	22,680000	51,845000
2,707855	-0,191387	202,977	-0,136185	22,680000	51,845000
2,701827	-0,191387	203,277	-0,136185	22,680000	51,845000
2,695873	-0,090786	203,578	-0,136145	22,680000	51,845000
2,689874	-0,240460	203,878	-0,136205	22,680000	51,845000
2,683826	-0,224511	204,178	-0,136198	22,690000	51,870000
2,677869	0,033125	204,480	-0,136096	22,690000	51,870000
2,671882	-0,182799	204,781	-0,136182	22,690000	51,870000
2,665855	-0,365598	205,081	-0,136254	22,690000	51,870000
2,659788	0,116550	205,382	-0,136063	22,690000	51,870000
2,653843	-0,099374	205,682	-0,136148	22,690000	51,870000
2,647860	0,074837	205,982	-0,136079	22,690000	51,870000
2,641910	-0,440435	206,282	-0,136284	22,690000	51,845000
2,635868	-0,174211	206,583	-0,136178	22,690000	51,845000
2,629833	-0,107962	206,883	-0,136152	22,690000	51,845000
2,623896	-0,008588	207,183	-0,136112	22,690000	51,845000
2,617889	-0,116550	207,483	-0,136155	22,690000	51,845000
2,611916	-0,116550	207,785	-0,136155	22,690000	51,845000
2,605919	-0,149674	208,086	-0,136168	22,690000	51,845000
2,599886	0,041712	208,386	-0,136092	22,690000	51,845000
2,593886	0,290760	208,687	-0,135993	22,690000	51,845000
2,587833	0,041712	208,987	-0,136092	22,690000	51,845000
2,581903	0,024537	209,288	-0,136099	22,690000	51,845000
2,575857	-0,199974	209,589	-0,136188	22,690000	51,845000
2,569857	0,008588	209,892	-0,136105	22,690000	51,845000
2,563862	0,024537	210,193	-0,136099	22,660000	51,840000
2,557848	0,182799	210,493	-0,136036	22,660000	51,840000
2,551838	0,066249	210,795	-0,136083	22,660000	51,840000