File: Nanoindentation Datenauswertung/data/PDMS/EM-PDMS-120-10-120-1,2um-1
Quasi static measurement routine
Tip parameters (shape,radius, material...)
26.08.2022

Piezo position[nm]	MEMS displ.[nm]	Time[ms]	Cap [pf]	Temp [°C]	Rh [%]
eoh
1,834074	0,050300	0,160	-0,135050	22,730000	57,755000
1,837093	-0,050300	0,461	-0,135090	22,730000	57,755000
1,840106	-0,149674	0,761	-0,135130	22,730000	57,755000
1,843044	0,058888	1,062	-0,135047	22,740000	57,730000
1,846017	0,050300	1,363	-0,135050	22,740000	57,730000
1,849033	-0,249048	1,664	-0,135169	22,740000	57,730000
1,852081	-0,024537	1,964	-0,135080	22,740000	57,730000
1,855055	0,008588	2,266	-0,135067	22,740000	57,730000
1,858060	-0,132498	2,567	-0,135123	22,740000	57,730000
1,861076	-0,099374	2,867	-0,135110	22,730000	57,770000
1,864047	-0,107962	3,168	-0,135113	22,730000	57,770000
1,867078	0,017176	3,469	-0,135063	22,730000	57,770000
1,870035	0,000000	3,770	-0,135070	22,730000	57,770000
1,873102	-0,123911	4,071	-0,135120	22,730000	57,770000
1,876047	0,000000	4,372	-0,135070	22,730000	57,770000
1,879072	-0,008588	4,672	-0,135074	22,730000	57,770000
1,882063	-0,215923	4,973	-0,135156	22,730000	57,770000
1,885091	-0,116550	5,274	-0,135117	22,730000	57,770000
1,888071	-0,207336	5,574	-0,135153	22,730000	57,770000
1,891047	-0,224511	5,875	-0,135160	22,730000	57,770000
1,894036	-0,083425	6,175	-0,135104	22,730000	57,770000
1,897048	-0,041712	6,475	-0,135087	22,730000	57,770000
1,900057	-0,033125	6,775	-0,135083	22,730000	57,770000
1,903077	0,083425	7,077	-0,135037	22,730000	57,795000
1,906043	-0,141086	7,378	-0,135126	22,730000	57,795000
1,909017	0,033125	7,678	-0,135057	22,730000	57,795000
1,912034	-0,116550	7,979	-0,135117	22,730000	57,795000
1,915087	-0,123911	8,280	-0,135120	22,730000	57,795000
1,918078	-0,116550	8,580	-0,135117	22,730000	57,795000
1,921085	0,017176	8,881	-0,135063	22,730000	57,770000
1,924018	-0,149674	9,182	-0,135130	22,730000	57,770000
1,927081	0,141086	9,483	-0,135014	22,730000	57,770000
1,930051	-0,233099	9,783	-0,135163	22,730000	57,770000
1,933005	-0,141086	10,086	-0,135126	22,730000	57,770000
1,936027	-0,083425	10,387	-0,135104	22,730000	57,770000
1,938984	0,008588	10,687	-0,135067	22,730000	57,770000
1,942034	-0,092013	10,990	-0,135107	22,730000	57,770000
1,945057	-0,341061	11,291	-0,135206	22,730000	57,770000
1,948088	-0,191387	11,592	-0,135146	22,730000	57,770000
1,951043	0,000000	11,894	-0,135070	22,730000	57,770000
1,954040	0,008588	12,194	-0,135067	22,730000	57,770000
1,957076	-0,174211	12,497	-0,135140	22,730000	57,770000
1,959964	-0,299348	12,798	-0,135189	22,730000	57,770000
1,963135	-0,132498	13,098	-0,135123	22,730000	57,755000
1,966111	-0,191387	13,399	-0,135146	22,730000	57,755000
1,969046	-0,215923	13,700	-0,135156	22,730000	57,755000
1,972036	-0,165623	14,002	-0,135136	22,730000	57,755000
1,974990	-0,240460	14,303	-0,135166	22,730000	57,755000
1,978056	-0,233099	14,603	-0,135163	22,730000	57,755000
1,981028	-0,182799	14,904	-0,135143	22,730000	57,780000
1,984047	-0,290760	15,205	-0,135186	22,730000	57,780000
1,987037	-0,141086	15,506	-0,135126	22,730000	57,780000
1,990069	-0,165623	15,806	-0,135136	22,730000	57,780000
1,993079	-0,307936	16,107	-0,135193	22,730000	57,780000
1,996072	-0,282173	16,407	-0,135183	22,730000	57,780000
1,999053	-0,307936	16,707	-0,135193	22,730000	57,780000
2,002078	-0,415898	17,007	-0,135236	22,730000	57,770000
2,005020	0,058888	17,307	-0,135047	22,730000	57,770000
2,008031	-0,357010	17,608	-0,135212	22,730000	57,770000
2,011015	-0,323885	17,908	-0,135199	22,730000	57,770000
2,014096	-0,415898	18,208	-0,135236	22,730000	57,770000
2,017052	-0,431847	18,508	-0,135242	22,730000	57,770000
2,020089	-0,290760	18,810	-0,135186	22,730000	57,770000
2,023050	-0,332473	19,112	-0,135203	22,730000	57,770000
2,026017	-0,274812	19,412	-0,135180	22,730000	57,770000
2,029102	-0,282173	19,713	-0,135183	22,730000	57,770000
2,032047	-0,257636	20,013	-0,135173	22,730000	57,770000
2,035022	-0,381546	20,313	-0,135222	22,730000	57,770000
2,038057	-0,739783	20,615	-0,135365	22,730000	57,770000
2,041059	-0,057661	20,915	-0,135093	22,710000	57,750000
2,044028	-0,423259	21,215	-0,135239	22,710000	57,750000
2,047065	-0,266224	21,517	-0,135176	22,710000	57,750000
2,050012	-0,266224	21,817	-0,135176	22,710000	57,750000
2,053057	-0,323885	22,117	-0,135199	22,710000	57,750000
2,055994	-0,233099	22,417	-0,135163	22,710000	57,750000
2,059013	-0,249048	22,719	-0,135169	22,710000	57,750000
2,062012	-0,041712	23,020	-0,135087	22,730000	57,740000
2,065032	-0,407310	23,322	-0,135232	22,730000	57,740000
2,068006	-0,299348	23,623	-0,135189	22,730000	57,740000
2,071061	-0,590109	23,923	-0,135305	22,730000	57,740000
2,074022	-0,374185	24,225	-0,135219	22,730000	57,740000
2,077020	-0,398722	24,526	-0,135229	22,730000	57,740000
2,080031	-0,290760	24,826	-0,135186	22,720000	57,765000
2,083064	-0,407310	25,127	-0,135232	22,720000	57,765000
2,086107	-0,680895	25,427	-0,135341	22,720000	57,765000
2,089065	-0,341061	25,728	-0,135206	22,720000	57,765000
2,092058	0,241687	26,028	-0,134974	22,720000	57,765000
2,095045	-0,473559	26,328	-0,135259	22,720000	57,765000
2,098024	-0,374185	26,628	-0,135219	22,720000	57,765000
2,101048	-0,482147	26,928	-0,135262	22,720000	57,765000
2,104130	-0,282173	27,229	-0,135183	22,720000	57,765000
2,107035	-0,806032	27,529	-0,135391	22,720000	57,765000
2,110091	-0,464971	27,829	-0,135255	22,720000	57,765000
2,113063	-0,381546	28,131	-0,135222	22,720000	57,765000
2,116030	-0,307936	28,432	-0,135193	22,720000	57,765000
2,119102	-0,689483	28,732	-0,135345	22,720000	57,765000
2,122063	-0,755732	29,034	-0,135371	22,720000	57,750000
2,125024	-0,341061	29,334	-0,135206	22,720000	57,750000
2,128033	-0,572933	29,635	-0,135298	22,720000	57,750000
2,131029	-0,656358	29,936	-0,135332	22,720000	57,750000
2,134066	-0,456383	30,236	-0,135252	22,720000	57,750000
2,137038	-0,341061	30,537	-0,135206	22,720000	57,750000
2,140077	-0,440435	30,838	-0,135246	22,720000	57,750000
2,143042	-0,614645	31,139	-0,135315	22,720000	57,750000
2,145993	-0,572933	31,440	-0,135298	22,720000	57,750000
2,149004	-0,664946	31,743	-0,135335	22,720000	57,750000
2,152073	-0,572933	32,044	-0,135298	22,720000	57,750000
2,155060	-0,656358	32,344	-0,135332	22,720000	57,750000
2,158023	-0,498096	32,646	-0,135269	22,720000	57,750000
2,161007	-0,165623	32,948	-0,135136	22,730000	57,755000
2,164003	-0,523860	33,248	-0,135279	22,730000	57,755000
2,167004	-0,473559	33,548	-0,135259	22,730000	57,755000
2,170069	-0,606058	33,848	-0,135312	22,730000	57,755000
2,173040	-0,407310	34,148	-0,135232	22,730000	57,755000
2,176037	-0,664946	34,448	-0,135335	22,730000	57,755000
2,178994	-0,548396	34,749	-0,135289	22,730000	57,755000
2,181994	-0,532447	35,050	-0,135282	22,740000	57,715000
2,185047	-0,631821	35,350	-0,135322	22,740000	57,715000
2,188050	-0,572933	35,651	-0,135298	22,740000	57,715000
2,191084	-0,456383	35,951	-0,135252	22,740000	57,715000
2,194081	-0,764320	36,251	-0,135375	22,740000	57,715000
2,196982	-0,673534	36,551	-0,135338	22,740000	57,715000
2,200022	-0,797444	36,852	-0,135388	22,720000	57,735000
2,203040	-0,572933	37,153	-0,135298	22,720000	57,735000
2,206011	-0,464971	37,453	-0,135255	22,720000	57,735000
2,209015	-0,490735	37,753	-0,135266	22,720000	57,735000
2,212080	-0,515272	38,053	-0,135275	22,720000	57,735000
2,215044	-0,814620	38,354	-0,135395	22,720000	57,735000
2,218026	-0,689483	38,655	-0,135345	22,720000	57,735000
2,221078	-0,781495	38,955	-0,135381	22,720000	57,735000
2,224049	-0,647770	39,255	-0,135328	22,720000	57,735000
2,227016	-0,506684	39,556	-0,135272	22,720000	57,735000
2,230027	-0,839157	39,856	-0,135404	22,720000	57,735000
2,233019	-0,748371	40,156	-0,135368	22,720000	57,735000
2,236065	-0,880869	40,456	-0,135421	22,720000	57,735000
2,238977	-0,523860	40,756	-0,135279	22,720000	57,735000
2,241995	-0,781495	41,057	-0,135381	22,730000	57,770000
2,245026	-0,623233	41,357	-0,135318	22,730000	57,770000
2,248037	-0,839157	41,657	-0,135404	22,730000	57,770000
2,251071	-0,739783	41,957	-0,135365	22,730000	57,770000
2,253957	-0,748371	42,257	-0,135368	22,730000	57,770000
2,257044	-1,013368	42,557	-0,135474	22,730000	57,770000
2,260053	-0,581521	42,857	-0,135302	22,710000	57,725000
2,263032	-0,456383	43,157	-0,135252	22,710000	57,725000
2,266024	-0,532447	43,457	-0,135282	22,710000	57,725000
2,269021	-0,680895	43,757	-0,135341	22,710000	57,725000
2,272016	-0,764320	44,057	-0,135375	22,710000	57,725000
2,275024	-0,706658	44,358	-0,135352	22,710000	57,725000
2,278087	-0,856332	44,659	-0,135411	22,710000	57,725000
2,281065	-0,931170	44,960	-0,135441	22,740000	57,740000
2,284017	-0,772908	45,260	-0,135378	22,740000	57,740000
2,287053	-1,096793	45,561	-0,135507	22,740000	57,740000
2,290016	-0,872281	45,861	-0,135417	22,740000	57,740000
2,293037	-1,039131	46,161	-0,135484	22,740000	57,740000
2,296020	-0,997419	46,462	-0,135467	22,740000	57,740000
2,299059	-0,988831	46,762	-0,135464	22,740000	57,740000
2,302015	-0,856332	47,064	-0,135411	22,740000	57,740000
2,305047	-1,039131	47,364	-0,135484	22,740000	57,740000
2,307996	-1,039131	47,664	-0,135484	22,740000	57,740000
2,311037	-1,520051	47,964	-0,135675	22,740000	57,740000
2,314103	-1,262416	48,265	-0,135573	22,740000	57,740000
2,317058	-0,972882	48,565	-0,135458	22,740000	57,740000
2,319972	-1,213342	48,865	-0,135553	22,720000	57,750000
2,323001	-1,237879	49,165	-0,135563	22,720000	57,750000
2,326084	-1,387553	49,465	-0,135623	22,720000	57,750000
2,329041	-1,296767	49,766	-0,135586	22,720000	57,750000
2,332054	-1,653777	50,066	-0,135729	22,720000	57,750000
2,335074	-1,554403	50,367	-0,135689	22,720000	57,750000
2,338014	-70,432730	50,669	-0,163103	22,720000	57,750000
2,341069	-72,326967	50,971	-0,163856	22,730000	57,715000
2,344039	-72,311018	51,271	-0,163850	22,730000	57,715000
2,347086	-72,152756	51,571	-0,163787	22,730000	57,715000
2,350080	-71,487810	51,871	-0,163522	22,730000	57,715000
2,353015	-71,179874	52,171	-0,163400	22,730000	57,715000
2,356033	-70,598353	52,472	-0,163168	22,730000	57,715000
2,359031	-70,025420	52,772	-0,162940	22,730000	57,715000
2,362005	-69,210800	53,072	-0,162616	22,730000	57,715000
2,364999	-68,529905	53,373	-0,162345	22,730000	57,715000
2,368009	-67,548436	53,675	-0,161955	22,730000	57,715000
2,371029	-66,858953	53,977	-0,161680	22,730000	57,715000
2,374017	-65,828410	54,278	-0,161270	22,730000	57,715000
2,377041	-64,631016	54,580	-0,160793	22,730000	57,715000
2,380028	-63,833572	54,882	-0,160476	22,730000	57,730000
2,383044	-62,695067	55,182	-0,160023	22,730000	57,730000
2,385985	-61,332051	55,484	-0,159480	22,730000	57,730000
2,389032	-60,426645	55,786	-0,159120	22,730000	57,730000
2,392056	-58,913955	56,087	-0,158518	22,730000	57,730000
2,395042	-58,123871	56,388	-0,158204	22,730000	57,730000
2,398057	-56,370721	56,689	-0,157506	22,730000	57,730000
2,401044	-55,689826	56,990	-0,157235	22,720000	57,765000
2,404080	-54,716944	57,291	-0,156848	22,720000	57,765000
2,407067	-53,071755	57,591	-0,156193	22,720000	57,765000
2,410054	-51,891538	57,891	-0,155723	22,720000	57,765000
2,413116	-51,310017	58,191	-0,155492	22,720000	57,765000
2,416009	-50,154336	58,491	-0,155032	22,720000	57,765000
2,419035	-49,033007	58,793	-0,154585	22,720000	57,765000
2,422051	-48,101837	59,095	-0,154215	22,720000	57,765000
2,425038	-46,863958	59,396	-0,153722	22,720000	57,765000
2,428044	-45,915613	59,697	-0,153345	22,720000	57,765000
2,431064	-44,910833	59,999	-0,152945	22,720000	57,765000
2,434019	-43,671728	60,300	-0,152452	22,720000	57,765000
2,437041	-42,517274	60,602	-0,151992	22,720000	57,765000
2,440050	-41,070833	60,903	-0,151417	22,730000	57,730000
2,443063	-40,638986	61,204	-0,151245	22,730000	57,730000
2,446019	-39,110347	61,505	-0,150636	22,730000	57,730000
2,449070	-38,236838	61,805	-0,150289	22,730000	57,730000
2,452014	-36,757273	62,105	-0,149700	22,730000	57,730000
2,455038	-35,726729	62,406	-0,149290	22,730000	57,730000
2,458054	-34,380889	62,706	-0,148754	22,730000	57,730000
2,461084	-32,901323	63,007	-0,148165	22,730000	57,730000
2,464002	-32,195892	63,308	-0,147884	22,730000	57,730000
2,467077	-30,864773	63,608	-0,147354	22,730000	57,730000
2,470051	-29,677195	63,908	-0,146882	22,730000	57,730000
2,473060	-28,928824	64,208	-0,146584	22,730000	57,730000
2,476100	-27,616108	64,510	-0,146062	22,730000	57,730000
2,479061	-26,635865	64,810	-0,145671	22,730000	57,730000
2,482015	-25,114587	65,111	-0,145066	22,730000	57,730000
2,485017	-23,967494	65,413	-0,144609	22,730000	57,730000
2,488025	-23,011787	65,713	-0,144229	22,730000	57,730000
2,491063	-21,408311	66,014	-0,143591	22,730000	57,730000
2,494048	-20,426841	66,314	-0,143200	22,730000	57,730000
2,497023	-19,014751	66,614	-0,142638	22,730000	57,730000
2,500058	-17,900783	66,914	-0,142195	22,720000	57,725000
2,503037	-16,786815	67,216	-0,141751	22,720000	57,725000
2,506032	-15,748911	67,517	-0,141338	22,720000	57,725000
2,509050	-14,469319	67,817	-0,140829	22,720000	57,725000
2,512064	-12,657281	68,117	-0,140108	22,720000	57,725000
2,514994	-11,593613	68,418	-0,139685	22,720000	57,725000
2,518040	-9,772986	68,718	-0,138960	22,720000	57,725000
2,521033	-9,017254	69,018	-0,138659	22,730000	57,755000
2,523987	-7,911874	69,318	-0,138219	22,730000	57,755000
2,527037	-6,049535	69,619	-0,137478	22,730000	57,755000
2,530046	-5,152717	69,921	-0,137121	22,730000	57,755000
2,533025	-4,063285	70,221	-0,136687	22,730000	57,755000
2,535967	-2,252473	70,521	-0,135967	22,730000	57,755000
2,539021	-1,387553	70,821	-0,135623	22,730000	57,755000
2,542042	0,274812	71,122	-0,134961	22,730000	57,755000
2,545083	1,321304	71,424	-0,134544	22,730000	57,755000
2,548013	2,626659	71,725	-0,134025	22,730000	57,755000
2,551061	3,989675	72,026	-0,133482	22,730000	57,755000
2,554025	5,368640	72,328	-0,132934	22,730000	57,755000
2,557090	6,615107	72,629	-0,132438	22,730000	57,755000
2,559999	7,837037	72,930	-0,131951	22,730000	57,700000
2,563055	9,108040	73,231	-0,131445	22,730000	57,700000
2,566084	11,095517	73,531	-0,130654	22,730000	57,700000
2,569070	12,532143	73,832	-0,130083	22,730000	57,700000
2,572034	13,289102	74,132	-0,129781	22,730000	57,700000
2,575011	14,984591	74,434	-0,129106	22,730000	57,700000
2,578050	16,513230	74,734	-0,128498	22,730000	57,700000
2,581021	18,025921	75,034	-0,127896	22,730000	57,740000
2,584013	18,649154	75,334	-0,127648	22,730000	57,740000
2,586984	19,530023	75,634	-0,127297	22,730000	57,740000
2,589980	20,710241	75,934	-0,126828	22,730000	57,740000
2,593036	22,936950	76,235	-0,125941	22,730000	57,740000
2,596053	23,211762	76,535	-0,125832	22,730000	57,740000
2,598937	25,638446	76,835	-0,124866	22,730000	57,755000
2,602022	26,261679	77,135	-0,124618	22,730000	57,755000
2,605057	27,159724	77,436	-0,124261	22,730000	57,755000
2,607981	28,281054	77,736	-0,123814	22,730000	57,755000
2,611059	29,668607	78,036	-0,123262	22,730000	57,755000
2,613993	31,456109	78,336	-0,122551	22,730000	57,755000
2,617059	32,943035	78,636	-0,121959	22,730000	57,755000
2,620015	33,774831	78,937	-0,121628	22,730000	57,740000
2,623059	35,378308	79,238	-0,120990	22,730000	57,740000
2,625990	36,525400	79,538	-0,120533	22,730000	57,740000
2,629062	38,187765	79,840	-0,119872	22,730000	57,740000
2,632035	39,782654	80,140	-0,119237	22,730000	57,740000
2,635012	40,331050	80,440	-0,119019	22,730000	57,740000
2,638008	41,211919	80,740	-0,118668	22,730000	57,740000
2,640985	43,115970	81,041	-0,117910	22,730000	57,740000
2,643965	32,029042	81,341	-0,122323	22,730000	57,740000
2,647023	15,690022	81,642	-0,128826	22,730000	57,740000
2,650002	16,206521	81,942	-0,128620	22,730000	57,740000
2,653049	16,729154	82,242	-0,128412	22,730000	57,740000
2,655992	18,175595	82,543	-0,127836	22,730000	57,740000
2,659069	20,336055	82,845	-0,126977	22,730000	57,730000
2,662005	21,267225	83,146	-0,126606	22,730000	57,730000
2,665081	23,062088	83,447	-0,125892	22,730000	57,730000
2,668030	24,334318	83,748	-0,125385	22,730000	57,730000
2,670986	25,189424	84,048	-0,125045	22,730000	57,730000
2,673976	25,854370	84,349	-0,124780	22,730000	57,730000
2,676999	27,076299	84,650	-0,124294	22,730000	57,730000
2,680037	28,082306	84,951	-0,123894	22,730000	57,730000
2,683023	29,626894	85,252	-0,123279	22,730000	57,730000
2,685989	30,366677	85,553	-0,122984	22,730000	57,730000
2,689032	31,430345	85,853	-0,122561	22,730000	57,730000
2,692023	32,411815	86,153	-0,122170	22,730000	57,730000
2,695038	33,475483	86,453	-0,121747	22,730000	57,730000
2,697984	34,622576	86,756	-0,121291	22,730000	57,730000
2,701039	35,578282	87,056	-0,120910	22,730000	57,700000
2,704002	36,849285	87,357	-0,120404	22,730000	57,700000
2,707018	37,688442	87,658	-0,120070	22,730000	57,700000
2,709965	38,910372	87,960	-0,119584	22,730000	57,700000
2,713015	40,863497	88,261	-0,118807	22,730000	57,700000
2,716002	41,836379	88,563	-0,118419	22,730000	57,700000
2,719021	42,501325	88,864	-0,118155	22,730000	57,740000
2,722050	43,439856	89,165	-0,117781	22,730000	57,740000
2,725038	45,492354	89,466	-0,116964	22,730000	57,740000
2,728030	45,608904	89,766	-0,116918	22,730000	57,740000
2,731008	47,171895	90,068	-0,116296	22,730000	57,740000
2,734002	48,907869	90,369	-0,115605	22,730000	57,740000
2,736997	49,614528	90,670	-0,115324	22,730000	57,740000
2,740007	50,869582	90,971	-0,114824	22,730000	57,770000
2,743035	51,700151	91,272	-0,114494	22,730000	57,770000
2,745965	52,888957	91,573	-0,114021	22,730000	57,770000
2,749011	54,850669	91,874	-0,113240	22,730000	57,770000
2,751998	55,672650	92,174	-0,112913	22,730000	57,770000
2,755041	56,579283	92,475	-0,112552	22,730000	57,770000
2,758039	58,407271	92,776	-0,111824	22,730000	57,770000
2,760963	59,861073	93,076	-0,111246	22,730000	57,770000
2,763987	61,291565	93,377	-0,110676	22,730000	57,770000
2,767006	62,712243	93,677	-0,110111	22,730000	57,770000
2,770009	64,498518	93,979	-0,109400	22,730000	57,770000
2,773038	66,709279	94,279	-0,108520	22,730000	57,770000
2,776043	67,947158	94,580	-0,108027	22,730000	57,770000
2,779011	69,252513	94,881	-0,107508	22,730000	57,740000
2,782000	70,681778	95,181	-0,106939	22,730000	57,740000
2,785020	72,460692	95,482	-0,106231	22,730000	57,740000
2,787985	74,770827	95,782	-0,105312	22,730000	57,740000
2,791008	76,151019	96,082	-0,104762	22,730000	57,740000
2,793992	77,538572	96,382	-0,104210	22,730000	57,740000
2,796984	79,499058	96,682	-0,103430	22,730000	57,740000
2,799974	81,103761	96,982	-0,102791	22,730000	57,740000
2,803011	82,291340	97,284	-0,102318	22,730000	57,740000
2,806021	84,061666	97,585	-0,101614	22,730000	57,740000
2,809008	85,699494	97,885	-0,100962	22,730000	57,740000
2,812048	87,153296	98,187	-0,100383	22,730000	57,740000
2,815016	88,707699	98,487	-0,099765	22,730000	57,740000
2,817991	90,544274	98,787	-0,099034	22,730000	57,740000
2,821004	92,098677	99,088	-0,098415	22,730000	57,715000
2,823991	93,669029	99,389	-0,097790	22,730000	57,715000
2,827004	95,364518	99,689	-0,097115	22,730000	57,715000
2,830020	97,375304	99,990	-0,096315	22,730000	57,715000
2,833066	98,912531	100,290	-0,095703	22,730000	57,715000
2,836002	100,325848	100,592	-0,095141	22,730000	57,715000
2,839007	102,129299	100,893	-0,094423	22,730000	57,740000
2,841982	103,408890	101,194	-0,093914	22,730000	57,740000
2,845062	105,553402	101,494	-0,093060	22,730000	57,740000
2,848004	107,813236	101,795	-0,092161	22,730000	57,740000
2,851007	109,517313	102,096	-0,091482	22,730000	57,740000
2,854000	110,830029	102,397	-0,090960	22,730000	57,740000
2,857049	112,076496	102,697	-0,090464	22,730000	57,740000
2,860030	114,578017	102,999	-0,089468	22,730000	57,730000
2,863015	115,916497	103,299	-0,088936	22,730000	57,730000
2,865961	117,429187	103,601	-0,088333	22,730000	57,730000
2,868975	119,241226	103,902	-0,087612	22,730000	57,730000
2,872030	120,445980	104,202	-0,087133	22,730000	57,730000
2,874991	122,216306	104,503	-0,086428	22,730000	57,730000
2,877922	124,160843	104,805	-0,085654	22,730000	57,730000
2,880989	125,715246	105,107	-0,085036	22,730000	57,700000
2,884006	127,468397	105,408	-0,084338	22,730000	57,700000
2,886981	128,855950	105,709	-0,083786	22,730000	57,700000
2,889997	130,725650	106,009	-0,083042	22,730000	57,700000
2,892962	132,986711	106,310	-0,082142	22,730000	57,700000
2,895977	134,290839	106,611	-0,081623	22,730000	57,700000
2,898968	136,485651	106,911	-0,080749	22,730000	57,700000
2,902040	138,205677	107,211	-0,080064	22,730000	57,700000
2,905002	139,220271	107,511	-0,079661	22,730000	57,700000
2,908070	140,931709	107,812	-0,078979	22,730000	57,700000
2,910954	142,560949	108,112	-0,078331	22,730000	57,700000
2,914009	144,836732	108,412	-0,077425	22,730000	57,700000
2,917071	146,624234	108,712	-0,076714	22,730000	57,700000
2,920036	148,336899	109,013	-0,076032	22,730000	57,715000
2,923015	149,491353	109,313	-0,075573	22,730000	57,715000
2,925993	151,834613	109,614	-0,074640	22,730000	57,715000
2,929029	153,173092	109,915	-0,074107	22,730000	57,715000
2,932007	154,386434	110,216	-0,073625	22,730000	57,715000
2,934985	156,130997	110,517	-0,072930	22,730000	57,715000
2,937986	158,010512	110,817	-0,072182	22,730000	57,780000
2,941016	160,063010	111,120	-0,071365	22,730000	57,780000
2,943974	161,267765	111,421	-0,070886	22,730000	57,780000
2,947023	163,179177	111,721	-0,070125	22,730000	57,780000
2,950016	164,724992	112,021	-0,069510	22,730000	57,780000
2,953061	166,735779	112,323	-0,068709	22,730000	57,780000
2,955973	168,298769	112,625	-0,068087	22,730000	57,780000
2,958998	170,758578	112,926	-0,067108	22,720000	57,695000
2,961951	171,681160	113,227	-0,066741	22,720000	57,695000
2,964989	173,193850	113,527	-0,066139	22,720000	57,695000
2,968004	175,296649	113,827	-0,065302	22,720000	57,695000
2,970953	176,833876	114,128	-0,064690	22,720000	57,695000
2,973988	179,177136	114,429	-0,063758	22,720000	57,695000
2,977032	181,238222	114,729	-0,062938	22,720000	57,695000
2,980007	183,149635	115,029	-0,062177	22,710000	57,750000
2,982995	183,872242	115,329	-0,061889	22,710000	57,750000
2,986028	186,365175	115,629	-0,060897	22,710000	57,750000
2,988961	187,679118	115,930	-0,060374	22,710000	57,750000
2,991976	189,465393	116,230	-0,059663	22,710000	57,750000
2,994972	191,451643	116,531	-0,058873	22,710000	57,750000
2,998008	193,155720	116,832	-0,058194	22,720000	57,735000
3,001001	194,468436	117,132	-0,057672	22,720000	57,735000
3,003978	196,230174	117,432	-0,056971	22,720000	57,735000
3,006980	198,548897	117,732	-0,056048	22,720000	57,735000
3,009969	199,695990	118,033	-0,055591	22,720000	57,735000
3,013038	201,574278	118,335	-0,054844	22,720000	57,735000
3,016002	203,443978	118,636	-0,054100	22,720000	57,735000
3,019046	205,762700	118,938	-0,053177	22,720000	57,735000
3,022009	207,425065	119,239	-0,052515	22,720000	57,735000
3,025024	209,419902	119,541	-0,051721	22,720000	57,735000
3,028014	210,300771	119,843	-0,051371	22,720000	57,735000
3,031053	212,734817	120,145	-0,050402	22,720000	57,735000
3,034017	214,713705	120,445	-0,049614	22,720000	57,735000
3,034032	214,073296	120,745	-0,049869	22,720000	57,735000
3,033966	213,765360	121,046	-0,049992	22,730000	57,730000
3,033979	213,981283	121,346	-0,049906	22,730000	57,730000
3,034014	213,749411	121,646	-0,049998	22,730000	57,730000
3,033966	213,573973	121,947	-0,050068	22,730000	57,730000
3,033937	213,573973	122,248	-0,050068	22,730000	57,730000
3,033989	213,291801	122,549	-0,050180	22,730000	57,730000
3,033990	213,084465	122,849	-0,050263	22,730000	57,730000
3,033999	213,067290	123,149	-0,050270	22,730000	57,730000
3,033983	213,665986	123,449	-0,050031	22,730000	57,730000
3,033953	213,133539	123,750	-0,050243	22,730000	57,730000
3,033968	212,809654	124,050	-0,050372	22,730000	57,730000
3,034008	212,751992	124,352	-0,050395	22,730000	57,730000
3,033984	212,644031	124,653	-0,050438	22,730000	57,730000
3,033977	212,344682	124,955	-0,050557	22,740000	57,700000
3,033991	212,444056	125,256	-0,050518	22,740000	57,700000
3,033945	212,618267	125,557	-0,050448	22,740000	57,700000
3,033987	212,593730	125,857	-0,050458	22,740000	57,700000
3,034029	212,219545	126,158	-0,050607	22,740000	57,700000
3,033968	212,012209	126,458	-0,050689	22,740000	57,700000
3,033984	212,029385	126,760	-0,050683	22,740000	57,700000
3,034022	211,912836	127,060	-0,050729	22,740000	57,715000
3,033970	211,921424	127,360	-0,050726	22,740000	57,715000
3,034026	212,003622	127,660	-0,050693	22,740000	57,715000
3,034057	211,629436	127,960	-0,050842	22,740000	57,715000
3,033969	211,655200	128,261	-0,050832	22,740000	57,715000
3,033993	211,629436	128,563	-0,050842	22,740000	57,715000
3,033939	211,655200	128,863	-0,050832	22,740000	57,715000
3,034002	211,472401	129,165	-0,050904	22,740000	57,715000
3,033986	211,455225	129,466	-0,050911	22,740000	57,715000
3,033995	211,281014	129,766	-0,050980	22,740000	57,715000
3,033988	211,447864	130,067	-0,050914	22,740000	57,715000
3,034047	211,380388	130,368	-0,050941	22,740000	57,715000
3,031973	209,759736	130,669	-0,051586	22,740000	57,715000
3,028987	207,898624	130,969	-0,052327	22,730000	57,730000
3,025950	206,319684	131,269	-0,052955	22,730000	57,730000
3,022980	203,835339	131,571	-0,053944	22,730000	57,730000
3,019991	202,089549	131,871	-0,054639	22,730000	57,730000
3,016970	200,252974	132,171	-0,055370	22,730000	57,730000
3,014018	197,784577	132,473	-0,056352	22,730000	57,730000
3,010998	195,516155	132,775	-0,057255	22,730000	57,730000
3,007979	194,169088	133,077	-0,057791	22,730000	57,730000
3,005027	192,723873	133,379	-0,058366	22,730000	57,730000
3,001994	190,562186	133,679	-0,059227	22,730000	57,730000
2,999041	188,526863	133,980	-0,060037	22,730000	57,730000
2,995991	186,149252	134,280	-0,060983	22,730000	57,730000
2,992970	184,645150	134,580	-0,061582	22,730000	57,730000
2,989974	182,775450	134,882	-0,062326	22,730000	57,730000
2,986993	180,482491	135,182	-0,063238	22,730000	57,730000
2,983985	178,353928	135,482	-0,064085	22,730000	57,730000
2,980992	176,002081	135,783	-0,065021	22,730000	57,730000
2,977955	174,814502	136,083	-0,065494	22,730000	57,730000
2,975019	173,093249	136,384	-0,066179	22,730000	57,730000
2,972005	170,824827	136,684	-0,067082	22,730000	57,730000
2,969002	169,162463	136,985	-0,067744	22,720000	57,710000
2,966011	166,436430	137,285	-0,068829	22,720000	57,710000
2,962994	165,156839	137,586	-0,069338	22,720000	57,710000
2,960039	163,386513	137,888	-0,070042	22,720000	57,710000
2,957027	161,450563	138,189	-0,070813	22,720000	57,710000
2,954006	159,506026	138,489	-0,071587	22,720000	57,710000
2,951018	157,112467	138,790	-0,072540	22,720000	57,710000
2,947994	155,416977	139,090	-0,073214	22,730000	57,700000
2,944974	153,780376	139,390	-0,073866	22,730000	57,700000
2,942012	152,234561	139,690	-0,074481	22,730000	57,700000
2,938979	149,616491	139,990	-0,075523	22,730000	57,700000
2,935982	147,372605	140,291	-0,076416	22,730000	57,700000
2,933008	145,743365	140,592	-0,077064	22,730000	57,700000
2,929994	143,915378	140,894	-0,077792	22,730000	57,740000
2,926967	142,120515	141,195	-0,078506	22,730000	57,740000
2,923958	140,474099	141,497	-0,079162	22,730000	57,740000
2,921001	138,505025	141,797	-0,079945	22,730000	57,740000
2,917995	136,784999	142,098	-0,080630	22,730000	57,740000
2,914994	134,457689	142,399	-0,081556	22,730000	57,740000
2,912053	133,086085	142,700	-0,082102	22,730000	57,740000
2,909022	131,548858	143,000	-0,082714	22,720000	57,750000
2,905999	129,604320	143,300	-0,083488	22,720000	57,750000
2,903036	127,193585	143,601	-0,084447	22,720000	57,750000
2,899940	126,155681	143,902	-0,084860	22,720000	57,750000
2,896980	123,737584	144,204	-0,085823	22,720000	57,750000
2,894006	122,223667	144,506	-0,086425	22,720000	57,750000
2,891040	120,637367	144,806	-0,087057	22,720000	57,750000
2,887998	118,294107	145,107	-0,087989	22,720000	57,725000
2,885005	116,282094	145,408	-0,088790	22,720000	57,725000
2,881990	114,038209	145,708	-0,089683	22,720000	57,725000
2,879028	112,218809	146,008	-0,090407	22,720000	57,725000
2,876061	110,672994	146,310	-0,091022	22,720000	57,725000
2,873045	108,911255	146,611	-0,091724	22,720000	57,725000
2,869996	107,672150	146,912	-0,092217	22,720000	57,725000
2,866979	105,187804	147,212	-0,093206	22,720000	57,725000
2,864024	103,175791	147,513	-0,094006	22,720000	57,725000
2,861036	102,370986	147,814	-0,094327	22,720000	57,725000
2,857981	100,242423	148,115	-0,095174	22,720000	57,725000
2,854986	98,506448	148,415	-0,095865	22,720000	57,725000
2,852003	95,754652	148,715	-0,096960	22,720000	57,725000
2,848988	94,492237	149,016	-0,097462	22,740000	57,715000
2,846021	92,862997	149,317	-0,098111	22,740000	57,715000
2,842962	91,042370	149,618	-0,098835	22,740000	57,715000
2,840023	89,139545	149,918	-0,099593	22,740000	57,715000
2,837037	87,477181	150,219	-0,100254	22,740000	57,715000
2,833992	85,541232	150,520	-0,101025	22,740000	57,715000
2,831029	83,904631	150,821	-0,101676	22,730000	57,730000
2,828017	82,059467	151,122	-0,102411	22,730000	57,730000
2,825061	79,533409	151,423	-0,103416	22,730000	57,730000
2,821972	77,704195	151,723	-0,104144	22,730000	57,730000
2,818989	76,889575	152,023	-0,104468	22,730000	57,730000
2,816004	75,086124	152,324	-0,105186	22,730000	57,730000
2,813062	73,141587	152,624	-0,105960	22,730000	57,730000
2,809984	71,363900	152,926	-0,106667	22,730000	57,700000
2,807003	68,994877	153,226	-0,107610	22,730000	57,700000
2,803962	67,640448	153,526	-0,108149	22,730000	57,700000
2,800961	65,744985	153,826	-0,108904	22,730000	57,700000
2,798074	64,299770	154,127	-0,109479	22,730000	57,700000
2,795011	62,287757	154,427	-0,110280	22,730000	57,700000
2,792038	60,717405	154,728	-0,110905	22,730000	57,700000
2,789053	58,856293	155,029	-0,111646	22,730000	57,700000
2,785954	56,894580	155,329	-0,112426	22,730000	57,700000
2,783033	55,564689	155,631	-0,112956	22,730000	57,700000
2,780017	53,005506	155,933	-0,113974	22,730000	57,700000
2,777060	51,442515	156,234	-0,114596	22,730000	57,700000
2,774016	50,312598	156,535	-0,115046	22,730000	57,700000
2,770987	48,617109	156,836	-0,115721	22,720000	57,680000
2,768047	46,731460	157,137	-0,116471	22,720000	57,680000
2,765030	44,369798	157,438	-0,117411	22,720000	57,680000
2,762011	42,541811	157,738	-0,118139	22,720000	57,680000
2,758995	41,761542	158,038	-0,118449	22,720000	57,680000
2,756013	39,742168	158,339	-0,119253	22,720000	57,680000
2,753052	37,871241	158,639	-0,119998	22,720000	57,680000
2,750043	35,294883	158,939	-0,121023	22,720000	57,680000
2,747046	33,592032	159,239	-0,121701	22,720000	57,680000
2,744010	32,013093	159,540	-0,122329	22,720000	57,680000
2,741078	30,949425	159,842	-0,122752	22,720000	57,680000
2,738056	28,996300	160,142	-0,123530	22,720000	57,680000
2,735079	27,092248	160,443	-0,124288	22,720000	57,680000
2,732014	24,874126	160,744	-0,125170	22,720000	57,680000
2,729059	23,544235	161,045	-0,125700	22,720000	57,695000
2,726019	21,948120	161,346	-0,126335	22,720000	57,695000
2,723003	20,020758	161,646	-0,127102	22,720000	57,695000
2,720029	18,708042	161,947	-0,127625	22,720000	57,695000
2,717020	16,878828	162,248	-0,128353	22,720000	57,695000
2,714050	14,485268	162,549	-0,129305	22,720000	57,695000
2,711028	13,529562	162,849	-0,129686	22,730000	57,715000
2,708034	11,635325	163,150	-0,130439	22,730000	57,715000
2,705015	10,164347	163,450	-0,131025	22,730000	57,715000
2,702044	7,612526	163,750	-0,132041	22,730000	57,715000
2,699064	6,540270	164,050	-0,132467	22,730000	57,715000
2,696015	4,271848	164,351	-0,133370	22,730000	57,715000
2,693036	2,743208	164,652	-0,133979	22,730000	57,715000
2,690008	0,772908	164,953	-0,134763	22,730000	57,715000
2,687026	0,017176	165,254	-0,135063	22,730000	57,715000
2,684030	-1,686901	165,555	-0,135742	22,730000	57,715000
2,681047	-3,831413	165,855	-0,136595	22,730000	57,715000
2,678013	-5,236142	166,157	-0,137154	22,730000	57,715000
2,674981	-7,213803	166,459	-0,137941	22,730000	57,715000
2,672087	-8,592769	166,760	-0,138490	22,730000	57,715000
2,669019	-10,047798	167,062	-0,139069	22,730000	57,685000
2,666059	-11,743287	167,362	-0,139744	22,730000	57,685000
2,663022	-13,479262	167,662	-0,140435	22,730000	57,685000
2,660012	-14,868041	167,964	-0,140988	22,730000	57,685000
2,657016	-16,488693	168,266	-0,141633	22,730000	57,685000
2,654078	-18,814777	168,566	-0,142559	22,730000	57,685000
2,651047	-19,763122	168,868	-0,142936	22,730000	57,685000
2,648010	-22,247468	169,169	-0,143925	22,730000	57,685000
2,644984	-23,784695	169,470	-0,144537	22,730000	57,685000
2,641989	-25,305973	169,771	-0,145142	22,730000	57,685000
2,639081	-25,904670	170,071	-0,145380	22,730000	57,685000
2,636017	-28,148555	170,372	-0,146273	22,730000	57,685000
2,632997	-29,635482	170,673	-0,146865	22,730000	57,685000
2,630001	-31,280671	170,973	-0,147520	22,720000	57,680000
2,627010	-32,636326	171,275	-0,148060	22,720000	57,680000
2,624049	-33,715943	171,576	-0,148489	22,720000	57,680000
2,621020	-35,569694	171,876	-0,149227	22,720000	57,680000
2,618092	-37,181758	172,177	-0,149869	22,720000	57,680000
2,615042	-38,628200	172,477	-0,150444	22,720000	57,680000
2,612043	-40,115126	172,777	-0,151036	22,720000	57,680000
2,609023	-41,694066	173,078	-0,151665	22,730000	57,715000
2,606065	-43,081619	173,379	-0,152217	22,730000	57,715000
2,603021	-44,728035	173,679	-0,152872	22,730000	57,715000
2,600047	-45,915613	173,980	-0,153345	22,730000	57,715000
2,597000	-48,234336	174,280	-0,154268	22,730000	57,715000
2,594066	-49,073492	174,580	-0,154602	22,730000	57,715000
2,591064	-50,503985	174,881	-0,155171	22,730000	57,715000
2,588051	-51,633902	175,182	-0,155621	22,730000	57,715000
2,585016	-53,312215	175,482	-0,156289	22,730000	57,715000
2,582014	-55,714363	175,783	-0,157245	22,730000	57,715000
2,579021	-56,354772	176,084	-0,157500	22,730000	57,715000
2,576044	-58,339795	176,384	-0,158290	22,730000	57,715000
2,573094	-60,010747	176,685	-0,158955	22,730000	57,715000
2,570037	-60,717405	176,985	-0,159236	22,720000	57,670000
2,567058	-62,080422	177,286	-0,159778	22,720000	57,670000
2,564048	-63,758735	177,587	-0,160446	22,720000	57,670000
2,561048	-64,956128	177,887	-0,160923	22,720000	57,670000
2,558040	-66,784116	178,187	-0,161650	22,720000	57,670000
2,555103	-67,997458	178,487	-0,162133	22,720000	57,670000
2,551989	-68,712704	178,787	-0,162418	22,720000	57,670000
2,549027	-69,884334	179,087	-0,162884	22,730000	57,700000
2,546037	-71,811695	179,387	-0,163651	22,730000	57,700000
2,543042	-72,917076	179,687	-0,164091	22,730000	57,700000
2,540021	-73,374686	179,988	-0,164273	22,730000	57,700000
2,537073	-74,920501	180,288	-0,164889	22,730000	57,700000
2,534083	-75,984169	180,588	-0,165312	22,730000	57,700000
2,531040	-77,072374	180,889	-0,165745	22,730000	57,715000
2,528071	-78,410853	181,190	-0,166278	22,730000	57,715000
2,525033	-79,307671	181,492	-0,166635	22,730000	57,715000
2,522063	-80,454764	181,793	-0,167091	22,730000	57,715000
2,519058	-81,626394	182,095	-0,167558	22,730000	57,715000
2,516101	-82,441014	182,395	-0,167882	22,730000	57,715000
2,513045	-83,903404	182,697	-0,168464	22,730000	57,715000
2,510013	-85,433270	182,998	-0,169073	22,730000	57,715000
2,507036	-86,662561	183,298	-0,169562	22,730000	57,715000
2,504070	-87,917615	183,599	-0,170062	22,730000	57,715000
2,501031	-88,375226	183,900	-0,170244	22,730000	57,715000
2,498043	-89,597156	184,201	-0,170730	22,730000	57,715000
2,495045	-91,499980	184,502	-0,171487	22,730000	57,715000
2,492072	-92,405386	184,804	-0,171848	22,730000	57,715000
2,489103	-93,801527	185,106	-0,172403	22,710000	57,680000
2,486054	-95,488428	185,407	-0,173075	22,710000	57,680000
2,483093	-96,518972	185,707	-0,173485	22,710000	57,680000
2,480012	-97,840276	186,007	-0,174011	22,710000	57,680000
2,477017	-98,995956	186,308	-0,174471	22,710000	57,680000
2,474045	-99,968838	186,608	-0,174858	22,710000	57,680000
2,471099	-101,755113	186,909	-0,175569	22,740000	57,715000
2,468035	-102,669107	187,210	-0,175933	22,740000	57,715000
2,465057	-103,774488	187,511	-0,176373	22,740000	57,715000
2,462110	-105,577939	187,813	-0,177090	22,740000	57,715000
2,459106	-106,026961	188,114	-0,177269	22,740000	57,715000
2,456037	-107,365440	188,416	-0,177802	22,740000	57,715000
2,453079	-109,334514	188,717	-0,178585	22,740000	57,715000
2,450061	-110,580981	189,018	-0,179082	22,740000	57,715000
2,447058	-112,217582	189,318	-0,179733	22,740000	57,715000
2,444082	-113,215001	189,618	-0,180130	22,740000	57,715000
2,441070	-114,793940	189,919	-0,180758	22,740000	57,715000
2,438069	-116,572855	190,220	-0,181466	22,740000	57,715000
2,435103	-117,777609	190,521	-0,181946	22,740000	57,715000
2,432030	-119,340599	190,823	-0,182568	22,740000	57,715000
2,429055	-120,445980	191,123	-0,183008	22,730000	57,730000
2,426061	-122,174594	191,424	-0,183696	22,730000	57,730000
2,423095	-122,972038	191,726	-0,184013	22,730000	57,730000
2,420027	-124,825789	192,027	-0,184751	22,730000	57,730000
2,417083	-126,096793	192,329	-0,185257	22,730000	57,730000
2,413987	-127,409508	192,629	-0,185779	22,730000	57,730000
2,411089	-128,506301	192,929	-0,186216	22,730000	57,715000
2,408043	-130,650813	193,229	-0,187069	22,730000	57,715000
2,405119	-132,363478	193,530	-0,187751	22,730000	57,715000
2,402091	-133,434507	193,831	-0,188177	22,730000	57,715000
2,399067	-134,299427	194,132	-0,188521	22,730000	57,715000
2,396069	-135,629318	194,433	-0,189051	22,730000	57,715000
2,393028	-137,773830	194,734	-0,189904	22,730000	57,715000
2,390038	-138,703773	195,035	-0,190274	22,720000	57,695000
2,387067	-140,233639	195,337	-0,190883	22,720000	57,695000
2,384087	-141,779454	195,637	-0,191499	22,720000	57,695000
2,381061	-143,324042	195,937	-0,192113	22,720000	57,695000
2,378030	-144,446598	196,238	-0,192560	22,720000	57,695000
2,375052	-145,901627	196,540	-0,193139	22,720000	57,695000
2,372047	-146,981244	196,840	-0,193569	22,730000	57,700000
2,369049	-148,260835	197,140	-0,194078	22,730000	57,700000
2,366054	-150,031162	197,440	-0,194783	22,730000	57,700000
2,363070	-151,219967	197,741	-0,195256	22,730000	57,700000
2,360076	-152,582983	198,042	-0,195798	22,730000	57,700000
2,357055	-154,069910	198,342	-0,196390	22,730000	57,700000
2,354058	-155,175291	198,642	-0,196830	22,730000	57,700000
2,351097	-156,463470	198,944	-0,197343	22,730000	57,700000
2,348037	-158,001924	199,245	-0,197955	22,730000	57,700000
2,345066	-159,986946	199,546	-0,198745	22,730000	57,700000
2,342085	-161,342602	199,846	-0,199285	22,730000	57,700000
2,339021	-162,679854	200,146	-0,199817	22,730000	57,700000
2,336059	-163,669912	200,448	-0,200211	22,730000	57,700000
2,333034	-164,774066	200,748	-0,200650	22,730000	57,700000
2,330086	-166,827791	201,049	-0,201468	22,720000	57,670000
2,327114	-167,675536	201,349	-0,201805	22,720000	57,670000
2,324053	-168,638603	201,649	-0,202188	22,720000	57,670000
2,321115	-170,426105	201,950	-0,202900	22,720000	57,670000
2,318053	-172,079882	202,250	-0,203558	22,720000	57,670000
2,315064	-172,586566	202,550	-0,203760	22,720000	57,670000
2,312040	-174,090668	202,851	-0,204358	22,730000	57,685000
2,309079	-175,918656	203,151	-0,205086	22,730000	57,685000
2,306031	-177,265723	203,452	-0,205622	22,730000	57,685000
2,303083	-177,988330	203,752	-0,205910	22,730000	57,685000
2,300050	-179,767244	204,052	-0,206618	22,730000	57,685000
2,297061	-180,681238	204,355	-0,206981	22,730000	57,685000
2,294006	-181,952242	204,658	-0,207487	22,730000	57,685000
2,291070	-183,398683	204,959	-0,208063	22,730000	57,730000
2,288071	-184,528600	205,260	-0,208513	22,730000	57,730000
2,285076	-186,406888	205,561	-0,209260	22,730000	57,730000
2,282019	-187,354006	205,861	-0,209637	22,730000	57,730000
2,279093	-188,575936	206,162	-0,210124	22,730000	57,730000
2,276035	-189,797866	206,464	-0,210610	22,730000	57,730000
2,273046	-190,753573	206,766	-0,210990	22,730000	57,730000
2,270062	-191,867541	207,068	-0,211434	22,730000	57,715000
2,267009	-193,603516	207,369	-0,212125	22,730000	57,715000
2,264089	-193,836615	207,669	-0,212217	22,730000	57,715000
2,261028	-194,825446	207,970	-0,212611	22,730000	57,715000
2,258056	-195,333356	208,270	-0,212813	22,730000	57,715000
2,255049	-196,529523	208,570	-0,213289	22,730000	57,715000
2,252073	-197,210417	208,872	-0,213560	22,730000	57,685000
2,249105	-197,311018	209,172	-0,213600	22,730000	57,685000
2,246065	-197,426341	209,472	-0,213646	22,730000	57,685000
2,243036	-196,529523	209,772	-0,213289	22,730000	57,685000
2,240097	-186,955284	210,072	-0,209479	22,730000	57,685000
2,237040	-147,754152	210,374	-0,193876	22,730000	57,685000
2,234027	-141,379505	210,675	-0,191339	22,730000	57,685000
2,231065	-138,604399	210,976	-0,190235	22,730000	57,685000
2,228035	-137,432769	211,276	-0,189769	22,730000	57,685000
2,225014	-137,083121	211,576	-0,189629	22,730000	57,685000
2,222083	-136,634098	211,876	-0,189451	22,730000	57,685000
2,219057	-136,102878	212,177	-0,189239	22,730000	57,685000
2,216035	-135,479644	212,478	-0,188991	22,730000	57,685000
2,213050	-135,197472	212,778	-0,188879	22,730000	57,685000
2,210021	-135,188884	213,078	-0,188875	22,730000	57,700000
2,207064	-135,171708	213,379	-0,188869	22,730000	57,700000
2,203985	-135,388858	213,680	-0,188955	22,730000	57,700000
2,201098	-134,748449	213,983	-0,188700	22,730000	57,700000
2,198076	-135,363095	214,283	-0,188945	22,730000	57,700000
2,195040	-135,263721	214,583	-0,188905	22,730000	57,700000
2,192053	-135,986328	214,884	-0,189193	22,730000	57,685000
2,189043	-136,003504	215,184	-0,189200	22,730000	57,685000
2,186030	-136,269728	215,486	-0,189306	22,730000	57,685000
2,183013	-136,999696	215,787	-0,189596	22,730000	57,685000
2,180081	-137,283095	216,087	-0,189709	22,730000	57,685000
2,177015	-137,681817	216,389	-0,189868	22,730000	57,685000
2,174066	-138,662060	216,689	-0,190258	22,730000	57,685000
2,171041	-139,019070	216,992	-0,190400	22,730000	57,685000
2,168066	-138,762661	217,292	-0,190298	22,730000	57,685000
2,165048	-139,302469	217,592	-0,190513	22,730000	57,685000
2,162029	-139,542929	217,892	-0,190608	22,730000	57,685000
2,159075	-140,299888	218,192	-0,190910	22,730000	57,685000
2,156036	-140,599236	218,492	-0,191029	22,730000	57,685000
2,153058	-141,031083	218,792	-0,191201	22,730000	57,685000
2,150054	-141,238419	219,092	-0,191283	22,730000	57,730000
2,147069	-141,696029	219,392	-0,191465	22,730000	57,730000
2,144039	-141,986789	219,693	-0,191581	22,730000	57,730000
2,141049	-142,427224	219,993	-0,191756	22,730000	57,730000
2,138008	-143,506841	220,295	-0,192186	22,730000	57,730000
2,135086	-143,457767	220,596	-0,192167	22,730000	57,730000
2,132044	-144,063825	220,897	-0,192408	22,730000	57,730000
2,129069	-143,988988	221,198	-0,192378	22,730000	57,730000
2,126029	-144,538611	221,499	-0,192597	22,730000	57,730000
2,123031	-144,770483	221,799	-0,192689	22,730000	57,730000
2,120071	-145,111544	222,099	-0,192825	22,730000	57,730000
2,117058	-144,737359	222,400	-0,192676	22,730000	57,730000
2,114040	-145,078419	222,700	-0,192812	22,730000	57,730000
2,111037	-145,028119	223,000	-0,192792	22,740000	57,685000
2,108036	-145,726190	223,300	-0,193069	22,740000	57,685000
2,105017	-145,410892	223,600	-0,192944	22,740000	57,685000
2,102034	-145,244042	223,901	-0,192877	22,740000	57,685000
2,099025	-145,285755	224,202	-0,192894	22,740000	57,685000
2,096073	-144,463774	224,503	-0,192567	22,740000	57,685000
2,093049	-143,349806	224,803	-0,192124	22,740000	57,685000
2,090011	-142,211301	225,105	-0,191670	22,730000	57,685000
2,087070	-139,917115	225,407	-0,190757	22,730000	57,685000
2,084028	-136,675811	225,707	-0,189467	22,730000	57,685000
2,081086	-128,465815	226,007	-0,186200	22,730000	57,685000
2,078040	-118,741903	226,307	-0,182330	22,730000	57,685000
2,075094	-104,148673	226,607	-0,176521	22,730000	57,685000
2,072099	-0,572933	226,907	-0,135298	22,720000	57,670000
2,069007	-0,631821	227,207	-0,135322	22,720000	57,670000
2,066121	-0,731195	227,507	-0,135361	22,720000	57,670000
2,063073	-0,790083	227,809	-0,135385	22,720000	57,670000
2,060033	-0,830569	228,109	-0,135401	22,720000	57,670000
2,057083	-0,689483	228,409	-0,135345	22,720000	57,670000
2,054025	-0,631821	228,709	-0,135322	22,720000	57,670000
2,051037	-0,523860	229,009	-0,135279	22,730000	57,700000
2,048023	-0,772908	229,311	-0,135378	22,730000	57,700000
2,045010	-0,647770	229,612	-0,135328	22,730000	57,700000
2,042075	-0,515272	229,913	-0,135275	22,730000	57,700000
2,039039	-0,748371	230,214	-0,135368	22,730000	57,700000
2,036074	-0,515272	230,515	-0,135275	22,730000	57,700000
2,033041	-0,506684	230,816	-0,135272	22,730000	57,700000
2,030019	-0,731195	231,116	-0,135361	22,720000	57,735000
2,027063	-0,332473	231,417	-0,135203	22,720000	57,735000
2,024045	-0,947118	231,718	-0,135447	22,720000	57,735000
2,021113	-0,357010	232,020	-0,135212	22,720000	57,735000
2,018033	-0,606058	232,322	-0,135312	22,720000	57,735000
2,015028	-0,590109	232,622	-0,135305	22,720000	57,735000
2,012053	-0,731195	232,922	-0,135361	22,720000	57,640000
2,009058	-0,731195	233,222	-0,135361	22,720000	57,640000
2,006052	-0,931170	233,522	-0,135441	22,720000	57,640000
2,003058	-0,880869	233,823	-0,135421	22,720000	57,640000
2,000050	-0,731195	234,124	-0,135361	22,720000	57,640000
1,997079	-0,673534	234,427	-0,135338	22,720000	57,640000
1,994052	-0,365598	234,728	-0,135216	22,720000	57,640000
1,991052	-0,581521	235,030	-0,135302	22,730000	57,660000
1,988080	-0,565572	235,333	-0,135295	22,730000	57,660000
1,985047	-0,423259	235,634	-0,135239	22,730000	57,660000
1,982037	-0,572933	235,935	-0,135298	22,730000	57,660000
1,979018	-0,565572	236,235	-0,135295	22,730000	57,660000
1,976082	-0,597470	236,536	-0,135308	22,730000	57,660000
1,973118	-0,390134	236,836	-0,135226	22,730000	57,660000
1,970023	-0,664946	237,136	-0,135335	22,730000	57,660000
1,967044	-0,532447	237,438	-0,135282	22,730000	57,660000
1,964061	-0,282173	237,738	-0,135183	22,730000	57,660000
1,961079	-0,689483	238,039	-0,135345	22,730000	57,660000
1,958066	-0,440435	238,339	-0,135246	22,730000	57,660000
1,955048	-0,398722	238,639	-0,135229	22,730000	57,660000
1,952071	-0,631821	238,942	-0,135322	22,710000	57,710000
1,949046	-0,440435	239,243	-0,135246	22,710000	57,710000
1,946098	-0,722607	239,543	-0,135358	22,710000	57,710000
1,942996	-0,647770	239,843	-0,135328	22,710000	57,710000
1,940004	-0,572933	240,145	-0,135298	22,710000	57,710000
1,937084	-0,390134	240,447	-0,135226	22,710000	57,710000
1,934045	-0,473559	240,747	-0,135259	22,710000	57,710000
1,931023	-0,715246	241,048	-0,135355	22,710000	57,710000
1,928015	-0,506684	241,349	-0,135272	22,710000	57,710000
1,925111	-0,423259	241,650	-0,135239	22,710000	57,710000
1,922051	-0,464971	241,951	-0,135255	22,710000	57,710000
1,919033	-0,539808	242,252	-0,135285	22,710000	57,710000
1,916055	-0,623233	242,552	-0,135318	22,710000	57,710000
1,913055	-0,565572	242,852	-0,135295	22,730000	57,675000
1,910061	-0,490735	243,153	-0,135266	22,730000	57,675000
1,907089	-0,623233	243,454	-0,135318	22,730000	57,675000
1,904068	-0,215923	243,755	-0,135156	22,730000	57,675000
1,901070	-0,282173	244,055	-0,135183	22,730000	57,675000
1,898059	-0,548396	244,356	-0,135289	22,730000	57,675000
1,895041	-0,606058	244,658	-0,135312	22,730000	57,675000
1,892111	-0,323885	244,959	-0,135199	22,730000	57,675000
1,889042	-0,764320	245,259	-0,135375	22,730000	57,675000
1,886071	-0,290760	245,559	-0,135186	22,730000	57,675000
1,883083	-0,341061	245,860	-0,135206	22,730000	57,675000
1,880068	-0,033125	246,160	-0,135083	22,730000	57,675000
1,877066	-0,423259	246,460	-0,135239	22,730000	57,675000
1,874056	-0,415898	246,760	-0,135236	22,730000	57,675000
1,871064	-0,398722	247,061	-0,135229	22,730000	57,685000
1,868052	-0,266224	247,362	-0,135176	22,730000	57,685000
1,865095	-0,365598	247,663	-0,135216	22,730000	57,685000
1,862054	-0,191387	247,963	-0,135146	22,730000	57,685000
1,859080	-0,240460	248,263	-0,135166	22,730000	57,685000
1,856073	-0,165623	248,564	-0,135136	22,730000	57,685000
1,853017	-0,374185	248,864	-0,135219	22,730000	57,685000
1,850054	-0,449022	249,164	-0,135249	22,730000	57,685000
1,847045	-0,174211	249,466	-0,135140	22,730000	57,685000
1,844048	-0,191387	249,766	-0,135146	22,730000	57,685000
1,841046	-0,498096	250,067	-0,135269	22,730000	57,685000
1,838076	-0,149674	250,367	-0,135130	22,730000	57,685000
1,835034	-0,149674	250,669	-0,135130	22,730000	57,685000
1,834073	-0,374185	250,769	-0,135219	22,730000	57,685000