File: Nanoindentation Datenauswertung/data/PDMS/EM-PDMS-75-10-75-1,5um-1
Quasi static measurement routine
Tip parameters (shape,radius, material...)
24.08.2022

Piezo position[nm]	MEMS displ.[nm]	Time[ms]	Cap [pf]	Temp [°C]	Rh [%]
eoh
2,551863	0,107962	0,214	-0,135732	22,700000	51,965000
2,555916	0,058888	0,415	-0,135751	22,690000	51,935000
2,559858	0,199974	0,616	-0,135695	22,690000	51,935000
2,563889	-0,198748	0,816	-0,135854	22,690000	51,935000
2,567885	0,208562	1,016	-0,135692	22,690000	51,935000
2,571909	-0,141086	1,218	-0,135831	22,690000	51,935000
2,575903	0,074837	1,420	-0,135745	22,690000	51,935000
2,579874	0,058888	1,621	-0,135751	22,690000	51,935000
2,583884	0,058888	1,821	-0,135751	22,690000	51,935000
2,587920	-0,041712	2,021	-0,135792	22,690000	51,935000
2,591870	0,133725	2,222	-0,135722	22,690000	51,935000
2,595813	-0,057661	2,422	-0,135798	22,700000	51,925000
2,599863	0,050300	2,622	-0,135755	22,700000	51,925000
2,603902	0,083425	2,822	-0,135742	22,700000	51,925000
2,607830	-0,116550	3,022	-0,135821	22,700000	51,925000
2,611886	-0,125137	3,222	-0,135825	22,700000	51,925000
2,615858	0,058888	3,422	-0,135751	22,700000	51,925000
2,619932	0,000000	3,622	-0,135775	22,700000	51,925000
2,623871	-0,007361	3,822	-0,135778	22,700000	51,925000
2,627839	0,133725	4,022	-0,135722	22,700000	51,925000
2,631893	0,025764	4,223	-0,135765	22,700000	51,925000
2,635872	0,107962	4,423	-0,135732	22,700000	51,925000
2,639812	0,141086	4,624	-0,135719	22,700000	51,925000
2,643884	-0,266224	4,824	-0,135881	22,700000	51,925000
2,647911	0,058888	5,024	-0,135751	22,700000	51,925000
2,651888	-0,190160	5,224	-0,135851	22,700000	51,925000
2,655849	-0,090786	5,424	-0,135811	22,700000	51,925000
2,659807	-0,099374	5,624	-0,135814	22,700000	51,925000
2,663878	-0,273585	5,825	-0,135884	22,700000	51,925000
2,667884	-0,116550	6,025	-0,135821	22,700000	51,925000
2,671827	-0,033125	6,225	-0,135788	22,700000	51,925000
2,675863	-0,257636	6,426	-0,135877	22,700000	51,935000
2,679833	-0,083425	6,626	-0,135808	22,700000	51,935000
2,683892	-0,290760	6,826	-0,135891	22,700000	51,935000
2,687871	-0,074837	7,028	-0,135805	22,700000	51,935000
2,691850	-0,341061	7,228	-0,135911	22,700000	51,935000
2,695850	-0,315297	7,429	-0,135900	22,700000	51,935000
2,699862	-0,165623	7,630	-0,135841	22,700000	51,935000
2,703873	-0,165623	7,830	-0,135841	22,700000	51,935000
2,707909	-0,107962	8,031	-0,135818	22,700000	51,935000
2,711916	0,008588	8,233	-0,135771	22,700000	51,935000
2,715815	-0,132498	8,433	-0,135828	22,700000	51,935000
2,719853	-0,190160	8,633	-0,135851	22,700000	51,935000
2,723872	-0,049073	8,833	-0,135794	22,700000	51,935000
2,727912	-0,149674	9,033	-0,135834	22,700000	51,935000
2,731846	-0,273585	9,234	-0,135884	22,700000	51,935000
2,735928	-0,273585	9,435	-0,135884	22,700000	51,935000
2,739832	-0,125137	9,636	-0,135825	22,700000	51,935000
2,743861	-0,332473	9,836	-0,135907	22,700000	51,935000
2,747789	-0,224511	10,037	-0,135864	22,700000	51,935000
2,751846	-0,099374	10,238	-0,135814	22,700000	51,935000
2,755888	-0,357010	10,440	-0,135917	22,690000	51,935000
2,759885	-0,257636	10,640	-0,135877	22,690000	51,935000
2,763839	-0,190160	10,840	-0,135851	22,690000	51,935000
2,767845	-0,174211	11,041	-0,135844	22,690000	51,935000
2,771958	-0,390134	11,242	-0,135930	22,690000	51,935000
2,775829	-0,249048	11,443	-0,135874	22,690000	51,935000
2,779891	-0,482147	11,784	-0,135967	22,690000	51,935000
2,783851	-0,755732	11,984	-0,136076	22,690000	51,935000
2,787838	-0,341061	12,184	-0,135911	22,690000	51,935000
2,791867	-0,332473	12,384	-0,135907	22,690000	51,935000
2,795917	-0,282173	12,584	-0,135887	22,690000	51,935000
2,799853	-0,332473	12,784	-0,135907	22,690000	51,935000
2,803874	-0,290760	12,984	-0,135891	22,690000	51,935000
2,807881	-0,531221	13,184	-0,135986	22,690000	51,935000
2,811837	-0,531221	13,385	-0,135986	22,690000	51,935000
2,815846	-0,390134	13,585	-0,135930	22,690000	51,935000
2,819858	-0,357010	13,785	-0,135917	22,690000	51,935000
2,823869	-0,215923	13,985	-0,135861	22,690000	51,935000
2,827835	-0,372959	14,186	-0,135923	22,690000	51,935000
2,831856	-0,231872	14,387	-0,135867	22,690000	51,910000
2,835861	-0,556984	14,587	-0,135997	22,690000	51,910000
2,839863	-0,440435	14,788	-0,135950	22,690000	51,910000
2,843833	-0,680895	14,988	-0,136046	22,690000	51,910000
2,847871	-0,282173	15,188	-0,135887	22,690000	51,910000
2,851834	-0,556984	15,389	-0,135997	22,690000	51,910000
2,855810	-0,556984	15,590	-0,135997	22,690000	51,910000
2,859784	-0,407310	15,791	-0,135937	22,690000	51,910000
2,863824	-0,565572	15,992	-0,136000	22,690000	51,910000
2,867859	-0,531221	16,192	-0,135986	22,690000	51,910000
2,871809	-0,548396	16,393	-0,135993	22,700000	51,935000
2,875829	-0,656358	16,593	-0,136036	22,700000	51,935000
2,879831	-0,664946	16,793	-0,136040	22,700000	51,935000
2,883815	-0,672307	16,994	-0,136042	22,700000	51,935000
2,887835	-0,431847	17,194	-0,135947	22,700000	51,935000
2,891877	-0,531221	17,394	-0,135986	22,700000	51,935000
2,895851	-0,639182	17,595	-0,136029	22,700000	51,935000
2,899805	-0,581521	17,796	-0,136006	22,700000	51,935000
2,903861	-0,539808	17,997	-0,135990	22,700000	51,935000
2,907856	-0,489508	18,197	-0,135970	22,700000	51,935000
2,911806	-0,680895	18,398	-0,136046	22,690000	51,910000
2,915865	-0,722607	18,600	-0,136063	22,690000	51,910000
2,919877	-0,706658	18,800	-0,136056	22,690000	51,910000
2,923814	-0,614645	19,001	-0,136020	22,690000	51,910000
2,927772	-0,614645	19,202	-0,136020	22,690000	51,910000
2,931802	-0,830569	19,402	-0,136105	22,690000	51,910000
2,935829	-0,606058	19,603	-0,136016	22,690000	51,910000
2,939860	-0,863693	19,804	-0,136119	22,690000	51,910000
2,943835	-0,988831	20,006	-0,136168	22,690000	51,910000
2,947841	-0,814620	20,206	-0,136099	22,690000	51,910000
2,951822	-1,112741	20,406	-0,136218	22,690000	51,910000
2,955852	-0,863693	20,606	-0,136119	22,690000	51,910000
2,959820	-0,896818	20,806	-0,136132	22,690000	51,910000
2,963853	-0,880869	21,007	-0,136125	22,690000	51,910000
2,967859	-0,964294	21,209	-0,136159	22,690000	51,910000
2,971847	-0,722607	21,410	-0,136063	22,690000	51,910000
2,975822	-0,821981	21,610	-0,136102	22,690000	51,910000
2,979834	-0,997419	21,811	-0,136172	22,690000	51,910000
2,983822	-0,913994	22,012	-0,136139	22,690000	51,910000
2,987874	-0,980243	22,212	-0,136165	22,690000	51,910000
2,991893	-1,079617	22,413	-0,136205	22,700000	51,975000
2,995834	-1,354428	22,613	-0,136314	22,700000	51,975000
2,999802	-1,312716	22,814	-0,136297	22,700000	51,975000
3,003822	-1,063668	23,016	-0,136198	22,700000	51,975000
3,007797	-1,271003	23,216	-0,136281	22,700000	51,975000
3,011819	-1,437853	23,416	-0,136347	22,700000	51,975000
3,015841	-1,288179	23,617	-0,136288	22,700000	51,975000
3,019839	-1,021955	23,817	-0,136182	22,700000	51,975000
3,023850	-1,213342	24,017	-0,136258	22,700000	51,975000
3,027820	-1,188805	24,217	-0,136248	22,700000	51,975000
3,031832	-1,520051	24,417	-0,136380	22,690000	51,950000
3,035824	-1,404729	24,617	-0,136334	22,690000	51,950000
3,039787	-1,570352	24,819	-0,136400	22,690000	51,950000
3,043818	-1,827988	25,019	-0,136502	22,690000	51,950000
3,047805	-1,711438	25,220	-0,136456	22,690000	51,950000
3,051792	-1,878288	25,420	-0,136522	22,690000	51,950000
3,055840	-1,935949	25,620	-0,136545	22,690000	51,950000
3,059852	-2,110160	25,821	-0,136615	22,690000	51,950000
3,063817	-69,028001	26,021	-0,163248	22,690000	51,950000
3,067825	-70,191043	26,221	-0,163711	22,690000	51,950000
3,071816	-69,510148	26,421	-0,163440	22,690000	51,950000
3,075820	-68,396180	26,621	-0,162997	22,690000	51,950000
3,079836	-66,451643	26,821	-0,162223	22,690000	51,950000
3,083803	-65,097215	27,021	-0,161684	22,690000	51,950000
3,087810	-63,758735	27,221	-0,161151	22,690000	51,950000
3,091866	-62,030121	27,421	-0,160463	22,690000	51,950000
3,095808	-59,570312	27,621	-0,159484	22,690000	51,950000
3,099774	-59,578900	27,821	-0,159487	22,690000	51,950000
3,103801	-56,885992	28,021	-0,158416	22,690000	51,950000
3,107847	-55,273928	28,222	-0,157774	22,690000	51,950000
3,111853	-55,215040	28,422	-0,157750	22,690000	51,950000
3,115840	-52,614145	28,623	-0,156715	22,690000	51,950000
3,119832	-52,455883	28,823	-0,156652	22,690000	51,950000
3,123896	-50,993493	29,023	-0,156070	22,690000	51,950000
3,127768	-48,417135	29,224	-0,155045	22,690000	51,950000
3,131796	-46,738821	29,424	-0,154377	22,690000	51,950000
3,135826	-45,400342	29,624	-0,153844	22,690000	51,950000
3,139673	-43,953900	29,826	-0,153269	22,690000	51,950000
3,143774	-42,374961	30,029	-0,152640	22,690000	51,950000
3,147800	-40,638986	30,230	-0,151949	22,690000	51,950000
3,151754	-39,791241	30,431	-0,151612	22,690000	51,950000
3,155788	-38,444174	30,632	-0,151076	22,690000	51,950000
3,159817	-36,948659	30,834	-0,150480	22,690000	51,950000
3,163850	-35,444557	31,034	-0,149882	22,690000	51,950000
3,167859	-33,949042	31,236	-0,149287	22,690000	51,950000
3,171804	-31,115048	31,436	-0,148159	22,690000	51,950000
3,175779	-30,756811	31,636	-0,148016	22,690000	51,950000
3,179820	-28,065130	31,837	-0,146945	22,690000	51,950000
3,183865	-27,299584	32,037	-0,146640	22,690000	51,950000
3,187776	-25,546433	32,239	-0,145942	22,690000	51,950000
3,191813	-24,050919	32,440	-0,145347	22,700000	51,925000
3,195806	-21,375186	32,641	-0,144282	22,700000	51,925000
3,199774	-19,620809	32,841	-0,143584	22,700000	51,925000
3,203814	-17,900783	33,041	-0,142899	22,700000	51,925000
3,207848	-17,394099	33,242	-0,142698	22,700000	51,925000
3,211740	-14,534342	33,443	-0,141560	22,700000	51,925000
3,215758	-13,811734	33,643	-0,141272	22,700000	51,925000
3,219822	-11,069753	33,844	-0,140181	22,700000	51,925000
3,223846	-9,722686	34,044	-0,139645	22,700000	51,925000
3,227795	-7,960947	34,244	-0,138943	22,700000	51,925000
3,231799	-6,615107	34,444	-0,138408	22,690000	51,910000
3,235776	-3,972499	34,644	-0,137356	22,690000	51,910000
3,239838	-2,459809	34,845	-0,136754	22,690000	51,910000
3,243727	-0,614645	35,046	-0,136020	22,690000	51,910000
3,247770	1,096793	35,247	-0,135338	22,690000	51,910000
3,251764	2,576358	35,449	-0,134750	22,690000	51,910000
3,255825	4,064512	35,651	-0,134157	22,690000	51,910000
3,259799	5,751413	35,852	-0,133486	22,690000	51,910000
3,263776	7,746251	36,053	-0,132692	22,690000	51,910000
3,267799	9,224590	36,254	-0,132104	22,690000	51,910000
3,271727	11,369101	36,455	-0,131250	22,700000	51,925000
3,275883	14,277933	36,655	-0,130092	22,700000	51,925000
3,279800	14,859454	36,855	-0,129861	22,700000	51,925000
3,283790	17,917959	37,055	-0,128644	22,700000	51,925000
3,287746	18,748528	37,255	-0,128313	22,700000	51,925000
3,291786	20,626816	37,457	-0,127565	22,700000	51,925000
3,295779	22,438854	37,659	-0,126844	22,700000	51,925000
3,299766	23,826407	37,861	-0,126292	22,700000	51,925000
3,303782	25,929207	38,062	-0,125455	22,700000	51,925000
3,307736	28,439316	38,262	-0,124456	22,700000	51,925000
3,311764	30,650077	38,462	-0,123576	22,690000	51,950000
3,315753	31,405808	38,663	-0,123275	22,690000	51,950000
3,319843	33,841080	38,864	-0,122306	22,690000	51,950000
3,323779	34,821323	39,064	-0,121916	22,690000	51,950000
3,327853	36,675075	39,264	-0,121178	22,690000	51,950000
3,331796	39,733580	39,464	-0,119961	22,690000	51,950000
3,335758	40,913798	39,664	-0,119491	22,690000	51,950000
3,339774	42,733197	39,864	-0,118767	22,690000	51,950000
3,343747	45,300968	40,066	-0,117745	22,690000	51,950000
3,347747	47,055345	40,266	-0,117047	22,690000	51,950000
3,351789	47,836840	40,467	-0,116736	22,690000	51,950000
3,355822	49,398604	40,667	-0,116114	22,690000	51,950000
3,359845	51,435154	40,867	-0,115304	22,690000	51,950000
3,363760	53,320803	41,067	-0,114553	22,690000	51,950000
3,367767	55,249391	41,267	-0,113786	22,690000	51,950000
3,371763	57,808574	41,469	-0,112767	22,690000	51,950000
3,375779	42,757734	41,670	-0,118757	22,690000	51,950000
3,379767	31,905131	41,870	-0,123077	22,690000	51,950000
3,383798	32,054805	42,071	-0,123017	22,690000	51,950000
3,387759	33,924505	42,271	-0,122273	22,690000	51,950000
3,391773	35,719368	42,471	-0,121559	22,700000	51,935000
3,395791	37,547356	42,671	-0,120831	22,700000	51,935000
3,399772	40,821785	42,873	-0,119528	22,700000	51,935000
3,403769	42,134501	43,073	-0,119005	22,700000	51,935000
3,407787	44,928009	43,273	-0,117894	22,700000	51,935000
3,411794	46,830834	43,474	-0,117136	22,700000	51,935000
3,415772	48,401186	43,677	-0,116511	22,700000	51,935000
3,419744	50,695371	43,877	-0,115598	22,700000	51,935000
3,423773	52,340560	44,079	-0,114943	22,700000	51,935000
3,427754	53,794362	44,280	-0,114365	22,700000	51,935000
3,431723	55,665289	44,481	-0,113620	22,690000	51,935000
3,435732	57,517814	44,682	-0,112883	22,690000	51,935000
3,439739	59,362977	44,882	-0,112148	22,690000	51,935000
3,443725	60,002159	45,083	-0,111894	22,690000	51,935000
3,447753	60,900204	45,284	-0,111537	22,690000	51,935000
3,451780	62,155259	45,484	-0,111037	22,690000	51,935000
3,455749	63,643412	45,684	-0,110445	22,690000	51,935000
3,459767	65,305777	45,885	-0,109783	22,690000	51,935000
3,463731	66,485994	46,085	-0,109313	22,690000	51,935000
3,467720	67,142352	46,285	-0,109052	22,690000	51,935000
3,471719	68,637867	46,486	-0,108457	22,690000	51,935000
3,475778	69,726072	46,686	-0,108024	22,690000	51,935000
3,479748	71,637484	46,887	-0,107263	22,690000	51,935000
3,483747	73,374686	47,087	-0,106572	22,690000	51,935000
3,487761	75,568271	47,288	-0,105699	22,690000	51,935000
3,491775	77,505447	47,488	-0,104928	22,690000	51,935000
3,495775	79,532182	47,688	-0,104121	22,690000	51,935000
3,499699	81,244847	47,889	-0,103439	22,690000	51,935000
3,503770	84,759736	48,090	-0,102041	22,690000	51,935000
3,507755	86,763162	48,291	-0,101243	22,690000	51,935000
3,511742	88,881910	48,491	-0,100400	22,690000	51,885000
3,515719	90,751610	48,692	-0,099656	22,690000	51,885000
3,519773	91,358894	48,892	-0,099414	22,690000	51,885000
3,523707	93,362319	49,093	-0,098617	22,690000	51,885000
3,527730	95,430767	49,293	-0,097793	22,690000	51,885000
3,531737	98,555522	49,493	-0,096550	22,690000	51,885000
3,535770	100,750334	49,693	-0,095676	22,690000	51,885000
3,539714	103,293567	49,893	-0,094664	22,690000	51,885000
3,543714	105,022181	50,093	-0,093976	22,690000	51,885000
3,547734	107,107805	50,294	-0,093146	22,690000	51,885000
3,551680	108,404572	50,495	-0,092630	22,700000	51,895000
3,555718	110,631281	50,695	-0,091744	22,700000	51,895000
3,559723	113,540113	50,896	-0,090586	22,700000	51,895000
3,563750	115,526362	51,097	-0,089795	22,700000	51,895000
3,567744	117,578861	51,297	-0,088979	22,700000	51,895000
3,571772	119,955245	51,498	-0,088033	22,700000	51,895000
3,575719	122,099757	51,698	-0,087179	22,700000	51,895000
3,579764	124,028345	51,898	-0,086412	22,700000	51,895000
3,583736	126,562991	52,099	-0,085403	22,700000	51,895000
3,587730	128,881713	52,300	-0,084480	22,700000	51,895000
3,591753	131,216385	52,501	-0,083551	22,700000	51,950000
3,595720	133,169510	52,702	-0,082773	22,700000	51,950000
3,599714	135,637906	52,903	-0,081791	22,700000	51,950000
3,603682	139,161383	53,104	-0,080389	22,700000	51,950000
3,607711	141,662904	53,304	-0,079393	22,700000	51,950000
3,611723	142,643147	53,505	-0,079003	22,700000	51,950000
3,615693	144,763122	53,705	-0,078159	22,700000	51,950000
3,619694	147,273231	53,906	-0,077160	22,700000	51,950000
3,623766	149,341679	54,106	-0,076337	22,700000	51,950000
3,627680	153,056542	54,307	-0,074858	22,700000	51,950000
3,631742	154,078498	54,508	-0,074452	22,700000	51,950000
3,635698	156,289259	54,708	-0,073572	22,700000	51,950000
3,639712	158,924505	54,908	-0,072523	22,700000	51,950000
3,643745	161,276352	55,110	-0,071587	22,700000	51,950000
3,647755	164,791241	55,312	-0,070188	22,700000	51,950000
3,651703	166,728417	55,512	-0,069417	22,700000	51,950000
3,655685	168,091434	55,712	-0,068875	22,700000	51,950000
3,659708	170,891076	55,912	-0,067760	22,700000	51,950000
3,663710	172,511729	56,112	-0,067115	22,700000	51,950000
3,667746	175,810694	56,312	-0,065802	22,700000	51,950000
3,671729	177,697570	56,513	-0,065051	22,690000	51,965000
3,675702	181,213686	56,713	-0,063652	22,690000	51,965000
3,679775	182,260178	56,913	-0,063235	22,690000	51,965000
3,683752	184,504063	57,114	-0,062342	22,690000	51,965000
3,687682	186,639987	57,314	-0,061492	22,690000	51,965000
3,691696	189,374607	57,514	-0,060404	22,690000	51,965000
3,695680	192,166889	57,714	-0,059292	22,690000	51,965000
3,699780	194,210800	57,915	-0,058479	22,690000	51,965000
3,703739	197,593191	58,115	-0,057133	22,690000	51,965000
3,707736	200,352348	58,317	-0,056035	22,690000	51,965000
3,711733	201,292105	58,518	-0,055661	22,690000	51,965000
3,715723	203,527403	58,719	-0,054771	22,690000	51,965000
3,719728	206,119710	58,919	-0,053739	22,690000	51,965000
3,723690	209,968299	59,120	-0,052208	22,690000	51,965000
3,727756	212,337321	59,320	-0,051265	22,690000	51,965000
3,731737	214,762779	59,520	-0,050299	22,690000	51,965000
3,735727	215,860798	59,721	-0,049862	22,690000	51,965000
3,739707	219,384275	59,921	-0,048460	22,690000	51,965000
3,743624	220,314218	60,121	-0,048090	22,690000	51,965000
3,747720	223,007125	60,321	-0,047018	22,690000	51,965000
3,751725	227,113350	60,521	-0,045384	22,690000	51,935000
3,755661	227,820008	60,721	-0,045103	22,690000	51,935000
3,759749	230,245466	60,921	-0,044137	22,690000	51,935000
3,763691	232,273428	61,122	-0,043330	22,690000	51,935000
3,767657	234,999460	61,322	-0,042245	22,690000	51,935000
3,771734	237,525518	61,522	-0,041240	22,690000	51,935000
3,775757	241,182720	61,723	-0,039784	22,690000	51,935000
3,779723	243,360356	61,923	-0,038917	22,690000	51,935000
3,783743	244,798210	62,125	-0,038345	22,690000	51,935000
3,787708	248,304511	62,325	-0,036950	22,690000	51,935000
3,791677	250,415898	62,526	-0,036109	22,710000	51,955000
3,795689	251,911413	62,727	-0,035514	22,710000	51,955000
3,799722	254,703694	62,928	-0,034403	22,710000	51,955000
3,803722	256,665407	63,129	-0,033622	22,710000	51,955000
3,807725	259,025842	63,330	-0,032683	22,710000	51,955000
3,811681	261,236603	63,531	-0,031803	22,710000	51,955000
3,815649	265,341601	63,731	-0,030169	22,710000	51,955000
3,819687	268,109346	63,933	-0,029067	22,710000	51,955000
3,823698	269,014751	64,134	-0,028707	22,710000	51,955000
3,827712	272,929589	64,336	-0,027149	22,710000	51,955000
3,831725	273,427685	64,537	-0,026951	22,690000	51,910000
3,835642	276,112005	64,737	-0,025882	22,690000	51,910000
3,839722	278,688364	64,938	-0,024857	22,690000	51,910000
3,843690	282,511189	65,140	-0,023335	22,690000	51,910000
3,847724	284,913336	65,341	-0,022379	22,690000	51,910000
3,851677	287,016135	65,542	-0,021542	22,690000	51,910000
3,855727	289,542193	65,743	-0,020537	22,690000	51,910000
3,859696	291,105184	65,944	-0,019915	22,690000	51,910000
3,863744	293,888878	66,146	-0,018807	22,690000	51,910000
3,867733	295,924201	66,346	-0,017997	22,690000	51,910000
3,871716	299,273467	66,546	-0,016664	22,690000	51,910000
3,875680	301,076918	66,746	-0,015946	22,690000	51,910000
3,879739	303,653276	66,947	-0,014921	22,690000	51,910000
3,883722	305,573277	67,148	-0,014157	22,690000	51,910000
3,887725	307,925124	67,349	-0,013221	22,690000	51,910000
3,891686	310,667105	67,550	-0,012129	22,690000	51,910000
3,895726	312,870505	67,750	-0,011252	22,690000	51,910000
3,899658	316,693330	67,951	-0,009731	22,690000	51,910000
3,903713	319,302813	68,152	-0,008692	22,690000	51,910000
3,907635	320,199631	68,352	-0,008335	22,700000	51,910000
3,911692	322,668028	68,552	-0,007353	22,700000	51,910000
3,915707	326,607402	68,753	-0,005785	22,700000	51,910000
3,919731	329,150636	68,953	-0,004773	22,700000	51,910000
3,923750	329,899007	69,153	-0,004475	22,700000	51,910000
3,927657	332,623812	69,353	-0,003391	22,700000	51,910000
3,931716	336,314139	69,554	-0,001922	22,700000	51,910000
3,935611	337,777756	69,754	-0,001339	22,700000	51,910000
3,939687	339,705117	69,955	-0,000572	22,700000	51,910000
3,943689	342,472862	70,155	0,000529	22,700000	51,910000
3,947649	344,708160	70,356	0,001419	22,700000	51,925000
3,951677	348,689247	70,556	0,003003	22,700000	51,925000
3,955707	350,858295	70,757	0,003867	22,700000	51,925000
3,959658	353,177018	70,958	0,004790	22,700000	51,925000
3,963714	355,603702	71,159	0,005755	22,700000	51,925000
3,967679	358,070872	71,360	0,006737	22,700000	51,925000
3,971680	360,904866	71,562	0,007865	22,700000	51,925000
3,975655	362,051959	71,763	0,008322	22,700000	51,925000
3,979662	365,101877	71,963	0,009536	22,700000	51,925000
3,983681	366,971577	72,163	0,010280	22,700000	51,925000
3,987699	369,399488	72,364	0,011246	22,700000	51,925000
3,991646	371,850709	72,565	0,012222	22,700000	51,925000
3,995696	374,535029	72,765	0,013290	22,700000	51,925000
3,999664	377,003425	72,965	0,014272	22,700000	51,925000
4,003620	380,634864	73,166	0,015718	22,700000	51,925000
4,007687	381,748832	73,367	0,016161	22,700000	51,925000
4,011662	384,175516	73,567	0,017127	22,700000	51,925000
4,015670	386,585025	73,768	0,018086	22,700000	51,925000
4,019657	388,837498	73,968	0,018982	22,700000	51,925000
4,023714	391,288719	74,170	0,019958	22,700000	51,925000
4,027745	393,906790	74,370	0,021000	22,690000	51,935000
4,031630	397,505104	74,571	0,022432	22,690000	51,935000
4,035707	398,552823	74,771	0,022849	22,690000	51,935000
4,039671	401,004044	74,972	0,023825	22,690000	51,935000
4,043653	403,714127	75,173	0,024903	22,690000	51,935000
4,047701	407,096518	75,373	0,026250	22,690000	51,935000
4,051709	409,970998	75,573	0,027394	22,690000	51,935000
4,051647	409,231215	75,773	0,027099	22,690000	51,935000
4,051625	407,046217	75,974	0,026229	22,690000	51,935000
4,051659	406,755457	76,174	0,026114	22,690000	51,935000
4,051658	406,007086	76,376	0,025816	22,700000	51,925000
4,051661	405,881949	76,577	0,025766	22,700000	51,925000
4,051720	405,324965	76,777	0,025544	22,700000	51,925000
4,051751	405,317604	76,978	0,025542	22,700000	51,925000
4,051615	405,366677	77,178	0,025561	22,700000	51,925000
4,051693	405,009667	77,380	0,025419	22,700000	51,925000
4,051706	404,893118	77,580	0,025373	22,700000	51,925000
4,051715	404,893118	77,780	0,025373	22,700000	51,925000
4,051681	404,644070	77,980	0,025273	22,700000	51,925000
4,051599	404,361897	78,180	0,025161	22,700000	51,925000
4,051637	404,569233	78,381	0,025244	22,690000	51,935000
4,051649	404,154562	78,582	0,025079	22,690000	51,935000
4,051704	404,137386	78,783	0,025072	22,690000	51,935000
4,051734	404,112849	78,983	0,025062	22,690000	51,935000
4,051680	404,053961	79,183	0,025039	22,690000	51,935000
4,051641	403,937412	79,384	0,024992	22,690000	51,935000
4,051719	403,705539	79,584	0,024900	22,690000	51,935000
4,051696	403,904287	79,784	0,024979	22,690000	51,935000
4,051699	403,588990	79,984	0,024854	22,690000	51,935000
4,051728	403,580402	80,184	0,024850	22,690000	51,935000
4,051663	403,214804	80,384	0,024705	22,680000	51,910000
4,051677	403,073718	80,584	0,024648	22,680000	51,910000
4,051728	402,741245	80,784	0,024516	22,680000	51,910000
4,051688	403,122792	80,985	0,024668	22,680000	51,910000
4,051689	402,906868	81,185	0,024582	22,680000	51,910000
4,051631	403,073718	81,385	0,024648	22,680000	51,910000
4,051620	402,915456	81,586	0,024585	22,680000	51,910000
4,051671	402,798907	81,786	0,024539	22,680000	51,910000
4,051615	403,089667	81,986	0,024655	22,680000	51,910000
4,051681	402,732657	82,187	0,024513	22,680000	51,910000
4,051697	402,492197	82,387	0,024417	22,700000	51,965000
4,051622	402,640645	82,588	0,024476	22,700000	51,965000
4,051696	402,508146	82,788	0,024423	22,700000	51,965000
4,051698	402,017411	82,990	0,024228	22,700000	51,965000
4,051674	402,325347	83,191	0,024351	22,700000	51,965000
4,051647	402,367060	83,391	0,024367	22,700000	51,965000
4,051751	402,109424	83,591	0,024265	22,700000	51,965000
4,051765	402,241923	83,792	0,024317	22,700000	51,965000
4,051658	402,441897	83,993	0,024397	22,700000	51,965000
4,051641	401,868964	84,193	0,024169	22,700000	51,965000
4,051687	401,818664	84,394	0,024149	22,690000	51,925000
4,051656	401,794127	84,595	0,024139	22,690000	51,925000
4,051665	401,702114	84,795	0,024103	22,690000	51,925000
4,051671	401,776951	84,995	0,024132	22,690000	51,925000
4,051665	401,651814	85,195	0,024083	22,690000	51,925000
4,051715	401,851788	85,396	0,024162	22,690000	51,925000
4,051678	401,719290	85,596	0,024109	22,690000	51,925000
4,047679	398,319724	85,797	0,022756	22,690000	51,925000
4,043683	397,073257	85,997	0,022260	22,690000	51,925000
4,039642	394,098176	86,197	0,021076	22,690000	51,925000
4,035631	391,903364	86,398	0,020203	22,690000	51,925000
4,031643	388,853447	86,598	0,018989	22,690000	51,925000
4,027659	386,177715	86,798	0,017924	22,690000	51,925000
4,023635	383,667606	86,998	0,016925	22,690000	51,925000
4,019650	380,917036	87,200	0,015830	22,690000	51,925000
4,015687	376,902825	87,400	0,014232	22,690000	51,925000
4,011632	374,260217	87,601	0,013181	22,690000	51,925000
4,007649	372,773290	87,801	0,012589	22,690000	51,925000
4,003676	370,320842	88,001	0,011613	22,690000	51,925000
3,999671	367,528561	88,201	0,010501	22,690000	51,925000
3,995604	364,736279	88,401	0,009390	22,690000	51,925000
3,991685	360,455844	88,601	0,007687	22,690000	51,925000
3,987637	357,664789	88,802	0,006576	22,690000	51,925000
3,983685	356,350846	89,003	0,006053	22,690000	51,925000
3,979663	353,575740	89,203	0,004948	22,690000	51,925000
3,975677	349,852289	89,404	0,003466	22,690000	51,925000
3,971676	347,375304	89,605	0,002480	22,690000	51,925000
3,967675	344,757233	89,805	0,001438	22,690000	51,925000
3,963658	341,940415	90,006	0,000317	22,690000	51,925000
3,959650	339,546855	90,207	-0,000635	22,690000	51,925000
3,955631	338,159302	90,407	-0,001187	22,690000	51,965000
3,951694	335,267647	90,610	-0,002338	22,690000	51,965000
3,947663	332,233678	90,811	-0,003546	22,690000	51,965000
3,943723	329,899007	91,011	-0,004475	22,690000	51,965000
3,939670	327,172974	91,211	-0,005560	22,690000	51,965000
3,935703	323,374686	91,412	-0,007072	22,690000	51,965000
3,931721	321,820283	91,612	-0,007690	22,690000	51,965000
3,927659	319,684359	91,812	-0,008541	22,690000	51,965000
3,923650	317,332512	92,013	-0,009477	22,690000	51,965000
3,919685	314,848167	92,214	-0,010465	22,690000	51,965000
3,915712	311,881674	92,415	-0,011646	22,690000	51,925000
3,911668	308,872242	92,616	-0,012844	22,690000	51,925000
3,907736	305,174554	92,817	-0,014315	22,690000	51,925000
3,903713	302,572432	93,017	-0,015351	22,690000	51,925000
3,899754	301,783576	93,217	-0,015665	22,690000	51,925000
3,895677	299,083307	93,418	-0,016740	22,690000	51,925000
3,891688	296,216188	93,618	-0,017881	22,690000	51,925000
3,887728	293,955127	93,818	-0,018781	22,690000	51,925000
3,883722	289,866078	94,018	-0,020408	22,690000	51,925000
3,879759	287,481107	94,219	-0,021357	22,690000	51,925000
3,875656	284,880212	94,421	-0,022393	22,690000	51,910000
3,871704	282,121054	94,621	-0,023491	22,690000	51,910000
3,867720	279,677195	94,821	-0,024463	22,690000	51,910000
3,863701	277,151137	95,022	-0,025469	22,690000	51,910000
3,859725	275,887494	95,223	-0,025972	22,690000	51,910000
3,855732	272,372605	95,423	-0,027371	22,690000	51,910000
3,851694	270,544618	95,624	-0,028098	22,690000	51,910000
3,847741	268,224668	95,825	-0,029021	22,690000	51,910000
3,843676	264,709779	96,025	-0,030420	22,690000	51,910000
3,839670	262,175133	96,226	-0,031429	22,690000	51,910000
3,835737	260,812117	96,426	-0,031972	22,690000	51,935000
3,831622	257,662826	96,626	-0,033225	22,690000	51,935000
3,827731	255,434889	96,828	-0,034112	22,690000	51,935000
3,823724	252,783694	97,030	-0,035167	22,690000	51,935000
3,819678	250,182799	97,231	-0,036202	22,690000	51,935000
3,815689	247,531603	97,431	-0,037257	22,690000	51,935000
3,811645	245,313481	97,631	-0,038140	22,690000	51,935000
3,807725	242,786197	97,831	-0,039146	22,690000	51,935000
3,803740	240,277314	98,031	-0,040145	22,690000	51,935000
3,799718	237,808918	98,231	-0,041127	22,690000	51,935000
3,795708	235,265684	98,431	-0,042139	22,700000	51,895000
3,791684	231,368022	98,632	-0,043690	22,700000	51,895000
3,787662	230,038130	98,832	-0,044220	22,700000	51,895000
3,783748	227,627395	99,033	-0,045179	22,700000	51,895000
3,779718	223,506448	99,234	-0,046819	22,700000	51,895000
3,775658	221,095713	99,436	-0,047779	22,700000	51,895000
3,771700	219,998920	99,637	-0,048215	22,700000	51,895000
3,767726	217,680198	99,839	-0,049138	22,700000	51,895000
3,763711	215,244926	100,040	-0,050107	22,700000	51,895000
3,759755	211,787698	100,241	-0,051483	22,700000	51,895000
3,755689	209,810037	100,441	-0,052271	22,700000	51,895000
3,751802	206,726994	100,641	-0,053498	22,700000	51,895000
3,747725	203,967837	100,841	-0,054596	22,700000	51,895000
3,743690	202,637946	101,043	-0,055125	22,700000	51,895000
3,739680	199,945038	101,243	-0,056197	22,700000	51,895000
3,735742	196,886532	101,443	-0,057414	22,700000	51,895000
3,731682	194,477024	101,644	-0,058373	22,700000	51,895000
3,727719	192,266263	101,845	-0,059253	22,700000	51,895000
3,723720	190,280013	102,045	-0,060043	22,700000	51,895000
3,719721	187,430070	102,246	-0,061178	22,700000	51,895000
3,715632	185,294147	102,447	-0,062028	22,700000	51,950000
3,711753	182,526402	102,650	-0,063129	22,700000	51,950000
3,707755	180,456727	102,851	-0,063953	22,700000	51,950000
3,703701	177,481647	103,051	-0,065137	22,700000	51,950000
3,699700	173,775371	103,252	-0,066612	22,700000	51,950000
3,695695	172,586566	103,453	-0,067085	22,700000	51,950000
3,691761	170,342680	103,653	-0,067979	22,700000	51,950000
3,687736	167,891459	103,854	-0,068954	22,700000	51,950000
3,683661	163,835535	104,055	-0,070568	22,700000	51,950000
3,679729	162,571893	104,255	-0,071071	22,700000	51,950000
3,675740	159,239803	104,455	-0,072397	22,700000	51,950000
3,671731	156,438933	104,655	-0,073512	22,700000	51,950000
3,667709	153,895699	104,855	-0,074524	22,700000	51,950000
3,663719	152,757194	105,056	-0,074978	22,700000	51,950000
3,659695	150,605322	105,256	-0,075834	22,700000	51,950000
3,655753	147,165270	105,457	-0,077203	22,700000	51,950000
3,651702	144,106764	105,657	-0,078420	22,700000	51,950000
3,647749	141,937716	105,857	-0,079284	22,700000	51,950000
3,643800	140,283939	106,058	-0,079942	22,700000	51,950000
3,639676	137,608207	106,259	-0,081007	22,700000	51,950000
3,635749	135,089510	106,459	-0,082009	22,690000	51,950000
3,631752	133,086085	106,659	-0,082807	22,690000	51,950000
3,627739	130,967337	106,861	-0,083650	22,690000	51,950000
3,623713	127,992256	107,061	-0,084834	22,690000	51,950000
3,619688	125,631821	107,261	-0,085773	22,690000	51,950000
3,615772	123,387936	107,463	-0,086667	22,690000	51,950000
3,611751	121,359974	107,663	-0,087474	22,690000	51,950000
3,607768	118,891577	107,864	-0,088456	22,690000	51,950000
3,603685	115,027039	108,065	-0,089994	22,690000	51,950000
3,599747	114,187883	108,266	-0,090328	22,690000	51,950000
3,595744	110,091473	108,467	-0,091958	22,690000	51,935000
3,591750	107,731038	108,667	-0,092898	22,690000	51,935000
3,587685	107,323728	108,867	-0,093060	22,690000	51,935000
3,583731	104,514271	109,068	-0,094178	22,690000	51,935000
3,579783	101,049682	109,270	-0,095557	22,690000	51,935000
3,575697	100,235062	109,471	-0,095881	22,690000	51,935000
3,571665	96,304275	109,671	-0,097446	22,690000	51,935000
3,567725	94,018677	109,872	-0,098355	22,690000	51,935000
3,563701	91,741667	110,072	-0,099262	22,690000	51,935000
3,559745	88,916261	110,272	-0,100386	22,690000	51,935000
3,555693	88,225552	110,473	-0,100661	22,690000	51,950000
3,551760	85,957129	110,673	-0,101564	22,690000	51,950000
3,547717	82,790662	110,873	-0,102824	22,690000	51,950000
3,543737	80,297729	111,073	-0,103816	22,690000	51,950000
3,539752	78,494278	111,274	-0,104534	22,690000	51,950000
3,535698	76,948463	111,474	-0,105149	22,690000	51,950000
3,531775	74,911913	111,674	-0,105960	22,690000	51,950000
3,527744	73,649497	111,875	-0,106462	22,690000	51,950000
3,523727	71,097676	112,076	-0,107478	22,690000	51,950000
3,519815	68,662404	112,276	-0,108447	22,690000	51,950000
3,515792	66,468819	112,476	-0,109320	22,690000	51,950000
3,511751	64,191809	112,676	-0,110227	22,690000	51,950000
3,507712	62,254633	112,876	-0,110998	22,690000	51,950000
3,503761	59,637789	113,078	-0,112039	22,690000	51,950000
3,499676	57,268766	113,279	-0,112982	22,690000	51,950000
3,495748	55,423602	113,480	-0,113716	22,690000	51,950000
3,491737	52,980969	113,681	-0,114688	22,690000	51,950000
3,487780	49,515154	113,881	-0,116068	22,690000	51,950000
3,483767	48,733659	114,081	-0,116379	22,690000	51,950000
3,479758	45,775754	114,282	-0,117556	22,690000	51,950000
3,475774	43,763741	114,482	-0,118357	22,700000	51,935000
3,471724	41,570155	114,682	-0,119230	22,700000	51,935000
3,467727	37,655318	114,882	-0,120788	22,700000	51,935000
3,463739	36,749912	115,082	-0,121148	22,700000	51,935000
3,459779	34,664288	115,282	-0,121979	22,700000	51,935000
3,455760	31,156760	115,482	-0,123375	22,700000	51,935000
3,451780	29,943418	115,682	-0,123857	22,700000	51,935000
3,447709	27,549859	115,882	-0,124810	22,700000	51,935000
3,443756	25,347686	116,084	-0,125687	22,700000	51,935000
3,439709	23,136925	116,284	-0,126566	22,700000	51,935000
3,435721	20,767902	116,485	-0,127509	22,690000	51,910000
3,431762	17,353614	116,686	-0,128868	22,690000	51,910000
3,427743	15,425026	116,887	-0,129636	22,690000	51,910000
3,423823	14,062009	117,087	-0,130178	22,690000	51,910000
3,419716	11,203478	117,287	-0,131316	22,690000	51,910000
3,415765	8,352308	117,487	-0,132451	22,690000	51,910000
3,411806	6,507145	117,687	-0,133185	22,690000	51,910000
3,407777	4,038748	117,887	-0,134167	22,690000	51,910000
3,403796	2,767745	118,089	-0,134673	22,690000	51,910000
3,399823	-0,664946	118,289	-0,136040	22,690000	51,910000
3,395808	-1,255055	118,491	-0,136274	22,700000	51,965000
3,391804	-4,155298	118,691	-0,137429	22,700000	51,965000
3,387796	-6,780730	118,893	-0,138474	22,700000	51,965000
3,383767	-9,590187	119,094	-0,139592	22,700000	51,965000
3,379754	-10,380270	119,295	-0,139906	22,700000	51,965000
3,375763	-14,077958	119,495	-0,141378	22,700000	51,965000
3,371794	-15,083965	119,695	-0,141778	22,700000	51,965000
3,367808	-16,887416	119,895	-0,142496	22,700000	51,965000
3,363761	-19,430649	120,095	-0,143508	22,700000	51,965000
3,359804	-22,862113	120,295	-0,144874	22,700000	51,965000
3,355775	-24,989449	120,496	-0,145721	22,690000	51,965000
3,351780	-27,250510	120,697	-0,146621	22,690000	51,965000
3,347755	-28,089667	120,897	-0,146955	22,690000	51,965000
3,343731	-30,192466	121,098	-0,147792	22,690000	51,965000
3,339802	-32,194665	121,299	-0,148588	22,690000	51,965000
3,335768	-35,834691	121,500	-0,150037	22,690000	51,965000
3,331758	-36,508225	121,700	-0,150305	22,690000	51,965000
3,327777	-39,632979	121,901	-0,151549	22,690000	51,965000
3,323800	-41,710015	122,102	-0,152375	22,690000	51,965000
3,319793	-44,021376	122,302	-0,153295	22,690000	51,965000
3,315848	-45,691102	122,503	-0,153960	22,690000	51,950000
3,311761	-47,785313	122,703	-0,154793	22,690000	51,950000
3,307760	-48,840393	122,903	-0,155213	22,690000	51,950000
3,303806	-51,750451	123,104	-0,156372	22,690000	51,950000
3,299821	-52,639909	123,304	-0,156726	22,690000	51,950000
3,295779	-55,514388	123,506	-0,157870	22,690000	51,950000
3,291817	-57,384088	123,708	-0,158614	22,690000	51,950000
3,287783	-59,512651	123,910	-0,159461	22,690000	51,950000
3,283772	-60,076996	124,112	-0,159686	22,690000	51,950000
3,279781	-63,194390	124,313	-0,160926	22,690000	51,950000
3,275764	-63,791860	124,513	-0,161164	22,690000	51,950000
3,271728	-67,374225	124,714	-0,162590	22,690000	51,950000
3,267881	-67,980282	124,915	-0,162831	22,690000	51,950000
3,263809	-70,838813	125,115	-0,163969	22,690000	51,950000
3,259895	-71,395797	125,315	-0,164190	22,690000	51,950000
3,255788	-74,570852	125,516	-0,165454	22,690000	51,950000
3,251811	-74,462891	125,716	-0,165411	22,690000	51,950000
3,247854	-77,471096	125,916	-0,166608	22,690000	51,950000
3,243791	-77,455147	126,117	-0,166602	22,690000	51,950000
3,239777	-80,579901	126,317	-0,167846	22,690000	51,950000
3,235798	-81,767480	126,518	-0,168318	22,700000	51,965000
3,231797	-83,255634	126,718	-0,168911	22,700000	51,965000
3,227785	-83,438432	126,918	-0,168983	22,700000	51,965000
3,223817	-86,081040	127,118	-0,170035	22,700000	51,965000
3,219796	-87,195008	127,318	-0,170479	22,700000	51,965000
3,215831	-88,457424	127,518	-0,170981	22,700000	51,965000
3,211808	-88,432887	127,719	-0,170971	22,700000	51,965000
3,207830	-90,993297	127,921	-0,171990	22,700000	51,965000
3,203806	-92,413974	128,121	-0,172556	22,700000	51,965000
3,199802	-93,343917	128,322	-0,172926	22,700000	51,965000
3,195797	-94,250550	128,523	-0,173287	22,690000	51,950000
3,191832	-96,012288	128,724	-0,173988	22,690000	51,950000
3,187821	-97,126256	128,925	-0,174431	22,690000	51,950000
3,183807	-99,560302	129,125	-0,175400	22,690000	51,950000
3,179795	-101,039867	129,325	-0,175989	22,690000	51,950000
3,175840	-102,752532	129,525	-0,176670	22,690000	51,950000
3,171841	-103,791663	129,726	-0,177084	22,690000	51,950000
3,167835	-105,677312	129,926	-0,177834	22,690000	51,950000
3,163797	-107,680738	130,127	-0,178632	22,690000	51,950000
3,159793	-110,447256	130,328	-0,179733	22,690000	51,950000
3,155824	-111,620112	130,528	-0,180200	22,690000	51,925000
3,151852	-113,414975	130,728	-0,180914	22,690000	51,925000
3,147806	-115,458886	130,929	-0,181728	22,690000	51,925000
3,143848	-117,519973	131,130	-0,182548	22,690000	51,925000
3,139819	-119,314836	131,331	-0,183262	22,690000	51,925000
3,135796	-121,234836	131,531	-0,184026	22,690000	51,925000
3,131848	-124,709240	131,732	-0,185409	22,690000	51,925000
3,127875	-125,282173	131,932	-0,185637	22,690000	51,925000
3,123796	-127,550595	132,132	-0,186540	22,690000	51,925000
3,119850	-130,659401	132,333	-0,187777	22,690000	51,925000
3,115829	-132,586762	132,533	-0,188544	22,690000	51,925000
3,111854	-133,493395	132,733	-0,188905	22,690000	51,925000
3,107841	-135,229370	132,933	-0,189596	22,690000	51,925000
3,103783	-137,041408	133,133	-0,190317	22,690000	51,925000
3,099796	-139,427607	133,333	-0,191267	22,690000	51,925000
3,095874	-141,163582	133,533	-0,191958	22,690000	51,925000
3,091802	-144,314100	133,734	-0,193212	22,690000	51,925000
3,087873	-146,158036	133,936	-0,193946	22,690000	51,925000
3,083773	-148,102573	134,137	-0,194720	22,690000	51,925000
3,079831	-148,718446	134,337	-0,194965	22,690000	51,925000
3,075822	-151,618689	134,539	-0,196119	22,690000	51,925000
3,071818	-153,904287	134,740	-0,197029	22,690000	51,925000
3,067823	-155,416977	134,941	-0,197631	22,690000	51,925000
3,063833	-157,020454	135,142	-0,198269	22,690000	51,925000
3,059837	-158,874205	135,342	-0,199007	22,690000	51,925000
3,055872	-160,785618	135,543	-0,199768	22,690000	51,925000
3,051855	-163,985209	135,743	-0,201041	22,690000	51,925000
3,047808	-165,663523	135,944	-0,201709	22,690000	51,925000
3,043784	-166,843740	136,144	-0,202179	22,690000	51,925000
3,039771	-168,920776	136,344	-0,203005	22,690000	51,925000
3,035828	-170,417517	136,545	-0,203601	22,700000	51,910000
3,031849	-172,628278	136,745	-0,204481	22,700000	51,910000
3,027941	-173,998655	136,946	-0,205026	22,700000	51,910000
3,023860	-175,760394	137,148	-0,205728	22,700000	51,910000
3,019789	-179,384471	137,349	-0,207170	22,700000	51,910000
3,015914	-180,987948	137,549	-0,207808	22,700000	51,910000
3,011857	-181,711782	137,750	-0,208096	22,700000	51,910000
3,007875	-183,581482	137,951	-0,208840	22,700000	51,910000
3,003803	-186,814198	138,153	-0,210127	22,700000	51,910000
2,999797	-187,287757	138,353	-0,210315	22,690000	51,925000
2,995862	-189,091208	138,553	-0,211033	22,690000	51,925000
2,991810	-190,836997	138,754	-0,211728	22,690000	51,925000
2,987795	-192,440474	138,954	-0,212366	22,690000	51,925000
2,983887	-194,808270	139,154	-0,213309	22,690000	51,925000
2,979890	-196,703734	139,354	-0,214063	22,690000	51,925000
2,975914	-199,213843	139,555	-0,215062	22,690000	51,925000
2,971859	-200,717945	139,755	-0,215661	22,690000	51,925000
2,967831	-202,171747	139,955	-0,216239	22,690000	51,925000
2,963841	-202,961831	140,156	-0,216554	22,690000	51,925000
2,959900	-204,922317	140,357	-0,217334	22,700000	51,925000
2,955866	-207,025116	140,558	-0,218171	22,700000	51,925000
2,951819	-208,297346	140,758	-0,218677	22,700000	51,925000
2,947870	-210,167046	140,958	-0,219421	22,700000	51,925000
2,943853	-211,836772	141,158	-0,220086	22,700000	51,925000
2,939818	-213,424299	141,360	-0,220718	22,700000	51,925000
2,935885	-214,754191	141,561	-0,221247	22,700000	51,925000
2,931857	-217,663022	141,761	-0,222405	22,700000	51,925000
2,927862	-218,120632	141,961	-0,222587	22,700000	51,925000
2,923840	-219,407585	142,161	-0,223099	22,700000	51,925000
2,919879	-221,835496	142,361	-0,224065	22,700000	51,895000
2,915849	-223,181336	142,562	-0,224601	22,700000	51,895000
2,911935	-222,690601	142,763	-0,224406	22,700000	51,895000
2,907835	-222,948237	142,963	-0,224508	22,700000	51,895000
2,903872	-223,463509	143,163	-0,224713	22,700000	51,895000
2,899787	-181,104497	143,364	-0,207854	22,700000	51,895000
2,895810	-161,915535	143,564	-0,200217	22,700000	51,895000
2,891877	-156,322383	143,765	-0,197991	22,700000	51,895000
2,887902	-154,053961	143,966	-0,197088	22,700000	51,895000
2,883876	-153,230753	144,168	-0,196761	22,700000	51,895000
2,879902	-151,061705	144,368	-0,195897	22,700000	51,895000
2,875871	-151,086242	144,569	-0,195907	22,700000	51,895000
2,871818	-151,070293	144,769	-0,195901	22,700000	51,895000
2,867885	-151,004044	144,971	-0,195875	22,700000	51,895000
2,863868	-150,821245	145,172	-0,195802	22,700000	51,895000
2,859845	-151,227328	145,372	-0,195963	22,700000	51,895000
2,855844	-151,378229	145,573	-0,196023	22,700000	51,895000
2,851931	-152,290996	145,773	-0,196387	22,700000	51,895000
2,847854	-152,724070	145,973	-0,196559	22,700000	51,895000
2,843893	-152,616108	146,174	-0,196516	22,700000	51,895000
2,839839	-152,416133	146,375	-0,196437	22,700000	51,910000
2,835930	-153,164504	146,576	-0,196734	22,700000	51,910000
2,831907	-153,629476	146,776	-0,196919	22,700000	51,910000
2,827855	-153,911648	146,978	-0,197032	22,700000	51,910000
2,823869	-153,820862	147,179	-0,196996	22,700000	51,910000
2,819845	-153,853987	147,381	-0,197009	22,700000	51,910000
2,815820	-154,069910	147,581	-0,197095	22,700000	51,910000
2,811879	-154,020837	147,783	-0,197075	22,700000	51,910000
2,807873	-154,419559	147,983	-0,197234	22,700000	51,910000
2,803894	-152,781731	148,183	-0,196582	22,700000	51,910000
2,799915	-150,264261	148,383	-0,195580	22,690000	51,925000
2,795839	-144,928745	148,583	-0,193457	22,690000	51,925000
2,791857	-139,617767	148,783	-0,191343	22,690000	51,925000
2,787851	-134,590187	148,985	-0,189342	22,690000	51,925000
2,783938	-127,301547	149,185	-0,186441	22,690000	51,925000
2,779906	-121,525597	149,385	-0,184142	22,690000	51,925000
2,775897	-105,078616	149,587	-0,177596	22,690000	51,925000
2,771915	-0,656358	149,789	-0,136036	22,690000	51,925000
2,767846	-0,630594	149,990	-0,136026	22,690000	51,925000
2,763871	-0,548396	150,191	-0,135993	22,690000	51,925000
2,759847	-0,788856	150,392	-0,136089	22,690000	51,935000
2,755868	-0,664946	150,592	-0,136040	22,690000	51,935000
2,751872	-0,581521	150,793	-0,136006	22,690000	51,935000
2,747878	-0,672307	150,993	-0,136042	22,690000	51,935000
2,743900	-0,664946	151,194	-0,136040	22,690000	51,935000
2,739912	-0,464971	151,395	-0,135960	22,690000	51,935000
2,735827	-0,572933	151,595	-0,136003	22,690000	51,935000
2,731868	-0,515272	151,796	-0,135980	22,690000	51,935000
2,727869	-0,539808	151,997	-0,135990	22,690000	51,935000
2,723911	-0,531221	152,197	-0,135986	22,690000	51,935000
2,719844	-0,863693	152,397	-0,136119	22,690000	51,935000
2,715863	-0,282173	152,597	-0,135887	22,690000	51,935000
2,711805	-0,781495	152,798	-0,136086	22,690000	51,935000
2,707867	-0,830569	152,998	-0,136105	22,690000	51,935000
2,703844	-0,855106	153,199	-0,136115	22,690000	51,935000
2,699844	-0,515272	153,400	-0,135980	22,690000	51,935000
2,695860	-0,614645	153,600	-0,136020	22,690000	51,935000
2,691916	-0,515272	153,800	-0,135980	22,690000	51,935000
2,687879	-0,515272	154,001	-0,135980	22,690000	51,935000
2,683865	-0,440435	154,201	-0,135950	22,690000	51,935000
2,679857	-0,506684	154,401	-0,135977	22,700000	51,925000
2,675896	-0,548396	154,601	-0,135993	22,700000	51,925000
2,671812	-0,548396	154,801	-0,135993	22,700000	51,925000
2,667876	-0,680895	155,001	-0,136046	22,700000	51,925000
2,663903	-0,257636	155,202	-0,135877	22,700000	51,925000
2,659893	-0,464971	155,402	-0,135960	22,700000	51,925000
2,655960	-0,498096	155,603	-0,135973	22,700000	51,925000
2,651868	-0,498096	155,803	-0,135973	22,700000	51,925000
2,647854	-0,407310	156,003	-0,135937	22,700000	51,925000
2,643861	-0,290760	156,204	-0,135891	22,700000	51,925000
2,639856	-0,523860	156,404	-0,135983	22,700000	51,925000
2,635892	-0,506684	156,604	-0,135977	22,700000	51,925000
2,631829	-0,747144	156,804	-0,136072	22,700000	51,925000
2,627877	-0,614645	157,005	-0,136020	22,700000	51,925000
2,623896	-0,431847	157,206	-0,135947	22,700000	51,925000
2,619857	-0,506684	157,406	-0,135977	22,700000	51,925000
2,615883	-0,506684	157,607	-0,135977	22,700000	51,925000
2,611880	-0,423259	157,808	-0,135943	22,700000	51,925000
2,607827	-0,556984	158,009	-0,135997	22,700000	51,925000
2,603887	-0,414671	158,210	-0,135940	22,700000	51,925000
2,599924	-0,266224	158,411	-0,135881	22,690000	51,885000
2,595903	-0,240460	158,612	-0,135871	22,690000	51,885000
2,591915	-0,398722	158,812	-0,135934	22,690000	51,885000
2,587917	-0,456383	159,013	-0,135957	22,690000	51,885000
2,583858	-0,407310	159,213	-0,135937	22,690000	51,885000
2,579848	-0,623233	159,413	-0,136023	22,690000	51,885000
2,575830	-0,215923	159,614	-0,135861	22,690000	51,885000
2,571854	-0,182799	159,815	-0,135848	22,690000	51,885000
2,567866	-0,381546	160,015	-0,135927	22,690000	51,885000
2,563913	-0,565572	160,216	-0,136000	22,690000	51,885000
2,559878	-0,249048	160,416	-0,135874	22,690000	51,925000
2,555858	-0,290760	160,616	-0,135891	22,690000	51,925000
2,551887	-0,306709	160,817	-0,135897	22,690000	51,925000