File: Nanoindentation Datenauswertung/data/PDMS/EM-PDMS-50-10-50-1um-1
Quasi static measurement routine
Tip parameters (shape,radius, material...)
24.08.2022

Piezo position[nm]	MEMS displ.[nm]	Time[ms]	Cap [pf]	Temp [°C]	Rh [%]
eoh
2,625858	0,092013	0,188	-0,135857	22,720000	52,295000
2,629910	-0,099374	0,388	-0,135934	22,720000	52,295000
2,633823	-0,024537	0,588	-0,135904	22,720000	52,295000
2,637876	0,017176	0,789	-0,135887	22,720000	52,295000
2,641891	-0,033125	0,989	-0,135907	22,720000	52,295000
2,645856	-0,107962	1,189	-0,135937	22,720000	52,295000
2,649893	-0,049073	1,389	-0,135914	22,720000	52,295000
2,653906	0,074837	1,589	-0,135864	22,720000	52,295000
2,657860	0,067476	1,789	-0,135867	22,720000	52,295000
2,661799	-0,107962	1,989	-0,135937	22,720000	52,310000
2,665859	-0,007361	2,190	-0,135897	22,720000	52,310000
2,669860	-0,082198	2,391	-0,135927	22,720000	52,310000
2,673872	0,058888	2,592	-0,135871	22,720000	52,310000
2,677883	-0,149674	2,792	-0,135954	22,720000	52,310000
2,681922	-0,073610	2,992	-0,135923	22,720000	52,310000
2,685836	0,000000	3,192	-0,135894	22,720000	52,310000
2,689938	-0,041712	3,392	-0,135911	22,720000	52,310000
2,693897	-0,357010	3,592	-0,136036	22,720000	52,310000
2,697869	-0,115323	3,792	-0,135940	22,720000	52,310000
2,701854	0,125137	3,992	-0,135844	22,720000	52,320000
2,705826	0,074837	4,193	-0,135864	22,720000	52,320000
2,709859	-0,207336	4,393	-0,135977	22,720000	52,320000
2,713895	0,017176	4,595	-0,135887	22,720000	52,320000
2,717887	-0,257636	4,796	-0,135997	22,720000	52,320000
2,721784	0,100601	4,997	-0,135854	22,720000	52,320000
2,725848	0,008588	5,198	-0,135891	22,720000	52,320000
2,729820	-0,190160	5,398	-0,135970	22,720000	52,320000
2,733854	-0,273585	5,599	-0,136003	22,720000	52,320000
2,737875	-0,398722	5,800	-0,136053	22,720000	52,320000
2,741866	-0,315297	6,001	-0,136020	22,720000	52,335000
2,745938	-0,149674	6,202	-0,135954	22,720000	52,335000
2,749809	-0,090786	6,402	-0,135930	22,720000	52,335000
2,753889	-0,357010	6,602	-0,136036	22,720000	52,335000
2,757868	-0,215923	6,803	-0,135980	22,720000	52,335000
2,761856	-0,033125	7,003	-0,135907	22,720000	52,335000
2,765874	-0,007361	7,203	-0,135897	22,720000	52,335000
2,769857	-0,298121	7,404	-0,136013	22,720000	52,335000
2,773872	-0,190160	7,605	-0,135970	22,720000	52,335000
2,777870	-0,066249	7,805	-0,135920	22,720000	52,335000
2,781818	-0,041712	8,006	-0,135911	22,720000	52,335000
2,785846	-0,132498	8,207	-0,135947	22,720000	52,335000
2,789857	-0,123911	8,408	-0,135943	22,720000	52,335000
2,793849	-0,306709	8,608	-0,136016	22,720000	52,335000
2,797884	-0,082198	8,809	-0,135927	22,720000	52,335000
2,801823	-0,266224	9,011	-0,136000	22,720000	52,335000
2,805928	-0,157035	9,211	-0,135957	22,720000	52,335000
2,809798	-0,339834	9,412	-0,136029	22,720000	52,335000
2,813913	-0,149674	9,612	-0,135954	22,720000	52,335000
2,817848	-0,249048	9,813	-0,135993	22,720000	52,335000
2,821802	-0,390134	10,013	-0,136049	22,730000	52,325000
2,825910	-0,207336	10,213	-0,135977	22,730000	52,325000
2,829816	-0,597470	10,413	-0,136132	22,730000	52,325000
2,833824	-0,049073	10,614	-0,135914	22,730000	52,325000
2,837844	-0,132498	10,814	-0,135947	22,730000	52,325000
2,841909	-0,266224	11,014	-0,136000	22,730000	52,325000
2,845868	-0,339834	11,215	-0,136029	22,730000	52,325000
2,849907	-0,190160	11,415	-0,135970	22,730000	52,325000
2,853829	-0,249048	11,616	-0,135993	22,730000	52,325000
2,857805	-0,398722	11,818	-0,136053	22,730000	52,325000
2,861888	-0,298121	12,019	-0,136013	22,730000	52,325000
2,865839	-0,240460	12,219	-0,135990	22,730000	52,325000
2,869863	-0,880869	12,419	-0,136245	22,730000	52,325000
2,873832	-0,198748	12,621	-0,135973	22,730000	52,325000
2,877892	-0,531221	12,823	-0,136105	22,730000	52,325000
2,881862	-0,482147	13,024	-0,136086	22,730000	52,325000
2,885882	-0,473559	13,224	-0,136083	22,730000	52,325000
2,889854	-0,339834	13,424	-0,136029	22,730000	52,325000
2,893879	-0,381546	13,624	-0,136046	22,730000	52,325000
2,897846	-0,414671	13,824	-0,136059	22,730000	52,325000
2,901902	-0,597470	14,024	-0,136132	22,710000	52,335000
2,905885	-0,506684	14,227	-0,136096	22,710000	52,335000
2,909846	-0,482147	14,428	-0,136086	22,710000	52,335000
2,913907	-0,764320	14,629	-0,136198	22,710000	52,335000
2,917830	-0,407310	14,829	-0,136056	22,710000	52,335000
2,921858	-0,639182	15,029	-0,136148	22,710000	52,335000
2,925847	-0,456383	15,229	-0,136076	22,710000	52,335000
2,929850	-0,606058	15,429	-0,136135	22,710000	52,335000
2,933848	-0,423259	15,629	-0,136063	22,710000	52,335000
2,937858	-0,597470	15,830	-0,136132	22,710000	52,335000
2,941887	-0,390134	16,031	-0,136049	22,730000	52,340000
2,945831	-0,249048	16,231	-0,135993	22,730000	52,340000
2,949803	-0,531221	16,431	-0,136105	22,730000	52,340000
2,953861	-0,689483	16,632	-0,136168	22,730000	52,340000
2,957868	-0,447796	16,834	-0,136072	22,730000	52,340000
2,961835	-0,564345	17,035	-0,136119	22,730000	52,340000
2,965859	-0,597470	17,235	-0,136132	22,730000	52,340000
2,969901	-0,739783	17,436	-0,136188	22,730000	52,340000
2,973876	-0,489508	17,636	-0,136089	22,730000	52,340000
2,977876	-0,813393	17,837	-0,136218	22,730000	52,340000
2,981852	-0,447796	18,037	-0,136072	22,720000	52,285000
2,985840	-0,647770	18,238	-0,136152	22,720000	52,285000
2,989882	-0,639182	18,439	-0,136148	22,720000	52,285000
2,993816	-0,797444	18,640	-0,136211	22,720000	52,285000
2,997829	-0,722607	18,840	-0,136182	22,720000	52,285000
3,001832	-0,482147	19,042	-0,136086	22,720000	52,285000
3,005842	-0,590109	19,243	-0,136129	22,720000	52,285000
3,009860	-0,731195	19,443	-0,136185	22,720000	52,285000
3,013825	-0,813393	19,644	-0,136218	22,720000	52,285000
3,017857	-0,971655	19,844	-0,136281	22,720000	52,285000
3,021814	-0,863693	20,045	-0,136238	22,720000	52,285000
3,025816	-0,913994	20,245	-0,136258	22,720000	52,285000
3,029852	-0,315297	20,446	-0,136020	22,720000	52,285000
3,033828	-0,821981	20,646	-0,136221	22,720000	52,285000
3,037880	-1,030543	20,846	-0,136304	22,720000	52,285000
3,041810	-0,797444	21,046	-0,136211	22,720000	52,285000
3,045833	-0,980243	21,247	-0,136284	22,720000	52,285000
3,049801	-0,980243	21,447	-0,136284	22,720000	52,285000
3,053861	-1,486927	21,647	-0,136486	22,720000	52,285000
3,057818	-1,004780	21,847	-0,136294	22,720000	52,285000
3,061850	-0,872281	22,048	-0,136241	22,720000	52,285000
3,065855	-1,121329	22,248	-0,136340	22,720000	52,285000
3,069796	-1,088205	22,449	-0,136327	22,720000	52,285000
3,073800	-1,088205	22,651	-0,136327	22,720000	52,285000
3,077790	-1,112741	22,853	-0,136337	22,720000	52,285000
3,081817	-1,220703	23,053	-0,136380	22,720000	52,285000
3,085838	-1,271003	23,254	-0,136400	22,720000	52,285000
3,089794	-1,387553	23,454	-0,136446	22,720000	52,285000
3,093786	-1,138505	23,655	-0,136347	22,720000	52,285000
3,097773	-1,478339	23,855	-0,136482	22,720000	52,285000
3,101831	-1,304128	24,056	-0,136413	22,730000	52,315000
3,105846	-1,370377	24,256	-0,136439	22,730000	52,315000
3,109823	-1,520051	24,456	-0,136499	22,730000	52,315000
3,113786	-1,445214	24,658	-0,136469	22,730000	52,315000
3,117778	-1,636601	24,858	-0,136545	22,730000	52,315000
3,121865	-1,587527	25,059	-0,136526	22,730000	52,315000
3,125847	-1,486927	25,260	-0,136486	22,730000	52,315000
3,129779	-1,803451	25,462	-0,136612	22,730000	52,315000
3,133816	-1,827988	25,663	-0,136622	22,730000	52,315000
3,137813	-1,711438	25,863	-0,136575	22,730000	52,315000
3,141783	-2,069675	26,064	-0,136718	22,720000	52,310000
3,145825	-2,351847	26,264	-0,136830	22,720000	52,310000
3,149793	-65,203949	26,466	-0,161845	22,720000	52,310000
3,153841	-65,570774	26,667	-0,161991	22,720000	52,310000
3,157827	-64,274007	26,868	-0,161475	22,720000	52,310000
3,161786	-63,434850	27,068	-0,161141	22,720000	52,310000
3,165835	-62,046070	27,268	-0,160588	22,720000	52,310000
3,169854	-61,821559	27,468	-0,160499	22,720000	52,310000
3,173791	-60,118709	27,668	-0,159821	22,720000	52,310000
3,177831	-58,772868	27,868	-0,159286	22,720000	52,310000
3,181826	-57,276127	28,068	-0,158690	22,720000	52,310000
3,185811	-55,714363	28,268	-0,158068	22,720000	52,310000
3,189795	-53,221429	28,469	-0,157076	22,720000	52,310000
3,193797	-52,547896	28,669	-0,156808	22,720000	52,310000
3,197819	-51,341915	28,869	-0,156328	22,720000	52,310000
3,201771	-49,656240	29,069	-0,155657	22,720000	52,310000
3,205825	-48,184035	29,269	-0,155071	22,720000	52,310000
3,209767	-46,589147	29,470	-0,154437	22,720000	52,310000
3,213805	-44,094987	29,672	-0,153444	22,720000	52,310000
3,217787	-43,290181	29,872	-0,153124	22,720000	52,310000
3,221822	-41,627817	30,073	-0,152462	22,720000	52,295000
3,225781	-40,131075	30,273	-0,151866	22,720000	52,295000
3,229796	-38,677273	30,474	-0,151288	22,720000	52,295000
3,233773	-37,298308	30,675	-0,150739	22,720000	52,295000
3,237802	-34,205451	30,876	-0,149508	22,720000	52,295000
3,241751	-33,183496	31,077	-0,149101	22,720000	52,295000
3,245798	-31,223010	31,278	-0,148321	22,720000	52,295000
3,249804	-30,648850	31,478	-0,148092	22,720000	52,295000
3,253873	-29,136159	31,679	-0,147490	22,720000	52,295000
3,257731	-27,582983	31,879	-0,146872	22,720000	52,295000
3,261747	-24,731813	32,079	-0,145737	22,730000	52,290000
3,265754	-23,119749	32,281	-0,145096	22,730000	52,290000
3,269749	-22,662139	32,481	-0,144914	22,730000	52,290000
3,273824	-20,900400	32,683	-0,144212	22,730000	52,290000
3,277795	-18,074994	32,883	-0,143088	22,730000	52,290000
3,281730	-17,410048	33,085	-0,142823	22,730000	52,290000
3,285799	-15,831109	33,287	-0,142195	22,730000	52,290000
3,289738	-14,210457	33,487	-0,141550	22,730000	52,290000
3,293749	-12,473255	33,689	-0,140858	22,730000	52,290000
3,297824	-9,482226	33,890	-0,139668	22,730000	52,290000
3,301747	-8,110621	34,090	-0,139122	22,730000	52,340000
3,305748	-7,370839	34,291	-0,138828	22,730000	52,340000
3,309860	-4,554020	34,492	-0,137707	22,730000	52,340000
3,313747	-3,797061	34,694	-0,137405	22,730000	52,340000
3,317722	-1,927361	34,895	-0,136661	22,730000	52,340000
3,321799	0,807259	35,095	-0,135573	22,730000	52,340000
3,325781	2,626659	35,295	-0,134849	22,730000	52,340000
3,329754	4,396985	35,497	-0,134144	22,730000	52,340000
3,333751	6,000461	35,698	-0,133506	22,730000	52,340000
3,337758	7,429727	35,899	-0,132937	22,730000	52,340000
3,341779	9,292066	36,099	-0,132196	22,730000	52,340000
3,345806	10,712743	36,301	-0,131630	22,730000	52,340000
3,349756	11,984974	36,501	-0,131124	22,730000	52,340000
3,353741	14,403070	36,702	-0,130162	22,730000	52,340000
3,357768	15,773447	36,903	-0,129616	22,730000	52,340000
3,361731	19,006164	37,104	-0,128330	22,730000	52,340000
3,365833	19,804835	37,304	-0,128012	22,730000	52,340000
3,369768	21,383774	37,504	-0,127383	22,730000	52,340000
3,373805	24,483992	37,704	-0,126149	22,730000	52,340000
3,377757	24,874126	37,904	-0,125994	22,730000	52,340000
3,381731	26,951162	38,104	-0,125167	22,720000	52,320000
3,385769	28,580402	38,305	-0,124519	22,720000	52,320000
3,389750	30,218230	38,505	-0,123867	22,720000	52,320000
3,393760	19,480950	38,706	-0,128141	22,720000	52,320000
3,397749	17,893422	38,906	-0,128772	22,720000	52,320000
3,401776	5,526902	39,108	-0,133694	22,720000	52,320000
3,405777	6,665407	39,309	-0,133241	22,720000	52,320000
3,409804	8,336360	39,510	-0,132576	22,720000	52,320000
3,413728	9,856411	39,710	-0,131971	22,720000	52,320000
3,417730	10,446520	39,911	-0,131736	22,720000	52,320000
3,421730	14,046060	40,111	-0,130304	22,720000	52,320000
3,425781	15,625000	40,313	-0,129675	22,720000	52,320000
3,429803	17,402687	40,513	-0,128968	22,720000	52,320000
3,433742	18,492119	40,713	-0,128534	22,720000	52,320000
3,437741	20,685704	40,913	-0,127661	22,720000	52,320000
3,441705	22,613065	41,114	-0,126894	22,720000	52,320000
3,445789	24,317142	41,314	-0,126216	22,720000	52,320000
3,449820	26,761002	41,514	-0,125243	22,720000	52,320000
3,453717	28,663827	41,715	-0,124486	22,720000	52,320000
3,457830	30,001080	41,917	-0,123954	22,720000	52,320000
3,461811	31,995917	42,118	-0,123160	22,710000	52,295000
3,465791	32,603202	42,318	-0,122918	22,710000	52,295000
3,469735	32,138230	42,518	-0,123103	22,710000	52,295000
3,473802	33,250972	42,718	-0,122660	22,710000	52,295000
3,477733	33,733119	42,918	-0,122468	22,710000	52,295000
3,481754	34,373528	43,118	-0,122213	22,710000	52,295000
3,485753	35,985592	43,319	-0,121572	22,710000	52,295000
3,489742	37,465158	43,519	-0,120983	22,710000	52,295000
3,493707	39,026922	43,721	-0,120361	22,710000	52,295000
3,497756	40,706462	43,923	-0,119693	22,710000	52,295000
3,501735	42,433849	44,123	-0,119005	22,730000	52,300000
3,505743	44,628661	44,324	-0,118132	22,730000	52,300000
3,509723	48,434310	44,525	-0,116617	22,730000	52,300000
3,513720	50,470860	44,726	-0,115807	22,730000	52,300000
3,517681	52,598196	44,926	-0,114960	22,730000	52,300000
3,521709	54,310861	45,127	-0,114278	22,730000	52,300000
3,525808	56,396484	45,328	-0,113448	22,730000	52,300000
3,529704	57,625775	45,528	-0,112959	22,730000	52,300000
3,533705	60,219309	45,729	-0,111927	22,730000	52,300000
3,537708	62,513495	45,930	-0,111014	22,730000	52,300000
3,541704	64,656780	46,131	-0,110161	22,710000	52,320000
3,545690	66,560832	46,331	-0,109403	22,710000	52,320000
3,549743	70,025420	46,531	-0,108024	22,710000	52,320000
3,553725	72,053382	46,731	-0,107217	22,710000	52,320000
3,557719	72,942839	46,931	-0,106863	22,710000	52,320000
3,561741	75,153600	47,133	-0,105983	22,710000	52,320000
3,565711	77,853869	47,334	-0,104908	22,710000	52,320000
3,569707	80,040093	47,534	-0,104038	22,710000	52,320000
3,573701	83,281397	47,735	-0,102748	22,710000	52,320000
3,577744	83,920579	47,936	-0,102494	22,710000	52,320000
3,581733	86,456452	48,136	-0,101484	22,710000	52,320000
3,585776	88,848785	48,336	-0,100532	22,710000	52,320000
3,589723	91,167507	48,536	-0,099609	22,710000	52,320000
3,593745	94,915495	48,736	-0,098118	22,710000	52,320000
3,597756	95,846665	48,936	-0,097747	22,710000	52,320000
3,601741	99,270768	49,136	-0,096384	22,710000	52,320000
3,605690	100,035088	49,336	-0,096080	22,710000	52,320000
3,609781	103,924162	49,536	-0,094532	22,710000	52,320000
3,613659	104,689708	49,736	-0,094228	22,710000	52,320000
3,617706	107,032968	49,936	-0,093295	22,710000	52,320000
3,621715	108,777530	50,137	-0,092601	22,720000	52,320000
3,625729	111,653237	50,337	-0,091456	22,720000	52,320000
3,625710	112,310822	50,537	-0,091194	22,720000	52,320000
3,625681	112,018834	50,737	-0,091311	22,720000	52,320000
3,625682	111,719486	50,938	-0,091430	22,720000	52,320000
3,625665	111,586988	51,138	-0,091482	22,720000	52,320000
3,625657	111,379652	51,338	-0,091565	22,720000	52,320000
3,625764	111,512151	51,539	-0,091512	22,720000	52,320000
3,625693	111,188266	51,739	-0,091641	22,720000	52,320000
3,625731	110,880329	51,939	-0,091764	22,720000	52,320000
3,625732	110,747831	52,139	-0,091816	22,730000	52,315000
3,625702	110,772368	52,339	-0,091807	22,730000	52,315000
3,625673	110,573620	52,539	-0,091886	22,730000	52,315000
3,625675	110,439895	52,741	-0,091939	22,730000	52,315000
3,625683	110,199435	52,942	-0,092035	22,730000	52,315000
3,625671	110,257096	53,142	-0,092012	22,730000	52,315000
3,625727	109,990872	53,343	-0,092118	22,730000	52,315000
3,625682	110,107422	53,545	-0,092071	22,730000	52,315000
3,625699	109,451064	53,745	-0,092333	22,730000	52,315000
3,625652	109,990872	53,946	-0,092118	22,730000	52,315000
3,625613	109,741824	54,146	-0,092217	22,730000	52,325000
3,625720	109,750412	54,346	-0,092213	22,730000	52,325000
3,625759	109,509952	54,547	-0,092309	22,730000	52,325000
3,625736	109,525901	54,747	-0,092303	22,730000	52,325000
3,625710	109,534489	54,947	-0,092299	22,730000	52,325000
3,625748	109,186067	55,147	-0,092438	22,730000	52,325000
3,625658	109,118591	55,347	-0,092465	22,730000	52,325000
3,625759	109,309978	55,548	-0,092389	22,730000	52,325000
3,625683	109,417939	55,749	-0,092346	22,730000	52,325000
3,625709	108,993454	55,950	-0,092515	22,730000	52,325000
3,625697	108,902668	56,151	-0,092551	22,730000	52,325000
3,625679	108,986093	56,352	-0,092518	22,730000	52,325000
3,625760	109,127179	56,553	-0,092461	22,730000	52,325000
3,625650	108,521121	56,753	-0,092703	22,730000	52,325000
3,625742	108,662208	56,953	-0,092646	22,730000	52,325000
3,625691	108,354271	57,154	-0,092769	22,730000	52,325000
3,625689	108,611907	57,355	-0,092667	22,730000	52,325000
3,625708	108,188648	57,555	-0,092835	22,730000	52,325000
3,625668	108,495358	57,756	-0,092713	22,730000	52,325000
3,625679	108,312559	57,956	-0,092786	22,720000	52,295000
3,625709	108,129760	58,156	-0,092858	22,720000	52,295000
3,625642	107,980086	58,357	-0,092918	22,720000	52,295000
3,625729	108,512533	58,557	-0,092706	22,720000	52,295000
3,625723	108,437696	58,757	-0,092736	22,720000	52,295000
3,625664	108,138348	58,958	-0,092855	22,720000	52,295000
3,625711	108,221773	59,159	-0,092822	22,720000	52,295000
3,625692	108,046335	59,360	-0,092892	22,720000	52,295000
3,625706	107,929786	59,562	-0,092938	22,720000	52,295000
3,625671	107,889300	59,762	-0,092954	22,720000	52,295000
3,625683	108,080687	59,964	-0,092878	22,730000	52,315000
3,625641	107,814463	60,165	-0,092984	22,730000	52,315000
3,625670	107,572776	60,365	-0,093080	22,730000	52,315000
3,621684	106,608482	60,566	-0,093464	22,730000	52,315000
3,617655	103,783076	60,768	-0,094588	22,730000	52,315000
3,613712	101,007970	60,969	-0,095693	22,730000	52,315000
3,609707	98,339598	61,169	-0,096755	22,730000	52,315000
3,605701	94,234601	61,370	-0,098389	22,730000	52,315000
3,601706	91,649655	61,570	-0,099417	22,730000	52,315000
3,597756	90,087891	61,771	-0,100039	22,730000	52,315000
3,593694	87,852593	61,972	-0,100929	22,730000	52,340000
3,589727	85,100797	62,172	-0,102024	22,730000	52,340000
3,585726	82,733001	62,372	-0,102966	22,730000	52,340000
3,581717	79,890419	62,572	-0,104098	22,730000	52,340000
3,577704	77,587645	62,773	-0,105014	22,730000	52,340000
3,573734	73,607785	62,974	-0,106598	22,730000	52,340000
3,569675	70,831452	63,174	-0,107703	22,730000	52,340000
3,565771	68,437893	63,375	-0,108656	22,730000	52,340000
3,561758	65,711860	63,575	-0,109741	22,730000	52,340000
3,557729	64,789278	63,776	-0,110108	22,730000	52,340000
3,553657	61,681700	63,977	-0,111345	22,720000	52,350000
3,549732	59,878249	64,179	-0,112062	22,720000	52,350000
3,545636	55,889801	64,380	-0,113650	22,720000	52,350000
3,541664	54,626158	64,581	-0,114153	22,720000	52,350000
3,537707	52,166349	64,782	-0,115132	22,720000	52,350000
3,533676	50,162924	64,982	-0,115929	22,720000	52,350000
3,529716	47,287217	65,182	-0,117074	22,720000	52,350000
3,525763	44,520699	65,382	-0,118175	22,720000	52,350000
3,521720	42,176213	65,582	-0,119108	22,720000	52,350000
3,517759	40,066053	65,782	-0,119948	22,720000	52,350000
3,513736	37,430806	65,982	-0,120997	22,730000	52,325000
3,509720	35,120672	66,183	-0,121916	22,730000	52,325000
3,505742	32,686626	66,383	-0,122885	22,730000	52,325000
3,501686	30,634128	66,584	-0,123702	22,730000	52,325000
3,497762	28,115431	66,785	-0,124704	22,730000	52,325000
3,493758	25,647034	66,985	-0,125687	22,730000	52,325000
3,489664	23,211762	67,185	-0,126656	22,730000	52,325000
3,485716	20,585103	67,386	-0,127701	22,730000	52,325000
3,481732	18,483531	67,587	-0,128538	22,730000	52,325000
3,477733	15,973422	67,788	-0,129537	22,730000	52,325000
3,473737	13,563913	67,989	-0,130496	22,710000	52,310000
3,469789	9,882175	68,189	-0,131961	22,710000	52,310000
3,465732	7,480027	68,390	-0,132917	22,710000	52,310000
3,461754	5,136768	68,591	-0,133850	22,710000	52,310000
3,457698	3,075681	68,791	-0,134670	22,710000	52,310000
3,453721	0,948345	68,991	-0,135517	22,710000	52,310000
3,449714	-1,744563	69,192	-0,136588	22,710000	52,310000
3,445776	-2,858531	69,394	-0,137032	22,710000	52,310000
3,441789	-5,376001	69,594	-0,138034	22,710000	52,310000
3,437714	-9,233178	69,795	-0,139569	22,710000	52,310000
3,433744	-11,451299	69,995	-0,140452	22,730000	52,325000
3,429782	-13,803147	70,196	-0,141388	22,730000	52,325000
3,425776	-15,249588	70,396	-0,141963	22,730000	52,325000
3,421774	-17,584259	70,597	-0,142893	22,730000	52,325000
3,417707	-20,028119	70,797	-0,143865	22,730000	52,325000
3,413710	-22,188580	70,997	-0,144725	22,730000	52,325000
3,409736	-24,698689	71,197	-0,145724	22,730000	52,325000
3,405745	-26,610101	71,398	-0,146485	22,730000	52,325000
3,401737	-28,429501	71,598	-0,147209	22,730000	52,325000
3,397766	-31,181297	71,798	-0,148304	22,730000	52,325000
3,393766	-33,324582	71,998	-0,149157	22,720000	52,285000
3,389724	-35,178333	72,199	-0,149895	22,720000	52,285000
3,385774	-37,763279	72,400	-0,150924	22,720000	52,285000
3,381749	-40,097951	72,602	-0,151853	22,720000	52,285000
3,377775	-42,026539	72,804	-0,152621	22,720000	52,285000
3,373762	-44,386974	73,004	-0,153560	22,720000	52,285000
3,369748	-46,679933	73,205	-0,154473	22,720000	52,285000
3,365710	-50,304010	73,405	-0,155915	22,720000	52,285000
3,361735	-52,381046	73,606	-0,156742	22,720000	52,285000
3,357732	-54,426184	73,807	-0,157556	22,720000	52,285000
3,353753	-56,170746	74,008	-0,158250	22,730000	52,290000
3,349772	-58,731156	74,210	-0,159269	22,730000	52,290000
3,345749	-59,969035	74,410	-0,159762	22,730000	52,290000
3,341794	-63,142863	74,611	-0,161025	22,730000	52,290000
3,337715	-64,157457	74,812	-0,161429	22,730000	52,290000
3,333770	-67,365637	75,012	-0,162706	22,730000	52,290000
3,329768	-68,180257	75,213	-0,163030	22,730000	52,290000
3,325728	-70,948002	75,413	-0,164131	22,730000	52,290000
3,321704	-73,507184	75,613	-0,165150	22,730000	52,290000
3,317791	-74,945038	75,813	-0,165722	22,730000	52,290000
3,313786	-77,130035	76,013	-0,166592	22,720000	52,310000
3,309743	-78,518815	76,214	-0,167145	22,720000	52,310000
3,305708	-81,152834	76,414	-0,168193	22,720000	52,310000
3,301781	-82,515851	76,614	-0,168735	22,720000	52,310000
3,297813	-84,733973	76,815	-0,169618	22,720000	52,310000
3,293797	-87,028158	77,015	-0,170531	22,720000	52,310000
3,289747	-88,083238	77,215	-0,170951	22,720000	52,310000
3,285802	-90,078076	77,417	-0,171745	22,720000	52,310000
3,281795	-91,698728	77,617	-0,172390	22,720000	52,310000
3,277776	-94,532722	77,818	-0,173518	22,720000	52,310000
3,273826	-96,393834	78,019	-0,174259	22,720000	52,310000
3,269741	-96,685822	78,219	-0,174375	22,720000	52,310000
3,265752	-98,397260	78,420	-0,175056	22,720000	52,310000
3,261790	-99,751688	78,620	-0,175595	22,720000	52,310000
3,257811	-101,255791	78,821	-0,176194	22,720000	52,310000
3,253733	-102,926743	79,023	-0,176859	22,720000	52,310000
3,249768	-103,857913	79,223	-0,177229	22,720000	52,310000
3,245787	-105,959485	79,423	-0,178066	22,720000	52,310000
3,241763	-106,965492	79,623	-0,178466	22,720000	52,310000
3,237810	-106,965492	79,823	-0,178466	22,720000	52,310000
3,233747	-108,211958	80,024	-0,178962	22,720000	52,310000
3,229748	-110,455844	80,224	-0,179855	22,720000	52,310000
3,225770	-111,951358	80,424	-0,180451	22,720000	52,310000
3,221853	-113,148752	80,624	-0,180927	22,720000	52,310000
3,217801	-113,580598	80,824	-0,181099	22,720000	52,310000
3,213803	-115,401225	81,025	-0,181824	22,720000	52,310000
3,209827	-117,037826	81,226	-0,182475	22,720000	52,310000
3,205781	-119,132037	81,427	-0,183309	22,720000	52,310000
3,201773	-121,708395	81,627	-0,184334	22,720000	52,310000
3,197773	-122,864076	81,827	-0,184794	22,720000	52,310000
3,193742	-124,484728	82,029	-0,185439	22,720000	52,310000
3,189764	-126,537227	82,230	-0,186256	22,720000	52,310000
3,185806	-128,497713	82,430	-0,187036	22,720000	52,310000
3,181776	-130,600512	82,630	-0,187873	22,720000	52,310000
3,177823	-132,337714	82,831	-0,188564	22,720000	52,310000
3,173789	-134,623312	83,031	-0,189474	22,720000	52,310000
3,169829	-136,800948	83,231	-0,190341	22,720000	52,310000
3,165815	-138,646111	83,431	-0,191075	22,720000	52,310000
3,161755	-140,556297	83,633	-0,191835	22,720000	52,310000
3,157815	-142,286138	83,834	-0,192524	22,720000	52,310000
3,153763	-144,255212	84,034	-0,193308	22,730000	52,325000
3,149777	-145,842739	84,235	-0,193939	22,730000	52,325000
3,145776	-147,994612	84,436	-0,194796	22,730000	52,325000
3,141761	-151,319341	84,636	-0,196119	22,730000	52,325000
3,137842	-151,759775	84,836	-0,196294	22,730000	52,325000
3,133821	-153,704313	85,036	-0,197068	22,730000	52,325000
3,129788	-155,681974	85,237	-0,197855	22,730000	52,325000
3,125837	-157,676812	85,439	-0,198649	22,730000	52,325000
3,121808	-161,134039	85,639	-0,200025	22,730000	52,325000
3,117826	-162,770640	85,839	-0,200677	22,730000	52,325000
3,113793	-164,699229	86,039	-0,201444	22,720000	52,295000
3,109790	-165,588686	86,239	-0,201798	22,720000	52,295000
3,105782	-167,275587	86,440	-0,202470	22,720000	52,295000
3,101774	-169,328086	86,640	-0,203287	22,720000	52,295000
3,097814	-172,536265	86,841	-0,204563	22,720000	52,295000
3,093814	-174,015831	87,041	-0,205152	22,720000	52,295000
3,089760	-176,026617	87,241	-0,205953	22,720000	52,295000
3,085802	-177,189659	87,441	-0,206416	22,720000	52,295000
3,081792	-179,134196	87,641	-0,207189	22,720000	52,295000
3,077808	-181,769443	87,842	-0,208238	22,720000	52,295000
3,073824	-183,323846	88,044	-0,208857	22,730000	52,290000
3,069805	-184,927322	88,245	-0,209495	22,730000	52,290000
3,065796	-186,722185	88,446	-0,210209	22,730000	52,290000
3,061792	-188,534224	88,647	-0,210931	22,730000	52,290000
3,057803	-190,254250	88,848	-0,211615	22,730000	52,290000
3,053769	-191,991451	89,048	-0,212307	22,730000	52,290000
3,049803	-193,628052	89,249	-0,212958	22,730000	52,290000
3,045819	-195,356666	89,449	-0,213646	22,730000	52,290000
3,041838	-197,285254	89,649	-0,214414	22,730000	52,290000
3,037772	-199,246967	89,850	-0,215194	22,730000	52,290000
3,033880	-200,933869	90,051	-0,215866	22,720000	52,295000
3,029831	-202,504220	90,252	-0,216491	22,720000	52,295000
3,025825	-204,432809	90,452	-0,217258	22,720000	52,295000
3,021818	-206,177371	90,653	-0,217953	22,720000	52,295000
3,017868	-209,028541	90,853	-0,219087	22,720000	52,295000
3,013810	-210,682318	91,054	-0,219746	22,720000	52,295000
3,009826	-212,477181	91,254	-0,220460	22,720000	52,295000
3,005773	-212,767941	91,455	-0,220576	22,720000	52,295000
3,001815	-214,421718	91,655	-0,221234	22,720000	52,295000
2,997760	-216,831226	91,855	-0,222193	22,720000	52,295000
2,993804	-218,336556	92,057	-0,222792	22,710000	52,320000
2,989818	-218,493591	92,257	-0,222854	22,710000	52,320000
2,985836	-219,590384	92,457	-0,223291	22,710000	52,320000
2,981750	-220,122831	92,657	-0,223503	22,710000	52,320000
2,977839	-221,186499	92,858	-0,223926	22,710000	52,320000
2,973808	-222,084544	93,059	-0,224284	22,710000	52,320000
2,969825	-221,269924	93,259	-0,223959	22,710000	52,320000
2,965807	-199,654277	93,459	-0,215356	22,710000	52,320000
2,961863	-165,780072	93,660	-0,201875	22,710000	52,320000
2,957810	-160,486269	93,861	-0,199768	22,710000	52,320000
2,953837	-157,851023	94,062	-0,198719	22,730000	52,315000
2,949835	-157,328390	94,262	-0,198511	22,730000	52,315000
2,945868	-156,595968	94,462	-0,198219	22,730000	52,315000
2,941802	-156,903904	94,662	-0,198342	22,730000	52,315000
2,937854	-157,137003	94,862	-0,198435	22,730000	52,315000
2,933818	-157,685400	95,063	-0,198653	22,730000	52,315000
2,929808	-158,250972	95,263	-0,198878	22,730000	52,315000
2,925800	-158,616569	95,465	-0,199023	22,730000	52,315000
2,921832	-159,006703	95,667	-0,199179	22,730000	52,315000
2,917822	-159,970998	95,867	-0,199563	22,730000	52,315000
2,913845	-160,959828	96,069	-0,199956	22,730000	52,315000
2,909840	-161,242001	96,269	-0,200068	22,730000	52,315000
2,905787	-162,829529	96,469	-0,200700	22,730000	52,315000
2,901796	-163,111701	96,669	-0,200813	22,730000	52,315000
2,897863	-163,186538	96,869	-0,200842	22,730000	52,315000
2,893841	-162,330206	97,069	-0,200501	22,730000	52,315000
2,889806	-163,677273	97,270	-0,201038	22,730000	52,315000
2,885800	-163,461350	97,470	-0,200952	22,730000	52,315000
2,881898	-164,648928	97,671	-0,201424	22,730000	52,315000
2,877841	-163,651510	97,871	-0,201027	22,730000	52,315000
2,873834	-164,217082	98,072	-0,201252	22,730000	52,300000
2,869854	-164,417056	98,272	-0,201332	22,730000	52,300000
2,865853	-163,959446	98,473	-0,201150	22,730000	52,300000
2,861844	-162,812353	98,673	-0,200693	22,730000	52,300000
2,857825	-161,549937	98,874	-0,200191	22,730000	52,300000
2,853881	-161,325426	99,074	-0,200102	22,730000	52,300000
2,849795	-159,870397	99,274	-0,199522	22,730000	52,300000
2,845798	-156,712518	99,474	-0,198266	22,730000	52,300000
2,841862	-153,746025	99,674	-0,197085	22,730000	52,300000
2,837783	-149,606676	99,876	-0,195438	22,730000	52,300000
2,833797	-140,440974	100,077	-0,191790	22,720000	52,350000
2,829848	-122,181955	100,277	-0,184522	22,720000	52,350000
2,825889	-0,590109	100,478	-0,136129	22,720000	52,350000
2,821858	-0,498096	100,678	-0,136092	22,720000	52,350000
2,817807	-0,498096	100,880	-0,136092	22,720000	52,350000
2,813890	-0,764320	101,082	-0,136198	22,720000	52,350000
2,809880	-0,407310	101,282	-0,136056	22,720000	52,350000
2,805823	-0,630594	101,485	-0,136145	22,720000	52,350000
2,801865	-0,548396	101,686	-0,136112	22,720000	52,350000
2,797846	-0,390134	101,887	-0,136049	22,720000	52,350000
2,793837	-0,630594	102,087	-0,136145	22,720000	52,310000
2,789853	-0,315297	102,287	-0,136020	22,720000	52,310000
2,785865	-0,498096	102,487	-0,136092	22,720000	52,310000
2,781852	-0,390134	102,688	-0,136049	22,720000	52,310000
2,777878	-0,539808	102,888	-0,136109	22,720000	52,310000
2,773877	-0,506684	103,088	-0,136096	22,720000	52,310000
2,769874	-0,266224	103,289	-0,136000	22,720000	52,310000
2,765865	-0,489508	103,490	-0,136089	22,720000	52,310000
2,761858	-0,273585	103,691	-0,136003	22,720000	52,310000
2,757818	-0,414671	103,891	-0,136059	22,720000	52,310000
2,753863	-0,456383	104,091	-0,136076	22,710000	52,295000
2,749845	-0,623233	104,293	-0,136142	22,710000	52,295000
2,745850	-0,381546	104,493	-0,136046	22,710000	52,295000
2,741870	-0,531221	104,693	-0,136105	22,710000	52,295000
2,737828	-0,339834	104,894	-0,136029	22,710000	52,295000
2,733871	-0,506684	105,095	-0,136096	22,710000	52,295000
2,729891	-0,590109	105,295	-0,136129	22,710000	52,295000
2,725852	-0,323885	105,495	-0,136023	22,710000	52,295000
2,721860	-0,381546	105,696	-0,136046	22,710000	52,295000
2,717903	-0,531221	105,896	-0,136105	22,710000	52,295000
2,713879	-0,647770	106,097	-0,136152	22,730000	52,315000
2,709849	-0,447796	106,298	-0,136072	22,730000	52,315000
2,705835	-0,555757	106,498	-0,136115	22,730000	52,315000
2,701901	-0,365598	106,698	-0,136040	22,730000	52,315000
2,697846	-0,456383	106,900	-0,136076	22,730000	52,315000
2,693866	-0,224511	107,101	-0,135983	22,730000	52,315000
2,689911	-0,489508	107,302	-0,136089	22,730000	52,315000
2,685849	-0,407310	107,502	-0,136056	22,730000	52,315000
2,681864	-0,240460	107,703	-0,135990	22,730000	52,315000
2,677800	-0,647770	107,904	-0,136152	22,730000	52,315000
2,673793	-0,082198	108,104	-0,135927	22,730000	52,325000
2,669871	-0,339834	108,305	-0,136029	22,730000	52,325000
2,665822	-0,590109	108,506	-0,136129	22,730000	52,325000
2,661828	-0,290760	108,706	-0,136010	22,730000	52,325000
2,657920	-0,298121	108,906	-0,136013	22,730000	52,325000
2,653917	-0,057661	109,107	-0,135917	22,730000	52,325000
2,649836	-0,315297	109,308	-0,136020	22,730000	52,325000
2,645882	-0,107962	109,509	-0,135937	22,730000	52,325000
2,641828	-0,215923	109,709	-0,135980	22,730000	52,325000
2,637865	-0,107962	109,910	-0,135937	22,730000	52,325000
2,633849	-0,339834	110,111	-0,136029	22,730000	52,315000
2,629861	-0,182799	110,312	-0,135967	22,730000	52,315000
2,625871	-0,357010	110,513	-0,136036	22,730000	52,315000