File: Nanoindentation Datenauswertung/data/PDMS/EM-PDMS-125-10-125-2,5um-1
Quasi static measurement routine
Tip parameters (shape,radius, material...)
25.08.2022

Piezo position[nm]	MEMS displ.[nm]	Time[ms]	Cap [pf]	Temp [°C]	Rh [%]
eoh
2,537875	-0,182799	0,257	-0,135672	0,000000	0,000000
2,543888	0,107962	0,558	-0,135557	0,000000	0,000000
2,549916	0,050300	0,858	-0,135580	0,000000	0,000000
2,555916	-0,015949	1,159	-0,135606	0,000000	0,000000
2,561907	0,050300	1,460	-0,135580	0,000000	0,000000
2,567911	-0,024537	1,761	-0,135609	0,000000	0,000000
2,573910	-0,116550	2,061	-0,135646	0,000000	0,000000
2,579879	0,208562	2,362	-0,135517	0,000000	0,000000
2,585915	-0,049073	2,663	-0,135619	0,000000	0,000000
2,591945	-0,132498	2,965	-0,135652	0,000000	0,000000
2,597925	-0,107962	3,265	-0,135643	0,000000	0,000000
2,603874	0,092013	3,567	-0,135563	0,000000	0,000000
2,609942	0,149674	3,867	-0,135540	0,000000	0,000000
2,615812	-0,249048	4,169	-0,135699	0,000000	0,000000
2,621872	-0,024537	4,470	-0,135609	0,000000	0,000000
2,627861	-0,141086	4,770	-0,135656	0,000000	0,000000
2,633932	-0,125137	5,070	-0,135649	0,000000	0,000000
2,639908	-0,049073	5,372	-0,135619	0,000000	0,000000
2,645919	-0,266224	5,674	-0,135706	0,000000	0,000000
2,651914	-0,266224	5,975	-0,135706	0,000000	0,000000
2,657854	0,074837	6,275	-0,135570	0,000000	0,000000
2,663889	-0,057661	6,575	-0,135623	0,000000	0,000000
2,669885	-0,024537	6,876	-0,135609	0,000000	0,000000
2,675900	-0,165623	7,176	-0,135666	0,000000	0,000000
2,681888	-0,266224	7,477	-0,135706	0,000000	0,000000
2,687893	-0,357010	7,777	-0,135742	0,000000	0,000000
2,693926	-0,165623	8,079	-0,135666	0,000000	0,000000
2,699876	-0,556984	8,381	-0,135821	0,000000	0,000000
2,705902	-0,240460	8,681	-0,135695	0,000000	0,000000
2,711852	-0,440435	8,981	-0,135775	0,000000	0,000000
2,717931	-0,315297	9,281	-0,135725	0,000000	0,000000
2,723920	-0,215923	9,581	-0,135686	0,000000	0,000000
2,729962	-0,198748	9,882	-0,135679	0,000000	0,000000
2,735830	-0,440435	10,184	-0,135775	0,000000	0,000000
2,741897	-0,523860	10,486	-0,135808	0,000000	0,000000
2,747890	-0,556984	10,788	-0,135821	0,000000	0,000000
2,753869	-0,623233	11,090	-0,135848	0,000000	0,000000
2,759886	-0,306709	11,391	-0,135722	0,000000	0,000000
2,765869	-0,680895	11,692	-0,135871	0,000000	0,000000
2,771931	-0,556984	11,992	-0,135821	0,000000	0,000000
2,777873	-0,581521	12,293	-0,135831	0,000000	0,000000
2,783902	-0,597470	12,593	-0,135837	0,000000	0,000000
2,789922	-0,971655	12,893	-0,135986	0,000000	0,000000
2,795885	-0,680895	13,196	-0,135871	0,000000	0,000000
2,801875	-0,565572	13,496	-0,135825	0,000000	0,000000
2,807883	-0,630594	13,797	-0,135851	0,000000	0,000000
2,813881	-0,473559	14,097	-0,135788	0,000000	0,000000
2,819939	-0,947118	14,397	-0,135977	0,000000	0,000000
2,825900	-0,299348	14,698	-0,135719	0,000000	0,000000
2,831905	-0,639182	14,998	-0,135854	0,000000	0,000000
2,837936	-0,747144	15,300	-0,135897	0,000000	0,000000
2,843937	-0,772908	15,602	-0,135907	0,000000	0,000000
2,849892	-0,689483	15,903	-0,135874	0,000000	0,000000
2,855859	-0,806032	16,204	-0,135920	0,000000	0,000000
2,861897	-0,556984	16,505	-0,135821	0,000000	0,000000
2,867847	-0,672307	16,806	-0,135867	0,000000	0,000000
2,873859	-0,913994	17,109	-0,135963	0,000000	0,000000
2,879913	-0,997419	17,411	-0,135997	0,000000	0,000000
2,885872	-0,813393	17,712	-0,135923	0,000000	0,000000
2,891899	-1,063668	18,013	-0,136023	0,000000	0,000000
2,897898	-1,396141	18,313	-0,136155	0,000000	0,000000
2,903855	-1,037904	18,613	-0,136013	0,000000	0,000000
2,909894	-0,929943	18,913	-0,135970	0,000000	0,000000
2,915926	-0,997419	19,213	-0,135997	0,000000	0,000000
2,921868	-1,046492	19,513	-0,136016	0,000000	0,000000
2,927884	-1,204754	19,814	-0,136079	0,000000	0,000000
2,933896	-1,213342	20,115	-0,136083	0,000000	0,000000
2,939916	-1,237879	20,416	-0,136092	0,000000	0,000000
2,945926	-1,354428	20,717	-0,136139	0,000000	0,000000
2,951893	-1,237879	21,018	-0,136092	0,000000	0,000000
2,957862	-1,370377	21,319	-0,136145	0,000000	0,000000
2,963869	-1,262416	21,620	-0,136102	0,000000	0,000000
2,969882	-1,237879	21,921	-0,136092	0,000000	0,000000
2,975930	-1,437853	22,221	-0,136172	0,000000	0,000000
2,981893	-1,329892	22,522	-0,136129	0,000000	0,000000
2,987875	-1,561764	22,824	-0,136221	0,000000	0,000000
2,993911	-1,777687	23,124	-0,136307	0,000000	0,000000
2,999875	-1,720026	23,425	-0,136284	0,000000	0,000000
3,005911	-1,836575	23,726	-0,136331	0,000000	0,000000
3,011877	-1,794863	24,027	-0,136314	0,000000	0,000000
3,017894	-2,043911	24,328	-0,136413	0,000000	0,000000
3,023888	-1,878288	24,628	-0,136347	0,000000	0,000000
3,029866	-1,969074	24,929	-0,136383	0,000000	0,000000
3,035842	-1,669726	25,229	-0,136264	0,000000	0,000000
3,041913	-2,301547	25,530	-0,136516	0,000000	0,000000
3,047876	-2,384972	25,831	-0,136549	0,000000	0,000000
3,053857	-2,484346	26,131	-0,136588	0,000000	0,000000
3,059876	-2,501521	26,431	-0,136595	0,000000	0,000000
3,065895	-2,908831	26,731	-0,136757	0,000000	0,000000
3,071846	-3,149291	27,032	-0,136853	0,000000	0,000000
3,077805	-68,911452	27,334	-0,163026	0,000000	0,000000
3,083861	-67,515311	27,634	-0,162471	0,000000	0,000000
3,089905	-64,972077	27,935	-0,161458	0,000000	0,000000
3,095860	-63,360013	28,237	-0,160817	0,000000	0,000000
3,101877	-60,833955	28,540	-0,159812	0,000000	0,000000
3,107820	-59,445175	28,842	-0,159259	0,000000	0,000000
3,113896	-56,969417	29,142	-0,158273	0,000000	0,000000
3,119850	-54,683819	29,442	-0,157364	0,000000	0,000000
3,125872	-51,467052	29,742	-0,156083	0,000000	0,000000
3,131871	-49,913876	30,042	-0,155465	0,000000	0,000000
3,137836	-48,384010	30,343	-0,154856	0,000000	0,000000
3,143871	-45,026156	30,643	-0,153520	0,000000	0,000000
3,149873	-43,838578	30,944	-0,153047	0,000000	0,000000
3,155813	-41,494092	31,244	-0,152114	0,000000	0,000000
3,161868	-39,134883	31,545	-0,151175	0,000000	0,000000
3,167859	-36,849285	31,845	-0,150266	0,000000	0,000000
3,173849	-33,441131	32,147	-0,148909	0,000000	0,000000
3,179859	-32,311214	32,447	-0,148459	0,000000	0,000000
3,185840	-29,228172	32,749	-0,147232	0,000000	0,000000
3,191844	-26,876325	33,051	-0,146296	0,000000	0,000000
3,197775	-24,158880	33,351	-0,145215	0,000000	0,000000
3,203853	-21,075838	33,651	-0,143988	0,000000	0,000000
3,209878	-18,308093	33,952	-0,142886	0,000000	0,000000
3,215893	-15,607824	34,252	-0,141812	0,000000	0,000000
3,221868	-13,545511	34,552	-0,140991	0,000000	0,000000
3,227786	-11,734699	34,853	-0,140270	0,000000	0,000000
3,233817	-8,643069	35,154	-0,139040	0,000000	0,000000
3,239867	-6,240921	35,454	-0,138083	0,000000	0,000000
3,245782	-3,631438	35,755	-0,137045	0,000000	0,000000
3,251889	-0,581521	36,055	-0,135831	0,000000	0,000000
3,257863	1,670952	36,356	-0,134935	0,000000	0,000000
3,263824	3,615490	36,657	-0,134161	0,000000	0,000000
3,269875	6,615107	36,959	-0,132967	0,000000	0,000000
3,275854	9,142392	37,261	-0,131961	0,000000	0,000000
3,281836	11,610788	37,562	-0,130979	0,000000	0,000000
3,287880	14,070597	37,862	-0,130000	0,000000	0,000000
3,293834	18,292144	38,162	-0,128319	0,000000	0,000000
3,299864	19,845320	38,463	-0,127701	0,000000	0,000000
3,305886	23,744209	38,763	-0,126149	0,000000	0,000000
3,311861	25,114587	39,064	-0,125604	0,000000	0,000000
3,317816	27,948581	39,364	-0,124476	0,000000	0,000000
3,323805	32,137003	39,664	-0,122809	0,000000	0,000000
3,329853	34,647113	39,964	-0,121810	0,000000	0,000000
3,335847	21,616873	40,264	-0,126996	0,000000	0,000000
3,341857	12,034047	40,564	-0,130810	0,000000	0,000000
3,347834	10,106686	40,864	-0,131577	0,000000	0,000000
3,353811	13,264565	41,164	-0,130320	0,000000	0,000000
3,359814	17,019914	41,465	-0,128826	0,000000	0,000000
3,365840	20,120132	41,766	-0,127592	0,000000	0,000000
3,371785	21,441436	42,067	-0,127066	0,000000	0,000000
3,377825	25,072874	42,367	-0,125621	0,000000	0,000000
3,383778	29,029424	42,667	-0,124046	0,000000	0,000000
3,389806	31,779994	42,968	-0,122951	0,000000	0,000000
3,395812	33,134422	43,271	-0,122412	0,000000	0,000000
3,401826	37,207522	43,571	-0,120791	0,000000	0,000000
3,407818	36,500864	43,871	-0,121072	0,000000	0,000000
3,413835	35,893579	44,173	-0,121314	0,000000	0,000000
3,419814	38,469938	44,474	-0,120289	0,000000	0,000000
3,425860	40,630398	44,774	-0,119429	0,000000	0,000000
3,431852	41,885453	45,075	-0,118929	0,000000	0,000000
3,437879	45,392981	45,375	-0,117533	0,000000	0,000000
3,443838	48,392598	45,676	-0,116339	0,000000	0,000000
3,449831	50,288061	45,976	-0,115585	0,000000	0,000000
3,455836	52,930669	46,278	-0,114533	0,000000	0,000000
3,461790	55,165967	46,579	-0,113644	0,000000	0,000000
3,467763	58,398683	46,881	-0,112357	0,000000	0,000000
3,473787	63,775911	47,181	-0,110217	0,000000	0,000000
3,479803	65,495937	47,481	-0,109532	0,000000	0,000000
3,485822	69,202212	47,781	-0,108057	0,000000	0,000000
3,491841	72,368679	48,082	-0,106797	0,000000	0,000000
3,497830	76,516616	48,383	-0,105146	0,000000	0,000000
3,503815	80,381154	48,683	-0,103608	0,000000	0,000000
3,509784	83,953704	48,983	-0,102186	0,000000	0,000000
3,515793	85,974305	49,283	-0,101382	0,000000	0,000000
3,521769	89,738242	49,584	-0,099884	0,000000	0,000000
3,527788	92,398025	49,884	-0,098825	0,000000	0,000000
3,533866	97,641528	50,184	-0,096738	0,000000	0,000000
3,539788	100,541771	50,484	-0,095584	0,000000	0,000000
3,545772	103,051880	50,785	-0,094585	0,000000	0,000000
3,551762	106,642833	51,085	-0,093156	0,000000	0,000000
3,557813	110,140546	51,385	-0,091764	0,000000	0,000000
3,563788	114,163346	51,685	-0,090163	0,000000	0,000000
3,569822	116,880791	51,985	-0,089081	0,000000	0,000000
3,575778	120,844702	52,285	-0,087503	0,000000	0,000000
3,581795	125,349649	52,585	-0,085710	0,000000	0,000000
3,587796	127,792282	52,886	-0,084738	0,000000	0,000000
3,593796	130,925624	53,187	-0,083491	0,000000	0,000000
3,599736	134,001305	53,489	-0,082267	0,000000	0,000000
3,605816	138,530789	53,789	-0,080464	0,000000	0,000000
3,611795	142,452988	54,090	-0,078903	0,000000	0,000000
3,617780	144,904209	54,391	-0,077928	0,000000	0,000000
3,623811	148,062088	54,691	-0,076671	0,000000	0,000000
3,629825	152,873744	54,994	-0,074756	0,000000	0,000000
3,635783	155,940837	55,295	-0,073535	0,000000	0,000000
3,641795	160,145208	55,595	-0,071862	0,000000	0,000000
3,647790	162,397682	55,895	-0,070965	0,000000	0,000000
3,653803	165,497900	56,195	-0,069731	0,000000	0,000000
3,659794	170,924201	56,495	-0,067572	0,000000	0,000000
3,665826	174,398604	56,796	-0,066189	0,000000	0,000000
3,671792	177,448522	57,099	-0,064975	0,000000	0,000000
3,677782	181,337596	57,400	-0,063427	0,000000	0,000000
3,683799	183,673494	57,700	-0,062498	0,000000	0,000000
3,689737	188,003003	58,000	-0,060774	0,000000	0,000000
3,695779	192,041752	58,302	-0,059167	0,000000	0,000000
3,701761	194,485612	58,602	-0,058194	0,000000	0,000000
3,707766	198,299849	58,902	-0,056676	0,000000	0,000000
3,713720	201,532565	59,202	-0,055390	0,000000	0,000000
3,719827	204,840119	59,504	-0,054073	0,000000	0,000000
3,725722	208,389359	59,804	-0,052661	0,000000	0,000000
3,731799	212,087047	60,105	-0,051189	0,000000	0,000000
3,737773	215,719712	60,405	-0,049743	0,000000	0,000000
3,743776	218,869003	60,707	-0,048490	0,000000	0,000000
3,749792	222,749490	61,007	-0,046945	0,000000	0,000000
3,755740	227,727995	61,308	-0,044964	0,000000	0,000000
3,761788	230,104379	61,608	-0,044018	0,000000	0,000000
3,767792	235,166310	61,908	-0,042003	0,000000	0,000000
3,773797	238,399026	62,209	-0,040717	0,000000	0,000000
3,779731	240,759461	62,510	-0,039777	0,000000	0,000000
3,785793	244,390900	62,812	-0,038332	0,000000	0,000000
3,791773	249,642990	63,113	-0,036242	0,000000	0,000000
3,797728	251,845163	63,415	-0,035365	0,000000	0,000000
3,803814	255,942800	63,715	-0,033734	0,000000	0,000000
3,809759	259,682200	64,017	-0,032246	0,000000	0,000000
3,815776	263,489076	64,317	-0,030731	0,000000	0,000000
3,821773	266,339019	64,617	-0,029597	0,000000	0,000000
3,827749	271,491736	64,917	-0,027546	0,000000	0,000000
3,833768	274,483992	65,217	-0,026355	0,000000	0,000000
3,839812	278,073718	65,518	-0,024926	0,000000	0,000000
3,845736	281,256134	65,818	-0,023660	0,000000	0,000000
3,851738	285,120672	66,118	-0,022122	0,000000	0,000000
3,857788	288,452762	66,418	-0,020795	0,000000	0,000000
3,863775	291,678117	66,719	-0,019512	0,000000	0,000000
3,869777	295,741402	67,019	-0,017895	0,000000	0,000000
3,875813	300,737084	67,322	-0,015906	0,000000	0,000000
3,881847	304,359934	67,622	-0,014464	0,000000	0,000000
3,887755	306,462734	67,922	-0,013627	0,000000	0,000000
3,893812	310,468357	68,224	-0,012033	0,000000	0,000000
3,899716	315,595311	68,524	-0,009993	0,000000	0,000000
3,905738	319,426723	68,824	-0,008468	0,000000	0,000000
3,911775	321,879171	69,124	-0,007492	0,000000	0,000000
3,917793	325,153600	69,425	-0,006188	0,000000	0,000000
3,923769	330,164004	69,725	-0,004194	0,000000	0,000000
3,929670	333,638407	70,025	-0,002812	0,000000	0,000000
3,935733	336,298190	70,326	-0,001753	0,000000	0,000000
3,941729	341,259520	70,626	0,000222	0,000000	0,000000
3,947705	345,406230	70,926	0,001872	0,000000	0,000000
3,953731	347,110307	71,227	0,002550	0,000000	0,000000
3,959721	350,774870	71,527	0,004009	0,000000	0,000000
3,965752	354,498322	71,827	0,005491	0,000000	0,000000
3,971706	358,944380	72,129	0,007260	0,000000	0,000000
3,977761	362,393020	72,431	0,008633	0,000000	0,000000
3,983751	365,500599	72,731	0,009870	0,000000	0,000000
3,989800	369,265762	73,031	0,011368	0,000000	0,000000
3,995757	373,022338	73,331	0,012863	0,000000	0,000000
4,001729	377,219349	73,632	0,014534	0,000000	0,000000
4,007801	381,009049	73,932	0,016042	0,000000	0,000000
4,013734	384,257714	74,232	0,017335	0,000000	0,000000
4,019739	387,798367	74,533	0,018744	0,000000	0,000000
4,025739	391,380732	74,835	0,020170	0,000000	0,000000
4,031752	395,161844	75,135	0,021675	0,000000	0,000000
4,037748	399,524478	75,435	0,023411	0,000000	0,000000
4,043726	402,367060	75,736	0,024542	0,000000	0,000000
4,049743	406,189885	76,038	0,026064	0,000000	0,000000
4,055744	411,076378	76,338	0,028009	0,000000	0,000000
4,061702	414,674692	76,640	0,029441	0,000000	0,000000
4,067754	418,655779	76,942	0,031025	0,000000	0,000000
4,073730	421,872546	77,242	0,032306	0,000000	0,000000
4,079749	422,570617	77,543	0,032583	0,000000	0,000000
4,085771	426,002081	77,843	0,033949	0,000000	0,000000
4,091726	429,459308	78,143	0,035325	0,000000	0,000000
4,097745	434,429226	78,444	0,037303	0,000000	0,000000
4,103739	437,853329	78,744	0,038666	0,000000	0,000000
4,109701	441,468819	79,044	0,040105	0,000000	0,000000
4,115737	444,435311	79,344	0,041286	0,000000	0,000000
4,121780	447,443516	79,647	0,042483	0,000000	0,000000
4,127737	451,873626	79,948	0,044246	0,000000	0,000000
4,133789	455,022917	80,248	0,045500	0,000000	0,000000
4,139754	458,413896	80,549	0,046849	0,000000	0,000000
4,145737	462,278433	80,850	0,048387	0,000000	0,000000
4,151714	465,585987	81,151	0,049704	0,000000	0,000000
4,157745	470,804952	81,451	0,051781	0,000000	0,000000
4,163665	472,974001	81,751	0,052644	0,000000	0,000000
4,169702	476,788238	82,052	0,054162	0,000000	0,000000
4,175690	480,861338	82,352	0,055783	0,000000	0,000000
4,181714	483,968917	82,655	0,057020	0,000000	0,000000
4,187760	489,229595	82,956	0,059114	0,000000	0,000000
4,193685	492,279513	83,258	0,060328	0,000000	0,000000
4,199741	495,437392	83,558	0,061584	0,000000	0,000000
4,205715	498,819783	83,859	0,062931	0,000000	0,000000
4,211670	503,664563	84,159	0,064859	0,000000	0,000000
4,217734	506,249509	84,460	0,065888	0,000000	0,000000
4,223761	511,294264	84,761	0,067896	0,000000	0,000000
4,229733	513,828910	85,061	0,068904	0,000000	0,000000
4,235711	517,959671	85,362	0,070548	0,000000	0,000000
4,241728	521,707659	85,663	0,072040	0,000000	0,000000
4,247791	525,580785	85,963	0,073582	0,000000	0,000000
4,253716	528,963175	86,264	0,074928	0,000000	0,000000
4,259752	532,253553	86,565	0,076237	0,000000	0,000000
4,265750	535,884991	86,865	0,077683	0,000000	0,000000
4,271690	539,674692	87,166	0,079191	0,000000	0,000000
4,277726	544,802872	87,467	0,081232	0,000000	0,000000
4,283716	547,046757	87,769	0,082125	0,000000	0,000000
4,289737	552,373685	88,071	0,084245	0,000000	0,000000
4,295677	554,518196	88,371	0,085099	0,000000	0,000000
4,301754	558,240421	88,671	0,086580	0,000000	0,000000
4,307695	563,302352	88,971	0,088595	0,000000	0,000000
4,313731	567,233138	89,273	0,090159	0,000000	0,000000
4,319703	569,135963	89,573	0,090917	0,000000	0,000000
4,325684	573,150175	89,874	0,092514	0,000000	0,000000
4,331700	578,111505	90,174	0,094489	0,000000	0,000000
4,337705	581,901205	90,474	0,095997	0,000000	0,000000
4,343694	585,492158	90,775	0,097426	0,000000	0,000000
4,349702	588,881910	91,076	0,098775	0,000000	0,000000
4,355707	591,898702	91,376	0,099976	0,000000	0,000000
4,361747	595,996339	91,677	0,101607	0,000000	0,000000
4,367680	600,259599	91,977	0,103304	0,000000	0,000000
4,373640	603,467778	92,278	0,104581	0,000000	0,000000
4,379717	607,107805	92,578	0,106029	0,000000	0,000000
4,385698	610,531908	92,878	0,107392	0,000000	0,000000
4,391721	614,645493	93,179	0,109029	0,000000	0,000000
4,397715	618,068369	93,480	0,110392	0,000000	0,000000
4,403684	622,456766	93,781	0,112138	0,000000	0,000000
4,409640	625,332473	94,082	0,113283	0,000000	0,000000
4,415692	628,847362	94,383	0,114682	0,000000	0,000000
4,421755	632,704538	94,684	0,116217	0,000000	0,000000
4,427717	637,192309	94,984	0,118003	0,000000	0,000000
4,433712	641,612604	95,284	0,119762	0,000000	0,000000
4,439656	643,640566	95,584	0,120569	0,000000	0,000000
4,445684	647,654778	95,884	0,122167	0,000000	0,000000
4,451654	651,428529	96,185	0,123669	0,000000	0,000000
4,457696	656,555482	96,485	0,125709	0,000000	0,000000
4,463666	659,098716	96,786	0,126722	0,000000	0,000000
4,469710	662,721567	97,087	0,128164	0,000000	0,000000
4,475655	666,478143	97,388	0,129659	0,000000	0,000000
4,481698	669,985671	97,689	0,131055	0,000000	0,000000
4,487657	675,204636	97,990	0,133132	0,000000	0,000000
4,493656	678,752650	98,290	0,134544	0,000000	0,000000
4,499697	681,436970	98,590	0,135612	0,000000	0,000000
4,505646	685,018108	98,891	0,137038	0,000000	0,000000
4,511640	689,266646	99,191	0,138729	0,000000	0,000000
4,517655	693,770365	99,491	0,140521	0,000000	0,000000
4,523583	697,901127	99,792	0,142165	0,000000	0,000000
4,529688	700,966993	100,092	0,143385	0,000000	0,000000
4,535671	704,791045	100,392	0,144907	0,000000	0,000000
4,541572	707,782074	100,694	0,146098	0,000000	0,000000
4,547636	712,161884	100,994	0,147841	0,000000	0,000000
4,553683	715,843622	101,294	0,149306	0,000000	0,000000
4,559677	719,600198	101,594	0,150801	0,000000	0,000000
4,565627	724,519816	101,894	0,152759	0,000000	0,000000
4,571627	727,336634	102,194	0,153880	0,000000	0,000000
4,577626	730,744788	102,494	0,155237	0,000000	0,000000
4,583643	734,501364	102,796	0,156732	0,000000	0,000000
4,589605	738,448100	103,097	0,158303	0,000000	0,000000
4,595684	742,229212	103,397	0,159808	0,000000	0,000000
4,601658	745,670491	103,698	0,161177	0,000000	0,000000
4,607644	749,775489	103,998	0,162811	0,000000	0,000000
4,613614	753,448640	104,299	0,164273	0,000000	0,000000
4,619592	758,343721	104,603	0,166221	0,000000	0,000000
4,625662	762,864616	104,904	0,168021	0,000000	0,000000
4,631678	766,497281	105,205	0,169466	0,000000	0,000000
4,637680	770,419480	105,505	0,171027	0,000000	0,000000
4,643656	773,885296	105,806	0,172407	0,000000	0,000000
4,649676	777,043175	106,106	0,173664	0,000000	0,000000
4,655642	781,181297	106,407	0,175311	0,000000	0,000000
4,661630	784,506026	106,708	0,176634	0,000000	0,000000
4,667639	788,619612	107,009	0,178271	0,000000	0,000000
4,673637	792,193389	107,310	0,179693	0,000000	0,000000
4,679635	795,924201	107,611	0,181178	0,000000	0,000000
4,685646	799,656240	107,912	0,182664	0,000000	0,000000
4,691627	804,709583	108,213	0,184675	0,000000	0,000000
4,697577	808,240421	108,513	0,186080	0,000000	0,000000
4,703583	812,338057	108,815	0,187711	0,000000	0,000000
4,709607	814,681317	109,118	0,188644	0,000000	0,000000
4,715643	818,537266	109,419	0,190178	0,000000	0,000000
4,721598	822,418980	109,721	0,191723	0,000000	0,000000
4,727665	827,820744	110,023	0,193873	0,000000	0,000000
4,733581	831,086585	110,325	0,195173	0,000000	0,000000
4,739674	833,978241	110,625	0,196324	0,000000	0,000000
4,745565	837,901667	110,925	0,197885	0,000000	0,000000
4,751655	841,649655	111,225	0,199377	0,000000	0,000000
4,757618	845,688403	111,527	0,200984	0,000000	0,000000
4,763604	849,070793	111,828	0,202331	0,000000	0,000000
4,769588	853,217504	112,128	0,203981	0,000000	0,000000
4,775588	856,907830	112,428	0,205450	0,000000	0,000000
4,781708	860,573620	112,729	0,206909	0,000000	0,000000
4,787557	865,933672	113,030	0,209042	0,000000	0,000000
4,793591	868,402069	113,332	0,210024	0,000000	0,000000
4,799625	872,099757	113,632	0,211496	0,000000	0,000000
4,805621	877,708857	113,935	0,213729	0,000000	0,000000
4,811630	880,560027	114,236	0,214863	0,000000	0,000000
4,817577	883,809919	114,537	0,216157	0,000000	0,000000
4,823591	887,848667	114,838	0,217764	0,000000	0,000000
4,829579	893,117933	115,138	0,219861	0,000000	0,000000
4,835610	896,458611	115,440	0,221191	0,000000	0,000000
4,841609	900,305973	115,741	0,222722	0,000000	0,000000
4,847675	903,813501	116,041	0,224118	0,000000	0,000000
4,853614	907,727112	116,342	0,225676	0,000000	0,000000
4,859554	910,677656	116,643	0,226850	0,000000	0,000000
4,865555	915,497900	116,943	0,228769	0,000000	0,000000
4,871630	918,763741	117,245	0,230068	0,000000	0,000000
4,877528	922,205019	117,547	0,231438	0,000000	0,000000
4,883560	927,755231	117,847	0,233647	0,000000	0,000000
4,889532	930,049417	118,149	0,234560	0,000000	0,000000
4,895566	935,276971	118,451	0,236641	0,000000	0,000000
4,901527	939,373381	118,752	0,238271	0,000000	0,000000
4,907551	943,263682	119,052	0,239819	0,000000	0,000000
4,913611	947,027619	119,353	0,241317	0,000000	0,000000
4,919538	950,385472	119,655	0,242654	0,000000	0,000000
4,925529	954,350610	119,956	0,244232	0,000000	0,000000
4,931549	958,156260	120,256	0,245747	0,000000	0,000000
4,937540	960,790280	120,556	0,246795	0,000000	0,000000
4,943538	965,552862	120,857	0,248690	0,000000	0,000000
4,949540	968,761042	121,158	0,249967	0,000000	0,000000
4,955514	897,987251	121,460	0,221799	0,000000	0,000000
4,961569	898,136925	121,761	0,221859	0,000000	0,000000
4,967498	899,823826	122,062	0,222530	0,000000	0,000000
4,973533	904,120210	122,363	0,224240	0,000000	0,000000
4,979512	905,683201	122,664	0,224862	0,000000	0,000000
4,985563	909,364940	122,964	0,226328	0,000000	0,000000
4,991509	912,954666	123,265	0,227756	0,000000	0,000000
4,997477	916,860916	123,565	0,229311	0,000000	0,000000
5,003495	920,534067	123,865	0,230773	0,000000	0,000000
5,009551	925,728496	124,166	0,232840	0,000000	0,000000
5,015478	929,767244	124,467	0,234448	0,000000	0,000000
5,021552	932,326427	124,767	0,235466	0,000000	0,000000
5,027544	936,523437	125,068	0,237137	0,000000	0,000000
5,033518	940,405151	125,369	0,238682	0,000000	0,000000
5,037468	944,792321	125,669	0,240428	0,000000	0,000000
5,037499	944,135963	125,969	0,240167	0,000000	0,000000
5,037528	943,754417	126,269	0,240015	0,000000	0,000000
5,037552	942,972921	126,571	0,239704	0,000000	0,000000
5,037527	942,257675	126,873	0,239419	0,000000	0,000000
5,037530	942,274851	127,173	0,239426	0,000000	0,000000
5,037473	941,601317	127,475	0,239158	0,000000	0,000000
5,037517	940,936371	127,776	0,238893	0,000000	0,000000
5,037538	940,621074	128,077	0,238768	0,000000	0,000000
5,037494	940,121751	128,380	0,238569	0,000000	0,000000
5,037480	939,989253	128,682	0,238516	0,000000	0,000000
5,037484	939,731617	128,983	0,238414	0,000000	0,000000
5,037500	939,324307	129,283	0,238251	0,000000	0,000000
5,037527	938,859336	129,584	0,238066	0,000000	0,000000
5,037511	938,617649	129,885	0,237970	0,000000	0,000000
5,037549	938,393138	130,185	0,237881	0,000000	0,000000
5,037510	938,144090	130,485	0,237782	0,000000	0,000000
5,037567	937,762543	130,785	0,237630	0,000000	0,000000
5,037503	937,687706	131,085	0,237600	0,000000	0,000000
5,037541	937,446019	131,385	0,237504	0,000000	0,000000
5,037549	936,814198	131,685	0,237252	0,000000	0,000000
5,037517	936,889035	131,986	0,237282	0,000000	0,000000
5,037506	936,598275	132,287	0,237167	0,000000	0,000000
5,037483	936,340639	132,589	0,237064	0,000000	0,000000
5,037542	936,316102	132,891	0,237054	0,000000	0,000000
5,037502	936,224089	133,192	0,237018	0,000000	0,000000
5,037490	936,274390	133,493	0,237038	0,000000	0,000000
5,037490	935,625393	133,793	0,236779	0,000000	0,000000
5,037550	935,633980	134,094	0,236783	0,000000	0,000000
5,037490	935,459770	134,394	0,236713	0,000000	0,000000
5,037522	934,953086	134,695	0,236512	0,000000	0,000000
5,037513	935,151833	134,996	0,236591	0,000000	0,000000
5,037534	934,894198	135,297	0,236488	0,000000	0,000000
5,037478	934,786236	135,598	0,236445	0,000000	0,000000
5,031516	930,830912	135,901	0,234871	0,000000	0,000000
5,025564	923,982707	136,202	0,232146	0,000000	0,000000
5,019495	918,904827	136,502	0,230125	0,000000	0,000000
5,013549	913,752110	136,804	0,228074	0,000000	0,000000
5,007531	910,545157	137,104	0,226797	0,000000	0,000000
5,001525	904,494396	137,405	0,224389	0,000000	0,000000
4,995541	899,258254	137,705	0,222305	0,000000	0,000000
4,989591	894,737359	138,006	0,220506	0,000000	0,000000
4,983511	889,152795	138,306	0,218283	0,000000	0,000000
4,977555	884,158341	138,608	0,216295	0,000000	0,000000
4,971551	879,762582	138,909	0,214546	0,000000	0,000000
4,965527	874,825789	139,210	0,212581	0,000000	0,000000
4,959573	869,897584	139,510	0,210620	0,000000	0,000000
4,953508	865,068752	139,811	0,208698	0,000000	0,000000
4,947560	858,288022	140,111	0,205999	0,000000	0,000000
4,941538	855,088430	140,411	0,204726	0,000000	0,000000
4,935586	850,343024	140,711	0,202837	0,000000	0,000000
4,929554	845,373106	141,013	0,200859	0,000000	0,000000
4,923517	838,641449	141,313	0,198180	0,000000	0,000000
4,917518	833,488733	141,614	0,196129	0,000000	0,000000
4,911563	830,505064	141,915	0,194941	0,000000	0,000000
4,905540	825,651696	142,216	0,193010	0,000000	0,000000
4,899528	818,862378	142,517	0,190308	0,000000	0,000000
4,893510	815,753573	142,817	0,189070	0,000000	0,000000
4,887564	810,684281	143,118	0,187053	0,000000	0,000000
4,881582	804,816318	143,419	0,184717	0,000000	0,000000
4,875606	800,960368	143,721	0,183183	0,000000	0,000000
4,869622	795,151294	144,022	0,180871	0,000000	0,000000
4,863579	790,705235	144,323	0,179101	0,000000	0,000000
4,857547	785,693605	144,624	0,177106	0,000000	0,000000
4,851595	780,907712	144,924	0,175202	0,000000	0,000000
4,845643	775,953743	145,224	0,173230	0,000000	0,000000
4,839608	771,001001	145,524	0,171259	0,000000	0,000000
4,833644	766,114508	145,824	0,169314	0,000000	0,000000
4,827584	762,000923	146,126	0,167677	0,000000	0,000000
4,821597	755,568615	146,428	0,165117	0,000000	0,000000
4,815630	752,169048	146,728	0,163764	0,000000	0,000000
4,809580	747,373341	147,028	0,161855	0,000000	0,000000
4,803608	740,933672	147,328	0,159292	0,000000	0,000000
4,797579	737,924240	147,629	0,158094	0,000000	0,000000
4,791627	733,253671	147,931	0,156235	0,000000	0,000000
4,785576	726,880251	148,231	0,153699	0,000000	0,000000
4,779604	722,134844	148,532	0,151810	0,000000	0,000000
4,773575	718,477642	148,833	0,150354	0,000000	0,000000
4,767613	714,007047	149,136	0,148575	0,000000	0,000000
4,761577	708,488733	149,436	0,146379	0,000000	0,000000
4,755619	703,875824	149,738	0,144543	0,000000	0,000000
4,749655	698,574660	150,038	0,142433	0,000000	0,000000
4,743585	694,402187	150,340	0,140772	0,000000	0,000000
4,737675	690,264064	150,641	0,139125	0,000000	0,000000
4,731608	685,833955	150,942	0,137362	0,000000	0,000000
4,725614	680,872625	151,242	0,135388	0,000000	0,000000
4,719634	676,168931	151,543	0,133516	0,000000	0,000000
4,713620	669,853172	151,844	0,131002	0,000000	0,000000
4,707614	666,802028	152,145	0,129788	0,000000	0,000000
4,701663	662,355969	152,445	0,128018	0,000000	0,000000
4,695604	657,577438	152,746	0,126116	0,000000	0,000000
4,689588	651,094830	153,046	0,123536	0,000000	0,000000
4,683597	648,053500	153,347	0,122326	0,000000	0,000000
4,677639	643,449179	153,648	0,120493	0,000000	0,000000
4,671681	637,225434	153,948	0,118016	0,000000	0,000000
4,665623	634,341139	154,249	0,116868	0,000000	0,000000
4,659611	629,736819	154,550	0,115036	0,000000	0,000000
4,653615	625,033125	154,850	0,113164	0,000000	0,000000
4,647578	618,908753	155,150	0,110726	0,000000	0,000000
4,641622	614,229595	155,451	0,108864	0,000000	0,000000
4,635608	610,049761	155,751	0,107200	0,000000	0,000000
4,629650	607,015792	156,053	0,105993	0,000000	0,000000
4,623649	602,287561	156,354	0,104111	0,000000	0,000000
4,617606	596,826908	156,655	0,101938	0,000000	0,000000
4,611585	592,255712	156,956	0,100118	0,000000	0,000000
4,605672	588,283213	157,258	0,098537	0,000000	0,000000
4,599631	583,878867	157,560	0,096784	0,000000	0,000000
4,593689	579,300310	157,861	0,094962	0,000000	0,000000
4,587643	574,845664	158,161	0,093189	0,000000	0,000000
4,581611	570,157918	158,461	0,091323	0,000000	0,000000
4,575602	565,711860	158,761	0,089554	0,000000	0,000000
4,569659	561,373763	159,064	0,087827	0,000000	0,000000
4,563611	556,695833	159,367	0,085965	0,000000	0,000000
4,557627	550,437736	159,667	0,083475	0,000000	0,000000
4,551633	546,115588	159,968	0,081754	0,000000	0,000000
4,545622	542,933172	160,270	0,080488	0,000000	0,000000
4,539641	537,597656	160,572	0,078364	0,000000	0,000000
4,533639	533,092710	160,873	0,076571	0,000000	0,000000
4,527628	528,754613	161,173	0,074845	0,000000	0,000000
4,521639	524,989449	161,475	0,073346	0,000000	0,000000
4,515684	520,320106	161,775	0,071488	0,000000	0,000000
4,509697	515,973422	162,075	0,069758	0,000000	0,000000
4,503666	511,560488	162,375	0,068001	0,000000	0,000000
4,497613	507,180679	162,675	0,066258	0,000000	0,000000
4,491680	502,767745	162,976	0,064502	0,000000	0,000000
4,485666	498,446824	163,276	0,062782	0,000000	0,000000
4,479584	493,950465	163,577	0,060993	0,000000	0,000000
4,473671	489,013672	163,877	0,059028	0,000000	0,000000
4,467665	483,519894	164,177	0,056841	0,000000	0,000000
4,461680	479,348648	164,477	0,055181	0,000000	0,000000
4,455675	474,678078	164,778	0,053322	0,000000	0,000000
4,449707	471,461310	165,080	0,052042	0,000000	0,000000
4,443658	466,284057	165,382	0,049981	0,000000	0,000000
4,437694	461,662561	165,682	0,048142	0,000000	0,000000
4,431630	457,782074	165,984	0,046598	0,000000	0,000000
4,425672	454,972617	166,284	0,045479	0,000000	0,000000
4,419757	448,947619	166,584	0,043082	0,000000	0,000000
4,413678	445,815503	166,884	0,041835	0,000000	0,000000
4,407705	441,011208	167,185	0,039923	0,000000	0,000000
4,401669	436,981048	167,486	0,038319	0,000000	0,000000
4,395672	432,634363	167,788	0,036589	0,000000	0,000000
4,389659	427,648496	168,088	0,034604	0,000000	0,000000
4,383668	423,418361	168,388	0,032921	0,000000	0,000000
4,377714	419,702271	168,688	0,031442	0,000000	0,000000
4,371650	415,032928	168,989	0,029583	0,000000	0,000000
4,365722	410,943880	169,290	0,027956	0,000000	0,000000
4,359687	406,322383	169,592	0,026117	0,000000	0,000000
4,353726	400,638446	169,893	0,023854	0,000000	0,000000
4,347711	398,037551	170,194	0,022819	0,000000	0,000000
4,341646	393,159646	170,496	0,020878	0,000000	0,000000
4,335709	388,887798	170,797	0,019178	0,000000	0,000000
4,329712	383,186685	171,099	0,016909	0,000000	0,000000
4,323700	379,396985	171,399	0,015400	0,000000	0,000000
4,317706	374,717827	171,699	0,013538	0,000000	0,000000
4,311656	370,661903	172,001	0,011924	0,000000	0,000000
4,305744	367,221851	172,302	0,010555	0,000000	0,000000
4,299778	363,764624	172,602	0,009179	0,000000	0,000000
4,293710	358,611907	172,903	0,007128	0,000000	0,000000
4,287747	354,439433	173,203	0,005467	0,000000	0,000000
4,281717	350,724570	173,503	0,003989	0,000000	0,000000
4,275681	346,560684	173,804	0,002332	0,000000	0,000000
4,269699	341,026421	174,105	0,000129	0,000000	0,000000
4,263730	338,773948	174,407	-0,000768	0,000000	0,000000
4,257747	334,502100	174,708	-0,002468	0,000000	0,000000
4,251707	330,330853	175,008	-0,004128	0,000000	0,000000
4,245710	326,175556	175,310	-0,005782	0,000000	0,000000
4,239675	320,855989	175,613	-0,007899	0,000000	0,000000
4,233725	318,188845	175,913	-0,008960	0,000000	0,000000
4,227766	312,346645	176,213	-0,011286	0,000000	0,000000
4,221722	310,078223	176,514	-0,012188	0,000000	0,000000
4,215727	304,343986	176,815	-0,014471	0,000000	0,000000
4,209714	300,420560	177,116	-0,016032	0,000000	0,000000
4,203776	296,099639	177,417	-0,017752	0,000000	0,000000
4,197721	292,010590	177,718	-0,019379	0,000000	0,000000
4,191702	288,934909	178,018	-0,020604	0,000000	0,000000
4,185692	285,686244	178,319	-0,021896	0,000000	0,000000
4,179747	281,007086	178,619	-0,023759	0,000000	0,000000
4,173677	276,951162	178,920	-0,025373	0,000000	0,000000
4,167722	273,053500	179,220	-0,026924	0,000000	0,000000
4,161663	268,981627	179,521	-0,028545	0,000000	0,000000
4,155748	265,607824	179,821	-0,029888	0,000000	0,000000
4,149720	261,527363	180,122	-0,031512	0,000000	0,000000
4,143733	257,887337	180,422	-0,032960	0,000000	0,000000
4,137722	253,897662	180,722	-0,034548	0,000000	0,000000
4,131737	250,133725	181,023	-0,036046	0,000000	0,000000
4,125764	246,509648	181,323	-0,037489	0,000000	0,000000
4,119741	242,554324	181,623	-0,039063	0,000000	0,000000
4,113774	238,956011	181,924	-0,040495	0,000000	0,000000
4,107691	235,390821	182,227	-0,041914	0,000000	0,000000
4,101727	231,458808	182,530	-0,043479	0,000000	0,000000
4,095759	225,633784	182,831	-0,045797	0,000000	0,000000
4,089727	221,934870	183,131	-0,047270	0,000000	0,000000
4,083739	220,073757	183,432	-0,048010	0,000000	0,000000
4,077755	216,176095	183,733	-0,049562	0,000000	0,000000
4,071733	211,131340	184,033	-0,051569	0,000000	0,000000
4,065713	208,255634	184,333	-0,052714	0,000000	0,000000
4,059782	203,269767	184,633	-0,054698	0,000000	0,000000
4,053731	200,444360	184,933	-0,055823	0,000000	0,000000
4,047795	195,822864	185,233	-0,057662	0,000000	0,000000
4,041763	192,765586	185,534	-0,058879	0,000000	0,000000
4,035713	188,875285	185,835	-0,060427	0,000000	0,000000
4,029788	185,501482	186,135	-0,061770	0,000000	0,000000
4,023719	181,454146	186,436	-0,063381	0,000000	0,000000
4,017732	177,723333	186,737	-0,064866	0,000000	0,000000
4,011797	174,964176	187,037	-0,065964	0,000000	0,000000
4,005729	170,965914	187,338	-0,067555	0,000000	0,000000
3,999793	167,035127	187,639	-0,069120	0,000000	0,000000
3,993764	163,544775	187,940	-0,070509	0,000000	0,000000
3,987816	159,913336	188,241	-0,071954	0,000000	0,000000
3,981742	156,638907	188,541	-0,073257	0,000000	0,000000
3,975749	152,840619	188,842	-0,074769	0,000000	0,000000
3,969747	149,400567	189,143	-0,076138	0,000000	0,000000
3,963727	144,745947	189,444	-0,077991	0,000000	0,000000
3,957722	142,452988	189,744	-0,078903	0,000000	0,000000
3,951799	137,108884	190,044	-0,081030	0,000000	0,000000
3,945798	135,479644	190,346	-0,081679	0,000000	0,000000
3,939783	132,438315	190,647	-0,082889	0,000000	0,000000
3,933722	128,981087	190,947	-0,084265	0,000000	0,000000
3,927777	124,768128	191,247	-0,085942	0,000000	0,000000
3,921764	122,889840	191,548	-0,086689	0,000000	0,000000
3,915774	121,161226	191,850	-0,087377	0,000000	0,000000
3,909821	118,750491	192,150	-0,088337	0,000000	0,000000
3,903743	117,072177	192,452	-0,089005	0,000000	0,000000
3,897690	115,268726	192,753	-0,089723	0,000000	0,000000
3,891774	113,406387	193,055	-0,090464	0,000000	0,000000
3,885780	112,368483	193,357	-0,090877	0,000000	0,000000
3,879735	110,847205	193,657	-0,091482	0,000000	0,000000
3,873794	110,074297	193,958	-0,091790	0,000000	0,000000
3,867782	110,996879	194,258	-0,091423	0,000000	0,000000
3,861785	111,362476	194,558	-0,091277	0,000000	0,000000
3,855785	117,445136	194,859	-0,088856	0,000000	0,000000
3,849758	212,710280	195,161	-0,050941	0,000000	0,000000
3,843773	221,487074	195,463	-0,047448	0,000000	0,000000
3,837788	222,392480	195,763	-0,047087	0,000000	0,000000
3,831767	220,763240	196,064	-0,047736	0,000000	0,000000
3,825812	218,910716	196,364	-0,048473	0,000000	0,000000
3,819807	215,270689	196,664	-0,049922	0,000000	0,000000
3,813781	213,333513	196,965	-0,050693	0,000000	0,000000
3,807782	210,708081	197,265	-0,051738	0,000000	0,000000
3,801773	206,436234	197,565	-0,053438	0,000000	0,000000
3,795750	203,012131	197,866	-0,054801	0,000000	0,000000
3,789777	200,211261	198,166	-0,055916	0,000000	0,000000
3,783751	197,011670	198,467	-0,057189	0,000000	0,000000
3,777812	194,120014	198,767	-0,058340	0,000000	0,000000
3,771818	189,781917	199,068	-0,060066	0,000000	0,000000
3,765820	187,895042	199,371	-0,060817	0,000000	0,000000
3,759777	183,074798	199,672	-0,062736	0,000000	0,000000
3,753806	180,872625	199,973	-0,063612	0,000000	0,000000
3,747757	176,135806	200,273	-0,065498	0,000000	0,000000
3,741812	172,436891	200,573	-0,066970	0,000000	0,000000
3,735780	170,483766	200,873	-0,067747	0,000000	0,000000
3,729762	167,127140	201,173	-0,069083	0,000000	0,000000
3,723745	161,915535	201,474	-0,071157	0,000000	0,000000
3,717777	159,805375	201,775	-0,071997	0,000000	0,000000
3,711760	156,605783	202,075	-0,073271	0,000000	0,000000
3,705855	153,049181	202,375	-0,074686	0,000000	0,000000
3,699772	148,028963	202,676	-0,076684	0,000000	0,000000
3,693775	144,655161	202,976	-0,078027	0,000000	0,000000
3,687790	142,360975	203,276	-0,078940	0,000000	0,000000
3,681801	138,771249	203,576	-0,080369	0,000000	0,000000
3,675806	134,565651	203,879	-0,082042	0,000000	0,000000
3,669784	130,352691	204,179	-0,083719	0,000000	0,000000
3,663793	127,160461	204,480	-0,084990	0,000000	0,000000
3,657777	123,678696	204,781	-0,086375	0,000000	0,000000
3,651821	120,212881	205,081	-0,087755	0,000000	0,000000
3,645798	116,872203	205,381	-0,089084	0,000000	0,000000
3,639810	113,780573	205,683	-0,090315	0,000000	0,000000
3,633813	110,814080	205,983	-0,091496	0,000000	0,000000
3,627779	107,805875	206,284	-0,092693	0,000000	0,000000
3,621787	103,816200	206,586	-0,094281	0,000000	0,000000
3,615792	100,666909	206,887	-0,095534	0,000000	0,000000
3,609787	95,613566	207,187	-0,097545	0,000000	0,000000
3,603782	93,510767	207,488	-0,098382	0,000000	0,000000
3,597822	90,203213	207,788	-0,099699	0,000000	0,000000
3,591761	86,804874	208,090	-0,101051	0,000000	0,000000
3,585811	83,206560	208,392	-0,102483	0,000000	0,000000
3,579859	78,751914	208,694	-0,104256	0,000000	0,000000
3,573798	76,191504	208,995	-0,105275	0,000000	0,000000
3,567782	72,775989	209,295	-0,106635	0,000000	0,000000
3,561761	69,468436	209,596	-0,107951	0,000000	0,000000
3,555817	66,268844	209,896	-0,109225	0,000000	0,000000
3,549837	61,747949	210,196	-0,111024	0,000000	0,000000
3,543798	59,587488	210,497	-0,111884	0,000000	0,000000
3,537889	56,513034	210,798	-0,113107	0,000000	0,000000
3,531773	53,088931	211,099	-0,114470	0,000000	0,000000
3,525858	50,113851	211,400	-0,115654	0,000000	0,000000
3,519819	46,955971	211,702	-0,116911	0,000000	0,000000
3,513841	43,281594	212,002	-0,118374	0,000000	0,000000
3,507823	40,672111	212,302	-0,119412	0,000000	0,000000
3,501817	36,857873	212,602	-0,120930	0,000000	0,000000
3,495793	33,675457	212,902	-0,122197	0,000000	0,000000
3,489816	29,959367	213,202	-0,123676	0,000000	0,000000
3,483822	26,536491	213,503	-0,125038	0,000000	0,000000
3,477820	23,843583	213,804	-0,126110	0,000000	0,000000
3,471778	20,087007	214,105	-0,127605	0,000000	0,000000
3,465782	15,433613	214,405	-0,129457	0,000000	0,000000
3,459817	13,363939	214,706	-0,130281	0,000000	0,000000
3,453824	10,230596	215,007	-0,131528	0,000000	0,000000
3,447778	6,889918	215,308	-0,132857	0,000000	0,000000
3,441840	2,036550	215,609	-0,134789	0,000000	0,000000
3,435868	-1,387553	215,910	-0,136152	0,000000	0,000000
3,429819	-4,628857	216,211	-0,137442	0,000000	0,000000
3,423870	-6,739017	216,511	-0,138282	0,000000	0,000000
3,417860	-10,046571	216,811	-0,139598	0,000000	0,000000
3,411849	-13,338175	217,111	-0,140908	0,000000	0,000000
3,405883	-16,786815	217,413	-0,142281	0,000000	0,000000
3,399881	-20,684477	217,713	-0,143832	0,000000	0,000000
3,393840	-23,925781	218,013	-0,145122	0,000000	0,000000
3,387841	-27,224747	218,315	-0,146435	0,000000	0,000000
3,381825	-30,906486	218,615	-0,147900	0,000000	0,000000
3,375847	-33,623930	218,916	-0,148982	0,000000	0,000000
3,369837	-37,040672	219,216	-0,150342	0,000000	0,000000
3,363832	-41,386130	219,516	-0,152071	0,000000	0,000000
3,357844	-44,104801	219,817	-0,153153	0,000000	0,000000
3,351836	-48,525096	220,117	-0,154913	0,000000	0,000000
3,345858	-50,611946	220,419	-0,155743	0,000000	0,000000
3,339903	-53,503602	220,720	-0,156894	0,000000	0,000000
3,333857	-58,149635	221,021	-0,158743	0,000000	0,000000
3,327878	-60,517431	221,322	-0,159686	0,000000	0,000000
3,321832	-64,963489	221,622	-0,161455	0,000000	0,000000
3,315781	-66,592729	221,923	-0,162104	0,000000	0,000000
3,309888	-71,279248	222,224	-0,163969	0,000000	0,000000
3,303862	-73,124411	222,525	-0,164703	0,000000	0,000000
3,297905	-78,194930	222,825	-0,166721	0,000000	0,000000
3,291919	-80,978624	223,126	-0,167829	0,000000	0,000000
3,285853	-83,637180	223,430	-0,168887	0,000000	0,000000
3,279844	-86,396337	223,731	-0,169985	0,000000	0,000000
3,273840	-89,521092	224,031	-0,171229	0,000000	0,000000
3,267867	-92,671610	224,332	-0,172483	0,000000	0,000000
3,261895	-95,223432	224,634	-0,173499	0,000000	0,000000
3,255872	-98,348186	224,934	-0,174742	0,000000	0,000000
3,249867	-101,165005	225,234	-0,175863	0,000000	0,000000
3,243877	-103,898398	225,535	-0,176951	0,000000	0,000000
3,237840	-107,996035	225,836	-0,178582	0,000000	0,000000
3,231871	-111,054540	226,137	-0,179799	0,000000	0,000000
3,225856	-112,208994	226,438	-0,180259	0,000000	0,000000
3,219874	-114,877365	226,738	-0,181321	0,000000	0,000000
3,213896	-118,567692	227,038	-0,182790	0,000000	0,000000
3,207843	-119,830108	227,339	-0,183292	0,000000	0,000000
3,201879	-121,774645	227,639	-0,184066	0,000000	0,000000
3,195849	-123,645572	227,940	-0,184811	0,000000	0,000000
3,189892	-126,636601	228,242	-0,186001	0,000000	0,000000
3,183837	-128,008205	228,544	-0,186547	0,000000	0,000000
3,177883	-129,021573	228,844	-0,186950	0,000000	0,000000
3,171862	-130,111004	229,144	-0,187384	0,000000	0,000000
3,165826	-131,190621	229,444	-0,187813	0,000000	0,000000
3,159876	-133,775567	229,744	-0,188842	0,000000	0,000000
3,153897	-134,715325	230,044	-0,189216	0,000000	0,000000
3,147922	-136,576437	230,347	-0,189957	0,000000	0,000000
3,141891	-138,903747	230,648	-0,190883	0,000000	0,000000
3,135891	-141,280131	230,949	-0,191829	0,000000	0,000000
3,129865	-143,814777	231,251	-0,192838	0,000000	0,000000
3,123826	-147,703851	231,552	-0,194386	0,000000	0,000000
3,117928	-149,299967	231,853	-0,195021	0,000000	0,000000
3,111857	-153,213578	232,153	-0,196579	0,000000	0,000000
3,105864	-154,934830	232,454	-0,197264	0,000000	0,000000
3,099891	-157,436352	232,754	-0,198259	0,000000	0,000000
3,093872	-161,741324	233,055	-0,199973	0,000000	0,000000
3,087886	-164,425644	233,355	-0,201041	0,000000	0,000000
3,081832	-167,392136	233,655	-0,202222	0,000000	0,000000
3,075911	-168,713440	233,956	-0,202748	0,000000	0,000000
3,069878	-172,652815	234,257	-0,204315	0,000000	0,000000
3,063877	-174,456266	234,557	-0,205033	0,000000	0,000000
3,057913	-178,104880	234,859	-0,206485	0,000000	0,000000
3,051916	-180,664062	235,161	-0,207504	0,000000	0,000000
3,045943	-183,597431	235,461	-0,208671	0,000000	0,000000
3,039917	-186,173789	235,761	-0,209697	0,000000	0,000000
3,033889	-188,384550	236,063	-0,210577	0,000000	0,000000
3,027888	-190,304550	236,363	-0,211341	0,000000	0,000000
3,021893	-193,246506	236,665	-0,212512	0,000000	0,000000
3,015875	-195,981126	236,966	-0,213600	0,000000	0,000000
3,009897	-198,615146	237,267	-0,214648	0,000000	0,000000
3,003895	-201,290878	237,567	-0,215713	0,000000	0,000000
2,997906	-203,742099	237,868	-0,216689	0,000000	0,000000
2,991874	-207,856912	238,168	-0,218327	0,000000	0,000000
2,985875	-210,332669	238,469	-0,219312	0,000000	0,000000
2,979891	-212,743405	238,770	-0,220271	0,000000	0,000000
2,973873	-213,624274	239,070	-0,220622	0,000000	0,000000
2,967889	-216,641067	239,370	-0,221823	0,000000	0,000000
2,961908	-217,837233	239,670	-0,222299	0,000000	0,000000
2,955911	-221,054000	239,971	-0,223579	0,000000	0,000000
2,949896	-221,377886	240,273	-0,223708	0,000000	0,000000
2,943934	-222,998538	240,573	-0,224353	0,000000	0,000000
2,937904	-223,289298	240,873	-0,224469	0,000000	0,000000
2,931904	-221,752071	241,173	-0,223857	0,000000	0,000000
2,925876	-167,832571	241,475	-0,202397	0,000000	0,000000
2,919906	-161,142627	241,775	-0,199734	0,000000	0,000000
2,913906	-158,898742	242,075	-0,198841	0,000000	0,000000
2,907885	-158,050997	242,376	-0,198504	0,000000	0,000000
2,901841	-157,843662	242,676	-0,198421	0,000000	0,000000
2,895941	-159,280288	242,977	-0,198993	0,000000	0,000000
2,889921	-159,097489	243,278	-0,198920	0,000000	0,000000
2,883878	-159,497438	243,579	-0,199080	0,000000	0,000000
2,877913	-159,912109	243,880	-0,199245	0,000000	0,000000
2,871899	-161,042027	244,181	-0,199694	0,000000	0,000000
2,865966	-162,014909	244,483	-0,200082	0,000000	0,000000
2,859883	-161,798985	244,783	-0,199996	0,000000	0,000000
2,853936	-162,089746	245,083	-0,200111	0,000000	0,000000
2,847887	-162,347381	245,386	-0,200214	0,000000	0,000000
2,841892	-162,679854	245,686	-0,200346	0,000000	0,000000
2,835949	-163,760698	245,986	-0,200776	0,000000	0,000000
2,829944	-163,228251	246,286	-0,200564	0,000000	0,000000
2,823925	-162,186666	246,586	-0,200150	0,000000	0,000000
2,817919	-162,954666	246,887	-0,200456	0,000000	0,000000
2,811920	-162,763279	247,188	-0,200379	0,000000	0,000000
2,805928	-157,086703	247,491	-0,198120	0,000000	0,000000
2,799903	-143,092170	247,792	-0,192550	0,000000	0,000000
2,793881	-1,304128	248,093	-0,136119	0,000000	0,000000
2,787932	-0,698070	248,394	-0,135877	0,000000	0,000000
2,781910	-0,731195	248,695	-0,135891	0,000000	0,000000
2,775929	-0,698070	248,995	-0,135877	0,000000	0,000000
2,769962	-0,689483	249,297	-0,135874	0,000000	0,000000
2,763912	-0,556984	249,597	-0,135821	0,000000	0,000000
2,757944	-0,755732	249,898	-0,135900	0,000000	0,000000
2,751962	-0,539808	250,198	-0,135814	0,000000	0,000000
2,745925	-0,482147	250,500	-0,135792	0,000000	0,000000
2,739882	-0,539808	250,801	-0,135814	0,000000	0,000000
2,733950	-0,813393	251,103	-0,135923	0,000000	0,000000
2,727916	-0,506684	251,403	-0,135801	0,000000	0,000000
2,721914	-0,431847	251,703	-0,135771	0,000000	0,000000
2,715921	-0,473559	252,003	-0,135788	0,000000	0,000000
2,709962	-0,630594	252,303	-0,135851	0,000000	0,000000
2,703953	-0,597470	252,603	-0,135837	0,000000	0,000000
2,697914	-0,821981	252,903	-0,135927	0,000000	0,000000
2,691933	-0,590109	253,204	-0,135834	0,000000	0,000000
2,685951	-0,456383	253,506	-0,135781	0,000000	0,000000
2,679922	-0,656358	253,806	-0,135861	0,000000	0,000000
2,673938	-0,590109	254,107	-0,135834	0,000000	0,000000
2,667947	-0,590109	254,407	-0,135834	0,000000	0,000000
2,661950	-0,531221	254,708	-0,135811	0,000000	0,000000
2,655933	-0,539808	255,009	-0,135814	0,000000	0,000000
2,649905	-0,590109	255,309	-0,135834	0,000000	0,000000
2,643877	-0,157035	255,610	-0,135662	0,000000	0,000000
2,637936	-0,482147	255,911	-0,135792	0,000000	0,000000
2,631914	-0,074837	256,212	-0,135629	0,000000	0,000000
2,625896	-0,132498	256,512	-0,135652	0,000000	0,000000
2,619958	-0,565572	256,812	-0,135825	0,000000	0,000000
2,613955	-0,431847	257,114	-0,135771	0,000000	0,000000
2,607950	-0,365598	257,416	-0,135745	0,000000	0,000000
2,601888	-0,306709	257,716	-0,135722	0,000000	0,000000
2,595927	-0,407310	258,018	-0,135762	0,000000	0,000000
2,589878	-0,414671	258,318	-0,135765	0,000000	0,000000
2,583913	-0,357010	258,618	-0,135742	0,000000	0,000000
2,577941	-0,323885	258,919	-0,135729	0,000000	0,000000
2,571921	-0,473559	259,219	-0,135788	0,000000	0,000000
2,565938	-0,282173	259,520	-0,135712	0,000000	0,000000
2,559905	0,033125	259,822	-0,135586	0,000000	0,000000
2,553891	-0,315297	260,122	-0,135725	0,000000	0,000000
2,547954	-0,240460	260,422	-0,135695	0,000000	0,000000
2,541937	-0,207336	260,722	-0,135682	0,000000	0,000000
2,537924	-0,132498	260,923	-0,135652	0,000000	0,000000