File: Nanoindentation Datenauswertung/data/PDMS/EM-PDMS-50-10-50-0,5um-2
Quasi static measurement routine
Tip parameters (shape,radius, material...)
15.08.2022

Piezo position[nm]	MEMS displ.[nm]	Time[ms]	Cap [pf]	Temp [°C]	Rh [%]
eoh
2,119912	-0,129568	0,154	-0,106029	22,350000	52,710000
2,121405	-0,779810	0,308	-0,106294	22,350000	52,710000
2,122940	-0,323921	0,459	-0,106108	22,350000	52,710000
2,124434	0,000000	0,624	-0,105977	22,350000	52,710000
2,125915	-0,715026	0,784	-0,106268	22,350000	52,710000
2,127405	-0,454689	0,936	-0,106162	22,350000	52,710000
2,128934	-0,389905	1,098	-0,106135	22,350000	52,710000
2,130398	-0,323921	1,250	-0,106108	22,350000	52,710000
2,131905	0,389905	1,420	-0,105818	22,350000	52,710000
2,133436	-0,519474	1,572	-0,106188	22,350000	52,710000
2,134923	-0,584258	1,722	-0,106214	22,360000	52,710000
2,136411	-0,454689	1,872	-0,106162	22,360000	52,710000
2,137929	-0,454689	2,023	-0,106162	22,360000	52,710000
2,139443	-0,323921	2,174	-0,106108	22,360000	52,710000
2,140969	-0,650242	2,324	-0,106241	22,360000	52,710000
2,142371	-0,519474	2,475	-0,106188	22,360000	52,710000
2,143897	-0,650242	2,627	-0,106241	22,360000	52,710000
2,145450	-0,323921	2,777	-0,106108	22,360000	52,710000
2,146928	-0,650242	2,928	-0,106241	22,360000	52,710000
2,148403	-0,260337	3,090	-0,106083	22,360000	52,710000
2,149886	-0,650242	3,241	-0,106241	22,360000	52,710000
2,151454	-0,323921	3,392	-0,106108	22,360000	52,710000
2,152945	-0,194353	3,542	-0,106056	22,360000	52,710000
2,154389	-0,909379	3,692	-0,106347	22,360000	52,700000
2,155903	-0,323921	3,853	-0,106108	22,360000	52,700000
2,157415	-0,064784	4,003	-0,106003	22,360000	52,700000
2,158973	-0,323921	4,153	-0,106108	22,360000	52,700000
2,160416	-0,064784	4,303	-0,106003	22,360000	52,700000
2,161885	-0,454689	4,453	-0,106162	22,360000	52,700000
2,163440	-0,715026	4,603	-0,106268	22,360000	52,700000
2,164948	-0,260337	4,753	-0,106083	22,360000	52,700000
2,166426	-0,260337	4,904	-0,106083	22,360000	52,700000
2,167920	-0,584258	5,054	-0,106214	22,360000	52,700000
2,169427	-1,040147	5,205	-0,106400	22,360000	52,700000
2,170929	-0,194353	5,355	-0,106056	22,360000	52,700000
2,172476	-0,844595	5,505	-0,106320	22,360000	52,700000
2,173971	-0,323921	5,656	-0,106108	22,350000	52,685000
2,175470	0,260337	5,808	-0,105871	22,350000	52,685000
2,176910	-0,650242	5,959	-0,106241	22,350000	52,685000
2,178449	-0,519474	6,110	-0,106188	22,350000	52,685000
2,179950	-0,323921	6,261	-0,106108	22,350000	52,685000
2,181407	-0,715026	6,411	-0,106268	22,350000	52,685000
2,182928	-0,715026	6,561	-0,106268	22,350000	52,685000
2,184437	-0,389905	6,711	-0,106135	22,350000	52,685000
2,185951	-0,454689	6,861	-0,106162	22,350000	52,685000
2,187423	0,260337	7,011	-0,105871	22,350000	52,685000
2,188975	-0,389905	7,162	-0,106135	22,350000	52,685000
2,190402	-0,129568	7,314	-0,106029	22,350000	52,685000
2,191890	-0,194353	7,465	-0,106056	22,350000	52,685000
2,193432	-0,454689	7,616	-0,106162	22,360000	52,700000
2,194922	-0,584258	7,768	-0,106214	22,360000	52,700000
2,196379	-0,584258	7,920	-0,106214	22,360000	52,700000
2,197909	-0,715026	8,071	-0,106268	22,360000	52,700000
2,199392	-0,129568	8,221	-0,106029	22,360000	52,700000
2,200901	-0,454689	8,371	-0,106162	22,360000	52,700000
2,202385	-0,454689	8,522	-0,106162	22,360000	52,700000
2,203903	-0,323921	8,676	-0,106108	22,360000	52,700000
2,205465	-0,389905	8,827	-0,106135	22,360000	52,700000
2,206916	-0,260337	8,979	-0,106083	22,360000	52,700000
2,208424	-0,323921	9,133	-0,106108	22,360000	52,700000
2,209930	-0,454689	9,284	-0,106162	22,360000	52,700000
2,211404	-0,260337	9,434	-0,106083	22,360000	52,700000
2,212955	-1,104931	9,584	-0,106426	22,360000	52,700000
2,214383	-0,584258	9,736	-0,106214	22,360000	52,700000
2,215915	-0,715026	9,894	-0,106268	22,360000	52,700000
2,217389	0,325121	10,044	-0,105844	22,360000	52,700000
2,218883	-0,519474	10,201	-0,106188	22,360000	52,700000
2,220426	-0,389905	10,351	-0,106135	22,360000	52,700000
2,221873	-0,064784	10,502	-0,106003	22,360000	52,700000
2,223395	-0,129568	10,656	-0,106029	22,360000	52,700000
2,224917	0,000000	10,807	-0,105977	22,360000	52,700000
2,226391	-0,715026	10,959	-0,106268	22,360000	52,700000
2,227912	-0,584258	11,110	-0,106214	22,360000	52,700000
2,229396	-0,323921	11,260	-0,106108	22,360000	52,700000
2,230946	-0,323921	11,411	-0,106108	22,360000	52,700000
2,232395	-0,260337	11,563	-0,106083	22,360000	52,700000
2,233899	-0,650242	11,713	-0,106241	22,350000	52,725000
2,235381	-0,129568	11,864	-0,106029	22,350000	52,725000
2,236930	0,195552	12,014	-0,105897	22,350000	52,725000
2,238395	-0,194353	12,164	-0,106056	22,350000	52,725000
2,239953	-0,064784	12,314	-0,106003	22,350000	52,725000
2,241352	-0,389905	12,464	-0,106135	22,350000	52,725000
2,242911	-0,064784	12,615	-0,106003	22,350000	52,725000
2,244418	-0,454689	12,766	-0,106162	22,350000	52,725000
2,245938	-0,389905	12,916	-0,106135	22,350000	52,725000
2,247419	-0,584258	13,066	-0,106214	22,350000	52,725000
2,248926	-0,454689	13,216	-0,106162	22,350000	52,725000
2,250424	-0,715026	13,367	-0,106268	22,350000	52,725000
2,251903	0,130768	13,519	-0,105923	22,350000	52,725000
2,253456	-1,169716	13,670	-0,106453	22,360000	52,710000
2,254892	-0,129568	13,822	-0,106029	22,360000	52,710000
2,256432	-0,779810	13,974	-0,106294	22,360000	52,710000
2,257920	-0,260337	14,125	-0,106083	22,360000	52,710000
2,259455	0,000000	14,281	-0,105977	22,360000	52,710000
2,260901	-0,650242	14,432	-0,106241	22,360000	52,710000
2,262423	-0,779810	14,583	-0,106294	22,360000	52,710000
2,263927	0,000000	14,744	-0,105977	22,360000	52,710000
2,265430	-1,104931	14,894	-0,106426	22,360000	52,710000
2,266917	-0,194353	15,070	-0,106056	22,360000	52,710000
2,268498	-0,715026	15,223	-0,106268	22,360000	52,710000
2,269855	-0,650242	15,374	-0,106241	22,360000	52,710000
2,271421	-0,389905	15,527	-0,106135	22,360000	52,710000
2,272933	-0,323921	15,677	-0,106108	22,350000	52,685000
2,274416	-0,715026	15,834	-0,106268	22,350000	52,685000
2,275882	-0,454689	15,985	-0,106162	22,350000	52,685000
2,277385	-0,584258	16,135	-0,106214	22,350000	52,685000
2,278927	-0,715026	16,289	-0,106268	22,350000	52,685000
2,280377	-0,454689	16,440	-0,106162	22,350000	52,685000
2,281975	0,000000	16,590	-0,105977	22,350000	52,685000
2,283406	-0,129568	16,741	-0,106029	22,350000	52,685000
2,284924	-1,040147	16,892	-0,106400	22,350000	52,685000
2,286424	-0,260337	17,043	-0,106083	22,350000	52,685000
2,287952	-0,260337	17,194	-0,106083	22,350000	52,685000
2,289414	-0,323921	17,345	-0,106108	22,350000	52,685000
2,290969	-0,584258	17,495	-0,106214	22,350000	52,685000
2,292411	-0,323921	17,646	-0,106108	22,350000	52,685000
2,293934	-0,194353	17,808	-0,106056	22,350000	52,685000
2,295476	-0,519474	17,960	-0,106188	22,350000	52,685000
2,296959	-0,260337	18,111	-0,106083	22,350000	52,685000
2,298438	0,065984	18,269	-0,105950	22,350000	52,685000
2,299938	-4,680062	18,419	-0,107881	22,350000	52,685000
2,301497	-4,160588	18,570	-0,107670	22,350000	52,685000
2,302982	-3,835467	18,737	-0,107538	22,350000	52,685000
2,304440	-3,510346	18,888	-0,107405	22,350000	52,685000
2,305897	-2,860104	19,038	-0,107141	22,350000	52,685000
2,307378	-2,015510	19,188	-0,106797	22,350000	52,685000
2,309029	-1,430052	19,338	-0,106559	22,350000	52,685000
2,310464	-0,129568	19,491	-0,106029	22,350000	52,685000
2,311866	0,260337	19,641	-0,105871	22,360000	52,700000
2,313419	0,910579	19,792	-0,105606	22,360000	52,700000
2,314966	1,106131	19,948	-0,105526	22,360000	52,700000
2,316400	1,300484	20,099	-0,105447	22,360000	52,700000
2,317859	2,795320	20,270	-0,104839	22,360000	52,700000
2,319394	3,511546	20,421	-0,104547	22,360000	52,700000
2,320954	4,226572	20,571	-0,104256	22,360000	52,700000
2,322381	4,356141	20,749	-0,104204	22,360000	52,700000
2,323900	4,486909	20,901	-0,104150	22,360000	52,700000
2,325454	4,876814	21,072	-0,103992	22,360000	52,700000
2,326898	6,046529	21,222	-0,103516	22,360000	52,700000
2,328439	6,567203	21,373	-0,103304	22,360000	52,700000
2,329915	7,217445	21,530	-0,103039	22,360000	52,700000
2,331367	7,542566	21,680	-0,102907	22,370000	52,715000
2,332927	8,843049	21,841	-0,102377	22,370000	52,715000
2,334402	9,687644	21,991	-0,102034	22,370000	52,715000
2,335964	10,012765	22,141	-0,101901	22,370000	52,715000
2,337412	10,402670	22,301	-0,101743	22,370000	52,715000
2,338949	11,378033	22,451	-0,101346	22,370000	52,715000
2,340427	11,248464	22,601	-0,101398	22,370000	52,715000
2,341902	11,963490	22,757	-0,101107	22,370000	52,715000
2,343378	12,808085	22,907	-0,100764	22,370000	52,715000
2,344990	13,458327	23,102	-0,100499	22,370000	52,715000
2,346423	14,108569	23,253	-0,100234	22,370000	52,715000
2,347862	15,083932	23,410	-0,099837	22,370000	52,715000
2,349407	15,798958	23,562	-0,099546	22,370000	52,715000
2,350924	15,994510	23,712	-0,099467	22,360000	52,710000
2,352440	16,709536	23,913	-0,099176	22,360000	52,710000
2,353942	16,253647	24,066	-0,099361	22,360000	52,710000
2,355437	17,879252	24,219	-0,098700	22,360000	52,710000
2,356924	18,335141	24,372	-0,098514	22,360000	52,710000
2,358416	18,789830	24,523	-0,098329	22,360000	52,710000
2,359954	19,634425	24,680	-0,097985	22,360000	52,710000
2,361412	20,284667	24,830	-0,097721	22,360000	52,710000
2,362919	20,870124	24,981	-0,097482	22,360000	52,710000
2,364421	21,585150	25,145	-0,097191	22,360000	52,710000
2,365907	22,235392	25,295	-0,096927	22,360000	52,710000
2,367462	22,560513	25,458	-0,096794	22,360000	52,710000
2,368886	22,820850	25,610	-0,096688	22,360000	52,700000
2,370355	23,535876	25,761	-0,096397	22,360000	52,700000
2,371921	23,860997	25,924	-0,096265	22,360000	52,700000
2,373441	24,056549	26,075	-0,096186	22,360000	52,700000
2,374936	25,745739	26,228	-0,095498	22,360000	52,700000
2,376374	25,941291	26,379	-0,095418	22,360000	52,700000
2,377901	26,331196	26,530	-0,095260	22,360000	52,700000
2,379389	27,502111	26,691	-0,094783	22,360000	52,700000
2,380926	28,086369	26,842	-0,094545	22,360000	52,700000
2,382365	28,411490	26,994	-0,094413	22,360000	52,700000
2,383882	29,192500	27,149	-0,094095	22,360000	52,700000
2,385380	29,711974	27,299	-0,093884	22,360000	52,700000
2,386970	29,647190	27,449	-0,093910	22,360000	52,700000
2,388414	30,491784	27,599	-0,093566	22,360000	52,700000
2,389904	31,077242	27,750	-0,093328	22,360000	52,700000
2,391416	31,987821	27,931	-0,092958	22,360000	52,700000
2,392864	32,833615	28,082	-0,092613	22,360000	52,700000
2,394400	33,092752	28,246	-0,092508	22,360000	52,700000
2,395925	33,938546	28,398	-0,092164	22,360000	52,700000
2,397387	34,393236	28,549	-0,091979	22,360000	52,700000
2,398928	34,328451	28,712	-0,092005	22,360000	52,700000
2,400453	36,148409	28,863	-0,091264	22,360000	52,700000
2,401904	35,823288	29,043	-0,091396	22,360000	52,700000
2,403415	36,994203	29,204	-0,090920	22,360000	52,700000
2,404933	37,123771	29,354	-0,090867	22,360000	52,700000
2,406439	37,774013	29,514	-0,090603	22,360000	52,700000
2,407920	38,684592	29,665	-0,090232	22,360000	52,700000
2,409391	39,464402	29,821	-0,089915	22,360000	52,700000
2,410851	40,049860	29,972	-0,089676	22,360000	52,700000
2,412418	40,894454	30,123	-0,089333	22,360000	52,700000
2,413914	41,415128	30,301	-0,089121	22,360000	52,700000
2,415404	41,609481	30,452	-0,089042	22,360000	52,700000
2,416923	41,934602	30,602	-0,088909	22,360000	52,700000
2,418389	42,584843	30,765	-0,088645	22,360000	52,700000
2,419933	43,755759	30,916	-0,088168	22,360000	52,700000
2,421391	43,040732	31,067	-0,088459	22,360000	52,700000
2,422911	44,470785	31,217	-0,087877	22,360000	52,700000
2,424398	44,406000	31,369	-0,087903	22,360000	52,700000
2,425949	46,030405	31,523	-0,087242	22,360000	52,700000
2,427353	46,355526	31,674	-0,087110	22,360000	52,700000
2,428978	46,486295	31,834	-0,087057	22,360000	52,700000
2,430418	46,745432	31,984	-0,086951	22,360000	52,700000
2,431936	48,501804	32,135	-0,086236	22,360000	52,700000
2,433426	48,435820	32,286	-0,086263	22,360000	52,700000
2,434892	48,176683	32,437	-0,086369	22,360000	52,700000
2,436405	49,086062	32,587	-0,085999	22,360000	52,700000
2,437936	49,996641	32,739	-0,085628	22,360000	52,700000
2,439421	50,321762	32,890	-0,085496	22,360000	52,700000
2,440905	50,711667	33,049	-0,085337	22,360000	52,700000
2,442390	51,492677	33,203	-0,085019	22,360000	52,700000
2,443927	52,727177	33,354	-0,084517	22,360000	52,700000
2,445398	53,312634	33,507	-0,084278	22,360000	52,700000
2,446978	52,922729	33,657	-0,084437	22,350000	52,725000
2,448409	54,417566	33,809	-0,083829	22,350000	52,725000
2,449926	54,807471	33,960	-0,083670	22,350000	52,725000
2,451407	55,003023	34,110	-0,083590	22,350000	52,725000
2,452888	54,807471	34,264	-0,083670	22,350000	52,725000
2,454404	56,497860	34,414	-0,082982	22,350000	52,725000
2,455893	56,822981	34,564	-0,082850	22,350000	52,725000
2,457428	57,148102	34,724	-0,082717	22,350000	52,725000
2,458928	58,644138	34,875	-0,082108	22,350000	52,725000
2,460371	58,644138	35,038	-0,082108	22,350000	52,725000
2,461894	59,294380	35,189	-0,081844	22,350000	52,725000
2,463422	59,943422	35,341	-0,081580	22,350000	52,725000
2,464889	61,049553	35,508	-0,081129	22,350000	52,725000
2,466394	61,764579	35,658	-0,080838	22,350000	52,725000
2,467947	61,699795	35,808	-0,080865	22,350000	52,725000
2,469419	62,544389	35,990	-0,080521	22,350000	52,725000
2,470947	63,259415	36,140	-0,080230	22,350000	52,725000
2,472445	63,584536	36,291	-0,080098	22,350000	52,725000
2,473923	64,559899	36,441	-0,079701	22,350000	52,725000
2,475451	64,885020	36,591	-0,079568	22,350000	52,725000
2,476925	65,470478	36,741	-0,079330	22,350000	52,725000
2,478437	65,664830	36,891	-0,079251	22,350000	52,725000
2,479896	66,445840	37,051	-0,078933	22,350000	52,725000
2,481457	67,290435	37,201	-0,078589	22,350000	52,725000
2,482887	67,745124	37,351	-0,078404	22,350000	52,725000
2,484372	68,395366	37,510	-0,078140	22,350000	52,725000
2,485914	68,590919	37,661	-0,078060	22,360000	52,700000
2,487461	70,086955	37,811	-0,077451	22,360000	52,700000
2,488951	70,476860	37,988	-0,077292	22,360000	52,700000
2,490371	70,801981	38,139	-0,077160	22,360000	52,700000
2,491918	71,127102	38,292	-0,077028	22,360000	52,700000
2,493378	72,296817	38,442	-0,076552	22,360000	52,700000
2,494922	72,102465	38,593	-0,076631	22,360000	52,700000
2,496386	72,882275	38,759	-0,076313	22,360000	52,700000
2,497916	72,557154	38,909	-0,076446	22,360000	52,700000
2,499422	73,401749	39,072	-0,076102	22,360000	52,700000
2,500914	73,857638	39,223	-0,075917	22,360000	52,700000
2,502406	74,247543	39,374	-0,075758	22,360000	52,700000
2,503912	74,897785	39,529	-0,075493	22,360000	52,700000
2,505447	75,417259	39,679	-0,075282	22,360000	52,700000
2,506915	75,287690	39,839	-0,075334	22,360000	52,700000
2,508386	75,807164	39,989	-0,075123	22,360000	52,700000
2,509878	77,042863	40,140	-0,074620	22,360000	52,700000
2,511390	76,067500	40,291	-0,075017	22,360000	52,700000
2,512888	77,432768	40,443	-0,074461	22,360000	52,700000
2,514415	77,823873	40,593	-0,074302	22,360000	52,700000
2,515889	78,213778	40,743	-0,074144	22,360000	52,700000
2,517436	77,823873	40,893	-0,074302	22,360000	52,700000
2,518918	78,927605	41,043	-0,073853	22,360000	52,700000
2,520394	79,253925	41,193	-0,073720	22,360000	52,700000
2,521948	79,902968	41,343	-0,073456	22,360000	52,700000
2,523376	80,358857	41,493	-0,073271	22,360000	52,700000
2,524890	80,488425	41,643	-0,073218	22,360000	52,700000
2,526428	81,203451	41,794	-0,072927	22,360000	52,700000
2,527922	81,399004	41,988	-0,072847	22,360000	52,700000
2,529374	81,528572	42,139	-0,072794	22,360000	52,700000
2,530935	83,154177	42,295	-0,072133	22,360000	52,700000
2,532450	82,829056	42,446	-0,072265	22,360000	52,700000
2,533911	83,284945	42,596	-0,072080	22,360000	52,700000
2,535439	83,739635	42,746	-0,071895	22,360000	52,700000
2,536891	83,804419	42,897	-0,071868	22,360000	52,700000
2,538401	84,129540	43,059	-0,071736	22,360000	52,700000
2,539922	85,624376	43,209	-0,071127	22,360000	52,700000
2,541439	85,949497	43,359	-0,070995	22,360000	52,700000
2,542909	85,169687	43,518	-0,071313	22,360000	52,700000
2,544360	86,730507	43,669	-0,070677	22,360000	52,700000
2,545880	86,730507	43,840	-0,070677	22,360000	52,700000
2,547465	87,185197	43,991	-0,070492	22,360000	52,700000
2,548878	87,965007	44,141	-0,070175	22,360000	52,700000
2,550438	87,900223	44,295	-0,070201	22,360000	52,700000
2,551921	88,029791	44,445	-0,070148	22,360000	52,700000
2,553416	89,720180	44,595	-0,069460	22,360000	52,700000
2,554868	89,720180	44,748	-0,069460	22,360000	52,700000
2,556422	89,850948	44,900	-0,069407	22,360000	52,700000
2,557861	90,501190	45,052	-0,069143	22,360000	52,700000
2,559413	91,281000	45,202	-0,068825	22,360000	52,700000
2,560876	91,541337	45,353	-0,068719	22,360000	52,700000
2,562380	92,321147	45,504	-0,068402	22,360000	52,700000
2,563939	92,646268	45,654	-0,068270	22,360000	52,710000
2,565389	92,711053	45,807	-0,068243	22,360000	52,710000
2,566902	93,621631	45,973	-0,067873	22,360000	52,710000
2,568390	94,401442	46,123	-0,067555	22,360000	52,710000
2,569844	94,401442	46,294	-0,067555	22,360000	52,710000
2,571390	94,791347	46,446	-0,067396	22,360000	52,710000
2,572891	95,572357	46,596	-0,067079	22,360000	52,710000
2,574385	96,352167	46,747	-0,066761	22,360000	52,710000
2,575902	97,327530	46,897	-0,066364	22,360000	52,710000
2,577472	97,067193	47,049	-0,066470	22,360000	52,710000
2,578890	97,847004	47,200	-0,066153	22,360000	52,710000
2,580410	98,692798	47,350	-0,065809	22,360000	52,710000
2,581865	99,147487	47,502	-0,065624	22,360000	52,710000
2,583383	99,732945	47,653	-0,065385	22,350000	52,710000
2,584861	100,318403	47,805	-0,065147	22,350000	52,710000
2,586368	100,708308	48,000	-0,064988	22,350000	52,710000
2,587901	100,578739	48,151	-0,065041	22,350000	52,710000
2,589422	102,333912	48,303	-0,064327	22,350000	52,710000
2,590853	102,659033	48,453	-0,064194	22,350000	52,710000
2,592424	102,918170	48,603	-0,064089	22,350000	52,710000
2,593915	102,788602	48,753	-0,064142	22,350000	52,710000
2,595388	103,568412	48,903	-0,063824	22,350000	52,710000
2,596896	104,608559	49,072	-0,063401	22,350000	52,710000
2,598400	105,583922	49,223	-0,063004	22,350000	52,710000
2,599838	106,364932	49,374	-0,062686	22,350000	52,710000
2,601464	106,559285	49,539	-0,062607	22,350000	52,710000
2,602965	107,079958	49,691	-0,062395	22,350000	52,710000
2,604380	108,315658	49,852	-0,061892	22,350000	52,710000
2,605905	108,315658	50,002	-0,061892	22,350000	52,710000
2,607423	109,029484	50,153	-0,061602	22,350000	52,710000
2,608898	108,639579	50,320	-0,061760	22,350000	52,710000
2,610384	108,835131	50,471	-0,061681	22,350000	52,710000
2,611842	109,679726	50,641	-0,061337	22,350000	52,710000
2,613408	111,110978	50,791	-0,060754	22,350000	52,710000
2,614940	111,305331	50,941	-0,060675	22,350000	52,710000
2,616403	111,565667	51,091	-0,060569	22,350000	52,710000
2,617916	112,605814	51,242	-0,060146	22,350000	52,710000
2,619417	112,735383	51,393	-0,060093	22,350000	52,710000
2,619923	113,060504	51,548	-0,059961	22,350000	52,710000
2,619930	112,605814	51,699	-0,060146	22,360000	52,710000
2,619949	112,670599	51,858	-0,060120	22,360000	52,710000
2,619855	112,995719	52,009	-0,059987	22,360000	52,710000
2,619891	112,085141	52,160	-0,060358	22,360000	52,710000
2,619890	113,516393	52,311	-0,059775	22,360000	52,710000
2,619894	112,866151	52,461	-0,060040	22,360000	52,710000
2,619943	112,085141	52,612	-0,060358	22,360000	52,710000
2,619899	113,060504	52,781	-0,059961	22,360000	52,710000
2,619846	111,630451	52,932	-0,060543	22,360000	52,710000
2,619846	111,110978	53,098	-0,060754	22,360000	52,710000
2,619877	111,695236	53,248	-0,060517	22,360000	52,710000
2,619946	111,436099	53,398	-0,060622	22,360000	52,710000
2,619871	111,371314	53,549	-0,060648	22,360000	52,710000
2,619882	110,915425	53,700	-0,060834	22,360000	52,700000
2,619841	111,500883	53,877	-0,060596	22,360000	52,700000
2,619889	110,721073	54,028	-0,060913	22,360000	52,700000
2,619880	111,305331	54,178	-0,060675	22,360000	52,700000
2,619856	111,305331	54,344	-0,060675	22,360000	52,700000
2,619914	111,044994	54,495	-0,060781	22,360000	52,700000
2,619880	111,044994	54,657	-0,060781	22,360000	52,700000
2,619899	110,460736	54,808	-0,061019	22,360000	52,700000
2,619868	110,525520	54,959	-0,060993	22,360000	52,700000
2,619937	110,070831	55,110	-0,061178	22,360000	52,700000
2,619850	110,525520	55,260	-0,060993	22,360000	52,700000
2,619907	110,265184	55,411	-0,061099	22,360000	52,700000
2,619870	111,110978	55,561	-0,060754	22,360000	52,710000
2,619893	110,460736	55,712	-0,061019	22,360000	52,710000
2,619903	109,810494	55,881	-0,061284	22,360000	52,710000
2,619889	110,004847	56,031	-0,061205	22,360000	52,710000
2,619950	110,329968	56,183	-0,061072	22,360000	52,710000
2,619898	110,785857	56,354	-0,060887	22,360000	52,710000
2,619875	110,135615	56,505	-0,061151	22,360000	52,710000
2,619932	110,135615	56,657	-0,061151	22,360000	52,710000
2,619837	110,395952	56,808	-0,061045	22,360000	52,710000
2,619945	109,940063	56,958	-0,061231	22,360000	52,710000
2,619962	110,265184	57,113	-0,061099	22,360000	52,710000
2,619894	109,614942	57,265	-0,061363	22,360000	52,710000
2,619894	109,940063	57,415	-0,061231	22,360000	52,710000
2,619928	110,265184	57,586	-0,061099	22,350000	52,695000
2,619875	110,135615	57,737	-0,061151	22,350000	52,695000
2,619921	109,420589	57,889	-0,061442	22,350000	52,695000
2,619914	109,614942	58,039	-0,061363	22,350000	52,695000
2,619846	109,679726	58,190	-0,061337	22,350000	52,695000
2,619847	109,355805	58,355	-0,061469	22,350000	52,695000
2,619864	109,679726	58,506	-0,061337	22,350000	52,695000
2,619952	110,070831	58,658	-0,061178	22,350000	52,695000
2,619864	109,550157	58,809	-0,061390	22,350000	52,695000
2,619915	108,965899	58,959	-0,061627	22,350000	52,695000
2,619932	109,029484	59,111	-0,061602	22,350000	52,695000
2,619860	109,160252	59,261	-0,061548	22,350000	52,695000
2,619888	108,574795	59,412	-0,061787	22,350000	52,695000
2,619889	109,810494	59,564	-0,061284	22,350000	52,695000
2,619902	109,355805	59,714	-0,061469	22,350000	52,695000
2,619967	108,639579	59,880	-0,061760	22,350000	52,695000
2,619861	108,639579	60,030	-0,061760	22,350000	52,695000
2,619864	108,639579	60,180	-0,061760	22,350000	52,695000
2,619899	108,965899	60,339	-0,061627	22,350000	52,695000
2,619854	109,289821	60,489	-0,061496	22,350000	52,695000
2,619880	108,510010	60,653	-0,061813	22,350000	52,695000
2,619929	109,485373	60,804	-0,061416	22,350000	52,695000
2,619881	108,770347	60,956	-0,061707	22,350000	52,695000
2,619867	108,380442	61,118	-0,061866	22,350000	52,695000
2,619873	109,029484	61,269	-0,061602	22,350000	52,695000
2,619892	107,665416	61,419	-0,062157	22,350000	52,695000
2,619918	108,249674	61,569	-0,061919	22,360000	52,700000
2,619887	108,120105	61,720	-0,061972	22,360000	52,700000
2,618435	106,690053	61,889	-0,062554	22,360000	52,700000
2,616908	106,300148	62,040	-0,062712	22,360000	52,700000
2,615429	106,039811	62,192	-0,062818	22,360000	52,700000
2,613909	104,349422	62,353	-0,063506	22,360000	52,700000
2,612372	103,828749	62,504	-0,063718	22,360000	52,700000
2,610888	102,984154	62,669	-0,064062	22,360000	52,700000
2,609439	103,178507	62,819	-0,063983	22,360000	52,700000
2,607908	101,944007	62,970	-0,064485	22,360000	52,700000
2,606416	100,837876	63,138	-0,064936	22,360000	52,700000
2,604960	100,188834	63,289	-0,065200	22,360000	52,700000
2,603370	99,993282	63,454	-0,065279	22,360000	52,700000
2,601953	98,617216	63,605	-0,065839	22,360000	52,700000
2,600414	98,042556	63,755	-0,066073	22,360000	52,700000
2,598837	96,612504	63,914	-0,066655	22,360000	52,700000
2,597463	96,612504	64,065	-0,066655	22,360000	52,700000
2,595869	95,701925	64,216	-0,067026	22,360000	52,700000
2,594364	94,271873	64,367	-0,067608	22,360000	52,700000
2,592872	93,946752	64,517	-0,067740	22,360000	52,700000
2,591385	92,711053	64,670	-0,068243	22,360000	52,700000
2,589877	92,256363	64,822	-0,068428	22,360000	52,700000
2,588375	91,151432	64,973	-0,068878	22,360000	52,700000
2,586882	91,345785	65,133	-0,068799	22,360000	52,700000
2,585400	90,826311	65,283	-0,069010	22,360000	52,700000
2,583920	89,396259	65,434	-0,069592	22,360000	52,700000
2,582429	88,095775	65,594	-0,070122	22,360000	52,700000
2,580932	87,380749	65,744	-0,070413	22,360000	52,700000
2,579413	86,664523	65,913	-0,070704	22,360000	52,700000
2,577852	86,405386	66,063	-0,070810	22,360000	52,700000
2,576403	85,690360	66,216	-0,071101	22,360000	52,700000
2,574901	85,234471	66,374	-0,071286	22,360000	52,700000
2,573411	84,129540	66,525	-0,071736	22,360000	52,700000
2,571874	83,154177	66,699	-0,072133	22,360000	52,700000
2,570386	82,829056	66,850	-0,072265	22,360000	52,700000
2,568954	81,334220	67,001	-0,072874	22,360000	52,700000
2,567378	81,073883	67,165	-0,072979	22,360000	52,700000
2,565897	81,009099	67,315	-0,073006	22,360000	52,700000
2,564395	79,838183	67,468	-0,073482	22,360000	52,700000
2,562923	78,993589	67,618	-0,073826	22,370000	52,715000
2,561384	78,147794	67,770	-0,074170	22,370000	52,715000
2,559864	77,953442	67,922	-0,074250	22,370000	52,715000
2,558422	77,172432	68,072	-0,074567	22,370000	52,715000
2,556864	76,588174	68,223	-0,074805	22,370000	52,715000
2,555401	75,092138	68,373	-0,075414	22,370000	52,715000
2,553890	74,831801	68,523	-0,075520	22,370000	52,715000
2,552396	74,182759	68,673	-0,075784	22,370000	52,715000
2,550939	73,987206	68,824	-0,075864	22,370000	52,715000
2,549404	72,167249	68,975	-0,076604	22,370000	52,715000
2,548001	71,971696	69,145	-0,076684	22,370000	52,715000
2,546354	71,256670	69,295	-0,076975	22,370000	52,715000
2,544862	70,410876	69,459	-0,077319	22,370000	52,715000
2,543394	70,216523	69,609	-0,077398	22,360000	52,700000
2,541913	69,305945	69,759	-0,077769	22,360000	52,700000
2,540361	68,071445	69,916	-0,078271	22,360000	52,700000
2,538890	67,421203	70,068	-0,078536	22,360000	52,700000
2,537345	66,250288	70,220	-0,079013	22,360000	52,700000
2,535966	65,730814	70,376	-0,079224	22,360000	52,700000
2,534422	64,624683	70,526	-0,079674	22,360000	52,700000
2,532914	64,430331	70,694	-0,079753	22,360000	52,700000
2,531395	63,975641	70,844	-0,079938	22,360000	52,700000
2,529941	63,194631	70,994	-0,080256	22,360000	52,700000
2,528449	62,414821	71,163	-0,080574	22,360000	52,700000
2,526894	61,764579	71,313	-0,080838	22,360000	52,700000
2,525370	61,439458	71,473	-0,080971	22,360000	52,700000
2,523920	59,813853	71,624	-0,081632	22,370000	52,715000
2,522390	59,684285	71,774	-0,081685	22,370000	52,715000
2,520915	59,034043	71,944	-0,081950	22,370000	52,715000
2,519414	57,083317	72,094	-0,082744	22,370000	52,715000
2,517920	58,200246	72,244	-0,082289	22,370000	52,715000
2,516387	56,562644	72,404	-0,082956	22,370000	52,715000
2,514887	56,562644	72,556	-0,082956	22,370000	52,715000
2,513429	55,588481	72,723	-0,083352	22,370000	52,715000
2,511924	54,417566	72,874	-0,083829	22,370000	52,715000
2,510430	53,702540	73,024	-0,084120	22,370000	52,715000
2,508932	52,076935	73,174	-0,084781	22,370000	52,715000
2,507349	52,597608	73,326	-0,084569	22,370000	52,715000
2,505897	51,622245	73,477	-0,084966	22,370000	52,715000
2,504392	49,867072	73,628	-0,085681	22,370000	52,715000
2,502892	49,606736	73,778	-0,085787	22,370000	52,715000
2,501414	49,411183	73,930	-0,085866	22,370000	52,715000
2,499880	48,631373	74,081	-0,086184	22,370000	52,715000
2,498388	48,045915	74,232	-0,086422	22,370000	52,715000
2,496896	47,330889	74,383	-0,086713	22,370000	52,715000
2,495396	46,551079	74,534	-0,087030	22,370000	52,715000
2,493911	46,225958	74,702	-0,087163	22,370000	52,715000
2,492429	45,121027	74,852	-0,087612	22,370000	52,715000
2,490890	44,860690	75,002	-0,087718	22,370000	52,715000
2,489451	44,406000	75,167	-0,087903	22,370000	52,715000
2,487873	43,299869	75,318	-0,088354	22,370000	52,715000
2,486455	42,974749	75,469	-0,088486	22,370000	52,715000
2,484888	42,064170	75,620	-0,088856	22,370000	52,700000
2,483456	41,415128	75,770	-0,089121	22,370000	52,700000
2,481902	40,308997	75,925	-0,089571	22,370000	52,700000
2,480389	40,764886	76,075	-0,089385	22,370000	52,700000
2,478905	38,553824	76,226	-0,090285	22,370000	52,700000
2,477470	38,099134	76,403	-0,090470	22,370000	52,700000
2,475886	38,684592	76,553	-0,090232	22,370000	52,700000
2,474411	37,495681	76,724	-0,090716	22,370000	52,700000
2,472909	36,279177	76,874	-0,091211	22,370000	52,700000
2,471378	36,083624	77,027	-0,091291	22,370000	52,700000
2,469867	35,758504	77,199	-0,091423	22,370000	52,700000
2,468433	34,588788	77,349	-0,091899	22,370000	52,700000
2,466927	34,003330	77,518	-0,092137	22,370000	52,700000
2,465446	33,742994	77,668	-0,092243	22,360000	52,685000
2,463927	32,638062	77,819	-0,092693	22,360000	52,685000
2,462393	32,312941	77,975	-0,092825	22,360000	52,685000
2,460881	31,727484	78,126	-0,093063	22,360000	52,685000
2,459420	31,208010	78,300	-0,093275	22,360000	52,685000
2,457914	30,491784	78,451	-0,093566	22,360000	52,685000
2,456450	30,232647	78,601	-0,093672	22,360000	52,685000
2,454890	29,126516	78,773	-0,094122	22,360000	52,685000
2,453362	29,061732	78,924	-0,094148	22,360000	52,685000
2,451874	27,631680	79,076	-0,094730	22,360000	52,685000
2,450433	27,371343	79,227	-0,094836	22,360000	52,685000
2,448859	27,371343	79,379	-0,094836	22,360000	52,685000
2,447421	26,591533	79,529	-0,095154	22,360000	52,685000
2,445925	25,876507	79,679	-0,095445	22,360000	52,700000
2,444420	25,941291	79,829	-0,095418	22,360000	52,700000
2,442890	25,161481	80,004	-0,095736	22,360000	52,700000
2,441416	23,925781	80,154	-0,096239	22,360000	52,700000
2,439959	23,796213	80,329	-0,096292	22,360000	52,700000
2,438382	23,210755	80,480	-0,096530	22,360000	52,700000
2,436920	22,495729	80,630	-0,096821	22,360000	52,700000
2,435459	22,235392	80,800	-0,096927	22,360000	52,700000
2,433887	21,845487	80,952	-0,097085	22,360000	52,700000
2,432393	21,437586	81,104	-0,097251	22,360000	52,700000
2,430929	20,155098	81,254	-0,097773	22,360000	52,700000
2,429461	19,634425	81,404	-0,097985	22,360000	52,700000
2,427886	19,375288	81,560	-0,098091	22,360000	52,700000
2,426409	19,244520	81,710	-0,098144	22,360000	52,700000
2,424942	18,139588	81,870	-0,098594	22,360000	52,700000
2,423420	17,359778	82,020	-0,098911	22,360000	52,700000
2,421900	17,618915	82,170	-0,098806	22,360000	52,700000
2,420362	17,359778	82,322	-0,098911	22,360000	52,700000
2,418897	16,903889	82,473	-0,099097	22,360000	52,700000
2,417430	15,929726	82,624	-0,099493	22,360000	52,700000
2,415967	15,863742	82,781	-0,099520	22,360000	52,700000
2,414402	15,148716	82,934	-0,099811	22,360000	52,700000
2,412889	15,279484	83,102	-0,099758	22,360000	52,700000
2,411399	14,108569	83,252	-0,100234	22,360000	52,700000
2,409931	14,433690	83,402	-0,100102	22,360000	52,700000
2,408428	14,108569	83,560	-0,100234	22,360000	52,710000
2,406925	13,133206	83,712	-0,100631	22,360000	52,710000
2,405433	13,458327	83,882	-0,100499	22,360000	52,710000
2,403934	12,613732	84,033	-0,100843	22,360000	52,710000
2,402413	12,157843	84,183	-0,101028	22,360000	52,710000
2,400889	10,858559	84,333	-0,101557	22,360000	52,710000
2,399414	11,117696	84,484	-0,101452	22,360000	52,710000
2,397923	10,208317	84,634	-0,101822	22,360000	52,710000
2,396407	9,752428	84,810	-0,102007	22,360000	52,710000
2,394930	10,273102	84,960	-0,101795	22,360000	52,710000
2,393465	9,492092	85,127	-0,102113	22,360000	52,710000
2,391894	8,582713	85,277	-0,102483	22,360000	52,710000
2,390408	8,322376	85,427	-0,102589	22,360000	52,710000
2,388934	8,062039	85,578	-0,102695	22,360000	52,710000
2,387399	7,217445	85,730	-0,103039	22,360000	52,710000
2,385832	7,152660	85,901	-0,103065	22,360000	52,710000
2,384371	6,371650	86,052	-0,103383	22,360000	52,710000
2,382888	6,111314	86,202	-0,103489	22,360000	52,710000
2,381373	5,656624	86,381	-0,103674	22,360000	52,710000
2,379976	5,461072	86,531	-0,103754	22,360000	52,710000
2,378396	5,527056	86,707	-0,103727	22,360000	52,710000
2,376891	5,006382	86,858	-0,103939	22,360000	52,710000
2,375386	4,356141	87,009	-0,104204	22,360000	52,710000
2,373902	4,291356	87,178	-0,104230	22,360000	52,710000
2,372405	3,641114	87,328	-0,104495	22,360000	52,710000
2,370888	3,251209	87,481	-0,104653	22,360000	52,710000
2,369429	2,665752	87,631	-0,104892	22,360000	52,710000
2,367962	2,081494	87,782	-0,105129	22,360000	52,710000
2,366370	2,081494	87,958	-0,105129	22,360000	52,710000
2,364865	2,211062	88,108	-0,105077	22,360000	52,710000
2,363427	1,365268	88,261	-0,105421	22,360000	52,710000
2,361901	1,106131	88,411	-0,105526	22,360000	52,710000
2,360451	0,325121	88,561	-0,105844	22,360000	52,710000
2,358934	0,910579	88,731	-0,105606	22,360000	52,710000
2,357391	0,195552	88,882	-0,105897	22,360000	52,710000
2,355899	-0,584258	89,032	-0,106214	22,360000	52,710000
2,354381	0,000000	89,191	-0,105977	22,360000	52,710000
2,352928	-1,494836	89,341	-0,106585	22,360000	52,710000
2,351430	-1,494836	89,491	-0,106585	22,360000	52,710000
2,349940	-1,819957	89,642	-0,106717	22,360000	52,740000
2,348406	-2,470199	89,792	-0,106982	22,360000	52,740000
2,346893	-1,949526	89,943	-0,106770	22,360000	52,740000
2,345412	-3,379578	90,095	-0,107352	22,360000	52,740000
2,343902	-3,055657	90,246	-0,107220	22,360000	52,740000
2,342440	-3,705899	90,426	-0,107485	22,360000	52,740000
2,340895	-3,639915	90,577	-0,107458	22,360000	52,740000
2,339403	-2,924889	90,739	-0,107167	22,360000	52,740000
2,337878	-4,160588	90,890	-0,107670	22,360000	52,740000
2,336484	-5,135951	91,040	-0,108067	22,360000	52,740000
2,334928	-4,810830	91,205	-0,107935	22,360000	52,740000
2,333435	-4,810830	91,355	-0,107935	22,360000	52,740000
2,331895	-5,396288	91,524	-0,108173	22,360000	52,740000
2,330420	-6,371650	91,675	-0,108570	22,360000	52,740000
2,328971	-6,111314	91,827	-0,108464	22,360000	52,740000
2,327424	-6,435235	91,993	-0,108596	22,360000	52,740000
2,325900	-6,826340	92,143	-0,108755	22,360000	52,740000
2,324466	-7,411797	92,319	-0,108993	22,360000	52,740000
2,322918	-6,955908	92,470	-0,108808	22,360000	52,740000
2,321395	-7,606150	92,620	-0,109072	22,360000	52,740000
2,319927	-8,321176	92,776	-0,109363	22,360000	52,740000
2,318496	-8,321176	92,926	-0,109363	22,360000	52,740000
2,316952	-8,906634	93,103	-0,109602	22,360000	52,740000
2,315403	-8,841850	93,254	-0,109575	22,360000	52,740000
2,313914	-9,166971	93,405	-0,109708	22,360000	52,740000
2,312461	-9,427307	93,556	-0,109813	22,360000	52,740000
2,310845	-9,946781	93,706	-0,110025	22,370000	52,715000
2,309350	-9,751229	93,878	-0,109945	22,370000	52,715000
2,307919	-10,271902	94,028	-0,110157	22,370000	52,715000
2,306399	-10,401470	94,178	-0,110210	22,370000	52,715000
2,304866	-11,507601	94,351	-0,110660	22,370000	52,715000
2,303388	-10,986928	94,501	-0,110448	22,370000	52,715000
2,301855	-11,766738	94,651	-0,110766	22,370000	52,715000
2,300416	-12,416980	94,826	-0,111030	22,370000	52,715000
2,298943	-12,742101	94,978	-0,111163	22,370000	52,715000
2,297404	-13,327559	95,141	-0,111401	22,370000	52,715000
2,295975	-13,132006	95,292	-0,111321	22,370000	52,715000
2,294389	-13,717464	95,443	-0,111560	22,370000	52,715000
2,292968	-13,392343	95,606	-0,111427	22,360000	52,685000
2,291405	-13,523111	95,758	-0,111480	22,360000	52,685000
2,289936	-14,238137	95,925	-0,111771	22,360000	52,685000
2,288470	-14,432490	96,076	-0,111851	22,360000	52,685000
2,286917	-13,913016	96,226	-0,111639	22,360000	52,685000
2,285423	-14,367706	96,396	-0,111824	22,360000	52,685000
2,283906	-14,953163	96,547	-0,112062	22,360000	52,685000
2,282438	-15,278284	96,723	-0,112195	22,360000	52,685000
2,280927	-15,147516	96,873	-0,112142	22,360000	52,685000
2,279422	-15,732974	97,024	-0,112380	22,360000	52,685000
2,277926	-16,318431	97,195	-0,112618	22,360000	52,685000
2,276403	-16,448000	97,346	-0,112671	22,360000	52,685000
2,274977	-16,513984	97,503	-0,112698	22,360000	52,685000
2,273430	-17,358578	97,653	-0,113042	22,360000	52,725000
2,271979	-17,748484	97,804	-0,113200	22,360000	52,725000
2,270434	-16,058095	97,983	-0,112512	22,360000	52,725000
2,268923	-16,318431	98,133	-0,112618	22,360000	52,725000
2,267401	-16,122879	98,297	-0,112539	22,360000	52,725000
2,265931	-15,212300	98,448	-0,112168	22,360000	52,725000
2,264420	-15,212300	98,598	-0,112168	22,360000	52,725000
2,262929	-14,563258	98,780	-0,111904	22,360000	52,725000
2,261419	-14,042585	98,931	-0,111692	22,360000	52,725000
2,259942	-13,327559	99,091	-0,111401	22,360000	52,725000
2,258401	-12,416980	99,243	-0,111030	22,360000	52,725000
2,256924	-11,442817	99,393	-0,110634	22,360000	52,725000
2,255481	-11,376833	99,549	-0,110607	22,360000	52,725000
2,253871	-10,271902	99,700	-0,110157	22,370000	52,715000
2,252426	-9,751229	99,850	-0,109945	22,370000	52,715000
2,250924	-9,166971	100,030	-0,109708	22,370000	52,715000
2,249401	-8,516729	100,181	-0,109443	22,370000	52,715000
2,247927	-8,387160	100,333	-0,109390	22,370000	52,715000
2,246405	-7,736918	100,483	-0,109125	22,370000	52,715000
2,244980	-7,541366	100,633	-0,109046	22,370000	52,715000
2,243472	-7,345813	100,801	-0,108966	22,370000	52,715000
2,241921	-6,630787	100,952	-0,108675	22,370000	52,715000
2,240434	-6,501219	101,129	-0,108623	22,370000	52,715000
2,238904	-6,501219	101,281	-0,108623	22,370000	52,715000
2,237446	-5,135951	101,431	-0,108067	22,370000	52,715000
2,235894	-4,550493	101,593	-0,107829	22,360000	52,700000
2,234417	-4,550493	101,743	-0,107829	22,360000	52,700000
2,232896	-4,550493	101,926	-0,107829	22,360000	52,700000
2,231413	-4,290157	102,078	-0,107723	22,360000	52,700000
2,229922	-3,575131	102,229	-0,107432	22,360000	52,700000
2,228400	-3,445562	102,401	-0,107379	22,360000	52,700000
2,226920	-3,120441	102,552	-0,107247	22,360000	52,700000
2,225421	-2,665752	102,730	-0,107062	22,360000	52,700000
2,223917	-2,405415	102,881	-0,106956	22,360000	52,700000
2,222441	-0,260337	103,032	-0,106083	22,360000	52,700000
2,220902	-0,519474	103,199	-0,106188	22,360000	52,700000
2,219431	-0,584258	103,349	-0,106214	22,360000	52,700000
2,217986	-1,040147	103,499	-0,106400	22,360000	52,700000
2,216471	0,130768	103,650	-0,105923	22,360000	52,700000
2,214905	-0,650242	103,800	-0,106241	22,360000	52,700000
2,213410	-0,323921	103,978	-0,106108	22,360000	52,700000
2,211868	-0,323921	104,129	-0,106108	22,360000	52,700000
2,210425	-0,519474	104,292	-0,106188	22,360000	52,700000
2,208925	-0,584258	104,442	-0,106214	22,360000	52,700000
2,207397	-0,779810	104,592	-0,106294	22,360000	52,700000
2,205913	0,000000	104,770	-0,105977	22,360000	52,700000
2,204451	-0,260337	104,922	-0,106083	22,360000	52,700000
2,202902	-0,129568	105,099	-0,106029	22,360000	52,700000
2,201413	-0,129568	105,249	-0,106029	22,360000	52,700000
2,199911	-0,260337	105,399	-0,106083	22,360000	52,700000
2,198496	-1,169716	105,569	-0,106453	22,370000	52,700000
2,196916	-0,260337	105,720	-0,106083	22,370000	52,700000
2,195439	-0,454689	105,895	-0,106162	22,370000	52,700000
2,193983	-0,454689	106,046	-0,106162	22,370000	52,700000
2,192378	-0,194353	106,196	-0,106056	22,370000	52,700000
2,190899	-0,323921	106,380	-0,106108	22,370000	52,700000
2,189384	-0,194353	106,531	-0,106056	22,370000	52,700000
2,187969	-0,715026	106,701	-0,106268	22,370000	52,700000
2,186476	-0,454689	106,852	-0,106162	22,370000	52,700000
2,184896	-0,584258	107,004	-0,106214	22,370000	52,700000
2,183428	-0,260337	107,177	-0,106083	22,370000	52,700000
2,181915	-0,260337	107,328	-0,106083	22,370000	52,700000
2,180463	-0,389905	107,504	-0,106135	22,370000	52,700000
2,178900	-0,715026	107,654	-0,106268	22,370000	52,700000
2,177423	-0,519474	107,807	-0,106188	22,370000	52,700000
2,175925	-0,584258	107,985	-0,106214	22,370000	52,700000
2,174396	-0,323921	108,136	-0,106108	22,370000	52,700000
2,172916	-0,389905	108,308	-0,106135	22,370000	52,700000
2,171423	0,130768	108,459	-0,105923	22,370000	52,700000
2,169906	-0,260337	108,610	-0,106083	22,370000	52,700000
2,168420	-0,194353	108,794	-0,106056	22,370000	52,700000
2,166897	-0,584258	108,944	-0,106214	22,370000	52,700000
2,165421	-0,519474	109,126	-0,106188	22,370000	52,700000
2,163924	-0,194353	109,278	-0,106056	22,370000	52,700000
2,162452	-0,389905	109,428	-0,106135	22,370000	52,700000
2,160954	-0,844595	109,596	-0,106320	22,360000	52,700000
2,159391	-0,260337	109,746	-0,106083	22,360000	52,700000
2,157908	-0,844595	109,904	-0,106320	22,360000	52,700000
2,156425	-0,974163	110,055	-0,106373	22,360000	52,700000
2,154881	-0,260337	110,206	-0,106083	22,360000	52,700000
2,153403	-0,323921	110,384	-0,106108	22,360000	52,700000
2,151962	-0,194353	110,534	-0,106056	22,360000	52,700000
2,150438	-0,194353	110,699	-0,106056	22,360000	52,700000
2,148930	-0,584258	110,849	-0,106214	22,360000	52,700000
2,147362	-0,519474	111,000	-0,106188	22,360000	52,700000
2,145910	0,260337	111,151	-0,105871	22,360000	52,700000
2,144390	-0,454689	111,301	-0,106162	22,360000	52,700000
2,142902	-0,584258	111,451	-0,106214	22,360000	52,700000
2,141443	-0,194353	111,602	-0,106056	22,360000	52,700000
2,139922	-0,323921	111,752	-0,106108	22,360000	52,700000
2,138390	-0,129568	111,913	-0,106029	22,360000	52,700000
2,136898	-0,194353	112,064	-0,106056	22,360000	52,700000
2,135400	0,000000	112,216	-0,105977	22,360000	52,700000
2,133871	-0,064784	112,398	-0,106003	22,360000	52,700000
2,132465	-0,389905	112,549	-0,106135	22,360000	52,700000
2,130908	-0,389905	112,709	-0,106135	22,360000	52,700000
2,129452	-0,779810	112,861	-0,106294	22,360000	52,700000
2,127906	-0,715026	113,011	-0,106268	22,360000	52,700000
2,126461	-0,260337	113,197	-0,106083	22,360000	52,700000
2,124913	-0,779810	113,347	-0,106294	22,360000	52,700000
2,123472	-0,323921	113,498	-0,106108	22,360000	52,700000
2,121929	-0,584258	113,649	-0,106214	22,360000	52,700000
2,120435	-0,584258	113,801	-0,106214	22,360000	52,700000
2,119884	-0,323921	113,851	-0,106108	22,360000	52,700000