File: Nanoindentation Datenauswertung/data/PDMS/EM-PDMS-50-10-50-0,8um
Quasi static measurement routine
Tip parameters (shape,radius, material...)
12.08.2022

Piezo position[nm]	MEMS displ.[nm]	Time[ms]	Cap [pf]	Temp [°C]	Rh [%]
eoh
1,943886	-0,910579	0,221	-0,106585	22,360000	47,335000
1,946268	-0,065984	0,371	-0,106241	22,360000	47,335000
1,948630	-0,325121	0,523	-0,106347	22,360000	47,335000
1,951101	-0,195552	0,676	-0,106294	22,340000	47,335000
1,953473	-0,520673	0,826	-0,106426	22,340000	47,335000
1,955845	-0,325121	0,984	-0,106347	22,340000	47,335000
1,958259	-0,325121	1,134	-0,106347	22,340000	47,335000
1,960671	-0,260337	1,290	-0,106320	22,340000	47,335000
1,963109	-0,585458	1,441	-0,106453	22,340000	47,335000
1,965456	-0,716226	1,592	-0,106506	22,340000	47,335000
1,967840	-0,520673	1,743	-0,106426	22,340000	47,335000
1,970256	-1,040147	1,893	-0,106638	22,340000	47,335000
1,972640	0,064784	2,044	-0,106188	22,340000	47,335000
1,975089	-0,455889	2,196	-0,106400	22,340000	47,335000
1,977473	-0,325121	2,348	-0,106347	22,340000	47,335000
1,979841	0,194353	2,499	-0,106135	22,340000	47,335000
1,982308	-0,389905	2,650	-0,106373	22,340000	47,335000
1,984653	-0,195552	2,800	-0,106294	22,340000	47,335000
1,987073	-0,520673	2,953	-0,106426	22,340000	47,335000
1,989423	-0,195552	3,105	-0,106294	22,340000	47,335000
1,991897	-0,065984	3,256	-0,106241	22,340000	47,335000
1,994277	-0,130768	3,407	-0,106268	22,340000	47,335000
1,996664	-0,260337	3,557	-0,106320	22,340000	47,335000
1,999084	-0,325121	3,707	-0,106347	22,340000	47,335000
2,001510	-0,845794	3,857	-0,106559	22,340000	47,335000
2,003878	-0,455889	4,008	-0,106400	22,340000	47,335000
2,006181	-0,195552	4,158	-0,106294	22,340000	47,335000
2,008702	-0,845794	4,308	-0,106559	22,340000	47,335000
2,011101	-1,040147	4,460	-0,106638	22,340000	47,335000
2,013474	0,064784	4,611	-0,106188	22,340000	47,335000
2,015876	-0,910579	4,762	-0,106585	22,340000	47,335000
2,018277	-0,065984	4,912	-0,106241	22,340000	47,335000
2,020692	-0,130768	5,064	-0,106268	22,340000	47,335000
2,023055	-0,781010	5,217	-0,106532	22,340000	47,335000
2,025461	-0,585458	5,369	-0,106453	22,340000	47,335000
2,027814	0,194353	5,519	-0,106135	22,340000	47,335000
2,030270	-0,781010	5,669	-0,106532	22,340000	47,335000
2,032665	-0,585458	5,820	-0,106453	22,340000	47,335000
2,035026	-0,389905	5,970	-0,106373	22,340000	47,335000
2,037403	-0,781010	6,120	-0,106532	22,340000	47,335000
2,039834	-0,716226	6,271	-0,106506	22,340000	47,335000
2,042208	-0,781010	6,421	-0,106532	22,340000	47,335000
2,044660	-0,975363	6,571	-0,106611	22,340000	47,335000
2,047121	-0,195552	6,721	-0,106294	22,340000	47,320000
2,049469	-0,781010	6,872	-0,106532	22,340000	47,320000
2,051861	-0,325121	7,023	-0,106347	22,340000	47,320000
2,054241	-0,260337	7,173	-0,106320	22,340000	47,320000
2,056690	-0,716226	7,324	-0,106506	22,340000	47,320000
2,059061	0,000000	7,474	-0,106214	22,340000	47,320000
2,061463	-0,455889	7,626	-0,106400	22,340000	47,320000
2,063868	-0,325121	7,777	-0,106347	22,340000	47,320000
2,066259	0,129568	7,928	-0,106162	22,340000	47,320000
2,068652	-0,130768	8,078	-0,106268	22,340000	47,320000
2,071086	-0,910579	8,228	-0,106585	22,340000	47,320000
2,073444	-0,195552	8,379	-0,106294	22,340000	47,320000
2,075886	-0,325121	8,530	-0,106347	22,340000	47,320000
2,078274	-0,195552	8,682	-0,106294	22,350000	47,360000
2,080644	-0,520673	8,833	-0,106426	22,350000	47,360000
2,083080	-0,195552	8,984	-0,106294	22,350000	47,360000
2,085399	-0,585458	9,135	-0,106453	22,350000	47,360000
2,087798	0,129568	9,286	-0,106162	22,350000	47,360000
2,090213	-0,130768	9,437	-0,106268	22,350000	47,360000
2,092641	-0,260337	9,588	-0,106320	22,350000	47,360000
2,095056	-0,195552	9,738	-0,106294	22,350000	47,360000
2,097433	-0,130768	9,890	-0,106268	22,350000	47,360000
2,099826	-0,325121	10,041	-0,106347	22,350000	47,360000
2,102277	-0,325121	10,192	-0,106347	22,350000	47,360000
2,104629	-0,260337	10,342	-0,106320	22,350000	47,360000
2,107055	-0,325121	10,493	-0,106347	22,350000	47,360000
2,109450	0,519474	10,645	-0,106003	22,350000	47,375000
2,111809	-0,130768	10,796	-0,106268	22,350000	47,375000
2,114257	-0,195552	10,946	-0,106294	22,350000	47,375000
2,116671	-0,455889	11,097	-0,106400	22,350000	47,375000
2,119055	-0,260337	11,247	-0,106320	22,350000	47,375000
2,121447	-0,325121	11,399	-0,106347	22,350000	47,375000
2,123888	0,194353	11,549	-0,106135	22,350000	47,375000
2,126245	0,000000	11,699	-0,106214	22,350000	47,375000
2,128635	-0,130768	11,850	-0,106268	22,350000	47,375000
2,131053	-0,389905	12,007	-0,106373	22,350000	47,375000
2,133397	-0,325121	12,159	-0,106347	22,350000	47,375000
2,135834	-0,845794	12,310	-0,106559	22,350000	47,375000
2,138279	-0,260337	12,460	-0,106320	22,350000	47,375000
2,140641	-0,325121	12,610	-0,106347	22,350000	47,375000
2,143125	0,129568	12,760	-0,106162	22,350000	47,375000
2,145443	-0,389905	12,910	-0,106373	22,350000	47,375000
2,147841	-0,130768	13,060	-0,106268	22,350000	47,375000
2,150285	-0,325121	13,212	-0,106347	22,350000	47,375000
2,152701	-0,130768	13,362	-0,106268	22,350000	47,375000
2,155062	-0,389905	13,512	-0,106373	22,350000	47,375000
2,157455	0,129568	13,663	-0,106162	22,350000	47,375000
2,159853	0,000000	13,815	-0,106214	22,350000	47,375000
2,162255	0,129568	13,966	-0,106162	22,350000	47,375000
2,164688	0,000000	14,116	-0,106214	22,350000	47,375000
2,167063	-0,455889	14,266	-0,106400	22,350000	47,375000
2,169441	0,129568	14,417	-0,106162	22,350000	47,375000
2,171852	-0,195552	14,568	-0,106294	22,350000	47,375000
2,174266	-0,260337	14,724	-0,106320	22,340000	47,350000
2,176668	-0,716226	14,875	-0,106506	22,340000	47,350000
2,179063	-0,325121	15,025	-0,106347	22,340000	47,350000
2,181437	0,000000	15,176	-0,106214	22,340000	47,350000
2,183898	-0,520673	15,327	-0,106426	22,340000	47,350000
2,186235	-0,455889	15,478	-0,106400	22,340000	47,350000
2,188630	0,389905	15,629	-0,106056	22,340000	47,350000
2,191047	-0,650242	15,779	-0,106479	22,340000	47,350000
2,193475	-0,585458	15,929	-0,106453	22,340000	47,350000
2,195842	0,064784	16,079	-0,106188	22,340000	47,350000
2,198279	-0,260337	16,229	-0,106320	22,340000	47,350000
2,200677	-0,130768	16,379	-0,106268	22,340000	47,350000
2,203067	-0,130768	16,531	-0,106268	22,340000	47,350000
2,205402	-1,300484	16,682	-0,106744	22,340000	47,320000
2,207896	0,129568	16,834	-0,106162	22,340000	47,320000
2,210240	-0,130768	16,985	-0,106268	22,340000	47,320000
2,212679	-0,389905	17,138	-0,106373	22,340000	47,320000
2,215009	-0,260337	17,289	-0,106320	22,340000	47,320000
2,217454	-5,916961	17,439	-0,108623	22,340000	47,320000
2,219844	-4,616477	17,600	-0,108093	22,340000	47,320000
2,222291	-3,121641	17,751	-0,107485	22,340000	47,320000
2,224662	-2,731736	17,902	-0,107326	22,340000	47,320000
2,227063	-2,146278	18,052	-0,107088	22,340000	47,320000
2,229426	-2,015510	18,204	-0,107035	22,340000	47,320000
2,231877	-1,300484	18,356	-0,106744	22,340000	47,320000
2,234257	-0,325121	18,507	-0,106347	22,340000	47,320000
2,236677	0,064784	18,657	-0,106188	22,340000	47,320000
2,239033	0,779810	18,808	-0,105897	22,340000	47,320000
2,241449	0,844595	18,960	-0,105871	22,340000	47,320000
2,243822	1,949526	19,111	-0,105421	22,340000	47,320000
2,246261	2,405415	19,262	-0,105235	22,340000	47,320000
2,248687	2,924889	19,412	-0,105024	22,340000	47,320000
2,251057	3,315994	19,563	-0,104865	22,340000	47,320000
2,253498	4,225372	19,713	-0,104495	22,340000	47,320000
2,255842	4,681262	19,865	-0,104309	22,340000	47,320000
2,258250	4,940398	20,016	-0,104204	22,340000	47,320000
2,260661	5,915761	20,168	-0,103807	22,340000	47,320000
2,263053	6,695572	20,319	-0,103489	22,340000	47,320000
2,265463	7,606150	20,470	-0,103119	22,340000	47,320000
2,267885	8,060840	20,620	-0,102934	22,340000	47,320000
2,270207	8,516729	20,771	-0,102748	22,340000	47,350000
2,272657	8,646297	20,922	-0,102695	22,340000	47,350000
2,275049	9,621660	21,072	-0,102298	22,340000	47,350000
2,277472	9,621660	21,225	-0,102298	22,340000	47,350000
2,279883	10,922144	21,376	-0,101769	22,340000	47,350000
2,282275	11,247265	21,526	-0,101637	22,340000	47,350000
2,284666	12,027075	21,679	-0,101319	22,340000	47,350000
2,287047	12,742101	21,830	-0,101028	22,340000	47,350000
2,289416	13,587895	21,981	-0,100684	22,340000	47,350000
2,291852	14,757611	22,132	-0,100208	22,340000	47,350000
2,294235	14,888379	22,282	-0,100155	22,340000	47,350000
2,296682	15,407853	22,432	-0,099943	22,340000	47,350000
2,299047	16,643552	22,582	-0,099440	22,340000	47,350000
2,301449	16,968673	22,733	-0,099308	22,340000	47,350000
2,303900	18,919399	22,888	-0,098514	22,340000	47,350000
2,306226	18,333941	23,039	-0,098752	22,340000	47,350000
2,308641	20,024330	23,197	-0,098064	22,340000	47,350000
2,311073	19,959546	23,347	-0,098091	22,340000	47,350000
2,313424	20,804140	23,499	-0,097747	22,340000	47,350000
2,315881	22,104624	23,654	-0,097218	22,340000	47,350000
2,318289	22,169408	23,805	-0,097191	22,340000	47,350000
2,320664	22,884435	23,956	-0,096900	22,340000	47,350000
2,323069	23,924582	24,106	-0,096477	22,340000	47,350000
2,325533	26,070860	24,257	-0,095604	22,340000	47,350000
2,327788	26,070860	24,409	-0,095604	22,340000	47,350000
2,330278	26,460765	24,560	-0,095445	22,340000	47,350000
2,332702	27,436128	24,723	-0,095048	22,350000	47,350000
2,335084	27,890817	24,876	-0,094863	22,350000	47,350000
2,337442	29,385653	25,026	-0,094254	22,350000	47,350000
2,339867	30,621353	25,182	-0,093751	22,350000	47,350000
2,342275	29,710774	25,332	-0,094122	22,350000	47,350000
2,344660	31,596716	25,482	-0,093354	22,350000	47,350000
2,347056	32,636863	25,634	-0,092931	22,350000	47,350000
2,349498	33,872562	25,785	-0,092428	22,350000	47,350000
2,351835	34,131699	25,936	-0,092323	22,350000	47,350000
2,354258	34,327252	26,086	-0,092243	22,350000	47,350000
2,356622	35,823288	26,236	-0,091634	22,350000	47,350000
2,359055	36,082425	26,387	-0,091529	22,350000	47,350000
2,361442	37,122572	26,539	-0,091105	22,350000	47,350000
2,363849	37,772814	26,689	-0,090841	22,350000	47,350000
2,366256	38,423056	26,839	-0,090576	22,350000	47,350000
2,368670	39,138082	26,996	-0,090285	22,350000	47,350000
2,371100	39,463203	27,150	-0,090153	22,350000	47,350000
2,373435	40,698902	27,303	-0,089650	22,350000	47,350000
2,375842	41,153591	27,456	-0,089465	22,350000	47,350000
2,378286	41,544696	27,608	-0,089306	22,350000	47,350000
2,380650	41,349144	27,769	-0,089385	22,350000	47,350000
2,383075	42,258523	27,925	-0,089015	22,350000	47,350000
2,385453	42,714412	28,095	-0,088830	22,350000	47,350000
2,387883	44,144464	28,260	-0,088248	22,350000	47,350000
2,390296	43,429438	28,412	-0,088539	22,350000	47,350000
2,392636	44,079680	28,562	-0,088274	22,350000	47,350000
2,395041	44,534369	28,714	-0,088089	22,350000	47,350000
2,397469	44,600353	28,866	-0,088062	22,350000	47,350000
2,399876	44,794706	29,018	-0,087983	22,350000	47,350000
2,402270	45,964421	29,169	-0,087507	22,350000	47,350000
2,404662	47,005768	29,319	-0,087083	22,350000	47,350000
2,407025	47,200121	29,519	-0,087004	22,350000	47,350000
2,409463	47,590026	29,670	-0,086845	22,350000	47,350000
2,411825	48,045915	29,822	-0,086660	22,350000	47,350000
2,414219	48,369836	29,974	-0,086528	22,350000	47,350000
2,416663	49,086062	30,125	-0,086236	22,350000	47,350000
2,419040	50,385346	30,275	-0,085708	22,350000	47,350000
2,421473	50,906020	30,427	-0,085496	22,350000	47,350000
2,423829	51,231141	30,579	-0,085363	22,350000	47,350000
2,426226	51,685830	30,729	-0,085178	22,350000	47,350000
2,428621	53,117082	30,879	-0,084596	22,350000	47,350000
2,431040	54,286797	31,030	-0,084120	22,350000	47,350000
2,433487	55,132592	31,209	-0,083775	22,350000	47,350000
2,435828	56,041971	31,360	-0,083405	22,350000	47,350000
2,438294	56,822981	31,511	-0,083087	22,350000	47,350000
2,440621	57,732359	31,676	-0,082717	22,350000	47,350000
2,443019	58,707722	31,838	-0,082320	22,350000	47,350000
2,445433	59,747869	32,005	-0,081897	22,350000	47,350000
2,447787	60,202559	32,157	-0,081712	22,350000	47,350000
2,450275	62,088500	32,309	-0,080944	22,350000	47,350000
2,452670	62,413621	32,460	-0,080812	22,350000	47,350000
2,455073	63,193431	32,611	-0,080495	22,350000	47,350000
2,457483	64,493915	32,761	-0,079965	22,350000	47,335000
2,459865	65,729615	32,914	-0,079462	22,350000	47,335000
2,462268	66,119520	33,066	-0,079304	22,350000	47,335000
2,464665	67,030098	33,216	-0,078933	22,350000	47,335000
2,467063	68,460150	33,366	-0,078351	22,350000	47,335000
2,469476	69,175177	33,517	-0,078060	22,350000	47,335000
2,471931	70,734797	33,668	-0,077425	22,350000	47,335000
2,474260	71,580592	33,819	-0,077081	22,350000	47,335000
2,476639	71,905713	33,970	-0,076949	22,350000	47,335000
2,479067	72,816291	34,122	-0,076578	22,350000	47,335000
2,481424	74,116775	34,273	-0,076049	22,350000	47,335000
2,483887	75,156922	34,423	-0,075625	22,350000	47,335000
2,486276	77,172432	34,574	-0,074805	22,350000	47,335000
2,488644	77,887458	34,724	-0,074514	22,350000	47,350000
2,491098	77,887458	34,876	-0,074514	22,350000	47,350000
2,493428	79,252726	35,031	-0,073958	22,350000	47,350000
2,495842	80,032536	35,183	-0,073641	22,350000	47,350000
2,498223	81,397804	35,333	-0,073085	22,350000	47,350000
2,500634	82,437951	35,485	-0,072662	22,350000	47,350000
2,503076	83,478098	35,637	-0,072239	22,350000	47,350000
2,505462	84,063556	35,787	-0,072000	22,350000	47,350000
2,507836	85,689160	35,938	-0,071339	22,350000	47,350000
2,510257	86,794092	36,090	-0,070889	22,350000	47,350000
2,512681	86,989644	36,240	-0,070810	22,350000	47,350000
2,515032	88,680033	36,392	-0,070122	22,350000	47,350000
2,517474	88,809602	36,543	-0,070069	22,350000	47,350000
2,519861	90,695543	36,695	-0,069301	22,360000	47,350000
2,522169	90,825111	36,847	-0,069249	22,360000	47,350000
2,524676	92,190379	36,999	-0,068693	22,360000	47,350000
2,527095	93,880768	37,149	-0,068005	22,360000	47,350000
2,529453	93,880768	37,307	-0,068005	22,360000	47,350000
2,531827	95,571157	37,457	-0,067317	22,360000	47,350000
2,534254	96,871641	37,615	-0,066788	22,360000	47,350000
2,536648	97,001209	37,765	-0,066735	22,360000	47,350000
2,539061	98,497245	37,916	-0,066126	22,360000	47,350000
2,541498	99,341840	38,067	-0,065782	22,360000	47,350000
2,543854	100,317203	38,219	-0,065385	22,360000	47,350000
2,546232	101,422134	38,370	-0,064936	22,360000	47,350000
2,548659	103,047739	38,527	-0,064274	22,360000	47,350000
2,551009	103,762765	38,684	-0,063983	22,350000	47,335000
2,553454	104,023102	38,835	-0,063877	22,350000	47,335000
2,555878	105,323585	38,986	-0,063348	22,350000	47,335000
2,558194	106,298948	39,137	-0,062951	22,350000	47,335000
2,560662	106,949190	39,288	-0,062686	22,350000	47,335000
2,563066	108,379242	39,438	-0,062104	22,350000	47,335000
2,565372	109,809294	39,591	-0,061522	22,350000	47,335000
2,567852	111,564468	39,743	-0,060808	22,350000	47,335000
2,570261	112,800167	39,894	-0,060305	22,350000	47,335000
2,572655	112,410262	40,046	-0,060463	22,350000	47,335000
2,575031	113,710746	40,197	-0,059934	22,350000	47,335000
2,577440	114,620124	40,348	-0,059564	22,350000	47,335000
2,579824	115,205582	40,499	-0,059326	22,350000	47,335000
2,582282	117,156308	40,649	-0,058532	22,340000	47,335000
2,584706	118,326023	40,799	-0,058056	22,340000	47,335000
2,587064	119,496938	40,949	-0,057579	22,340000	47,335000
2,589458	119,626507	41,101	-0,057526	22,340000	47,335000
2,591876	121,967138	41,252	-0,056574	22,340000	47,335000
2,594261	122,552595	41,402	-0,056335	22,340000	47,335000
2,596679	123,527958	41,553	-0,055938	22,340000	47,335000
2,599064	124,242984	41,726	-0,055647	22,340000	47,335000
2,601482	125,347915	41,877	-0,055198	22,340000	47,335000
2,603883	126,648399	42,027	-0,054668	22,340000	47,335000
2,606260	128,143236	42,177	-0,054060	22,340000	47,335000
2,608616	128,663909	42,327	-0,053848	22,340000	47,335000
2,611081	128,793477	42,478	-0,053795	22,340000	47,335000
2,613424	131,069324	42,628	-0,052869	22,360000	47,335000
2,615832	131,524013	42,780	-0,052684	22,360000	47,335000
2,618258	132,499376	42,932	-0,052287	22,360000	47,335000
2,620593	133,539523	43,083	-0,051864	22,360000	47,335000
2,623024	133,799860	43,234	-0,051758	22,360000	47,335000
2,625503	135,944938	43,384	-0,050885	22,360000	47,335000
2,627845	136,725948	43,537	-0,050567	22,360000	47,335000
2,630233	137,700111	43,689	-0,050170	22,360000	47,335000
2,632676	138,610690	43,840	-0,049800	22,360000	47,335000
2,634989	139,781605	43,990	-0,049323	22,360000	47,335000
2,637498	141,276442	44,140	-0,048715	22,360000	47,335000
2,639846	142,056252	44,290	-0,048397	22,360000	47,335000
2,642274	142,706494	44,448	-0,048133	22,360000	47,335000
2,644646	144,137746	44,599	-0,047550	22,360000	47,335000
2,647056	145,177893	44,749	-0,047127	22,350000	47,335000
2,649445	146,477177	44,911	-0,046598	22,350000	47,335000
2,651861	146,803497	45,063	-0,046465	22,350000	47,335000
2,654265	148,492687	45,217	-0,045778	22,350000	47,335000
2,656638	149,142928	45,369	-0,045513	22,350000	47,335000
2,659063	150,443412	45,519	-0,044984	22,350000	47,335000
2,661426	151,548343	45,683	-0,044534	22,350000	47,335000
2,663850	152,719259	45,834	-0,044058	22,350000	47,335000
2,666304	153,629837	45,985	-0,043687	22,350000	47,335000
2,668586	155,579363	46,136	-0,042894	22,350000	47,335000
2,671039	154,864337	46,287	-0,043185	22,350000	47,335000
2,673481	156,360373	46,438	-0,042576	22,350000	47,335000
2,675842	157,594873	46,589	-0,042073	22,350000	47,335000
2,678284	158,635020	46,740	-0,041650	22,350000	47,350000
2,680695	160,001488	46,892	-0,041094	22,350000	47,350000
2,683045	160,520961	47,044	-0,040882	22,350000	47,350000
2,685435	161,886229	47,194	-0,040327	22,350000	47,350000
2,687835	161,821445	47,346	-0,040353	22,350000	47,350000
2,690251	163,251497	47,496	-0,039771	22,350000	47,350000
2,692696	164,097292	47,646	-0,039427	22,350000	47,350000
2,695090	164,941886	47,798	-0,039083	22,350000	47,350000
2,697434	166,436723	47,948	-0,038475	22,350000	47,350000
2,699856	167,282517	48,100	-0,038130	22,350000	47,350000
2,702259	168,193095	48,250	-0,037760	22,350000	47,350000
2,704653	169,427595	48,403	-0,037257	22,350000	47,350000
2,707046	170,208605	48,556	-0,036939	22,350000	47,350000
2,709360	171,573873	48,707	-0,036384	22,350000	47,350000
2,711863	174,044072	48,866	-0,035378	22,350000	47,350000
2,714203	173,718952	49,017	-0,035511	22,350000	47,350000
2,716650	173,849720	49,168	-0,035458	22,350000	47,350000
2,719044	175,538909	49,318	-0,034770	22,350000	47,350000
2,721500	176,124367	49,469	-0,034532	22,350000	47,350000
2,723888	177,554419	49,634	-0,033950	22,350000	47,350000
2,726200	179,115239	49,785	-0,033314	22,350000	47,350000
2,728664	179,895050	49,936	-0,032997	22,350000	47,350000
2,731096	180,220170	50,087	-0,032865	22,350000	47,350000
2,733452	181,325102	50,240	-0,032415	22,350000	47,350000
2,735825	181,780991	50,391	-0,032229	22,350000	47,350000
2,738250	184,251190	50,541	-0,031224	22,350000	47,350000
2,740616	184,771863	50,693	-0,031012	22,350000	47,320000
2,743069	185,746027	50,843	-0,030616	22,350000	47,320000
2,743859	186,006363	50,993	-0,030510	22,350000	47,320000
2,743844	185,422105	51,146	-0,030748	22,350000	47,320000
2,743847	185,486890	51,296	-0,030721	22,350000	47,320000
2,743835	185,551674	51,447	-0,030695	22,350000	47,320000
2,743830	185,161769	51,597	-0,030854	22,350000	47,320000
2,743843	184,705880	51,747	-0,031039	22,350000	47,320000
2,743875	185,032200	51,899	-0,030906	22,350000	47,320000
2,743822	185,161769	52,049	-0,030854	22,350000	47,320000
2,743811	184,381958	52,205	-0,031171	22,350000	47,320000
2,743825	184,056837	52,356	-0,031303	22,350000	47,320000
2,743820	183,211043	52,506	-0,031647	22,350000	47,320000
2,743807	183,340612	52,656	-0,031595	22,350000	47,320000
2,743827	184,251190	52,808	-0,031224	22,350000	47,320000
2,743843	183,275827	52,959	-0,031621	22,350000	47,320000
2,743812	183,211043	53,110	-0,031647	22,350000	47,320000
2,743853	182,821138	53,267	-0,031806	22,350000	47,320000
2,743825	183,146259	53,417	-0,031674	22,350000	47,320000
2,743802	183,016690	53,567	-0,031727	22,350000	47,320000
2,743824	182,756354	53,727	-0,031833	22,350000	47,320000
2,743808	183,146259	53,882	-0,031674	22,350000	47,320000
2,743856	182,821138	54,032	-0,031806	22,350000	47,320000
2,743790	182,756354	54,182	-0,031833	22,350000	47,320000
2,743879	182,300465	54,332	-0,032018	22,350000	47,320000
2,743851	182,235680	54,485	-0,032044	22,350000	47,320000
2,743808	182,690370	54,637	-0,031859	22,350000	47,350000
2,743847	182,560801	54,788	-0,031912	22,350000	47,350000
2,743829	182,366448	54,939	-0,031991	22,350000	47,350000
2,743843	181,845775	55,089	-0,032203	22,350000	47,350000
2,743805	182,625585	55,240	-0,031886	22,350000	47,350000
2,743851	182,106112	55,390	-0,032097	22,350000	47,350000
2,743789	181,195533	55,540	-0,032468	22,350000	47,350000
2,743835	182,235680	55,691	-0,032044	22,350000	47,350000
2,743798	182,170896	55,843	-0,032071	22,350000	47,350000
2,743884	181,976543	55,995	-0,032150	22,350000	47,350000
2,743860	181,455870	56,147	-0,032362	22,350000	47,350000
2,743831	181,260317	56,298	-0,032441	22,350000	47,350000
2,743823	180,674860	56,449	-0,032680	22,350000	47,350000
2,743853	181,455870	56,602	-0,032362	22,350000	47,350000
2,743923	181,260317	56,752	-0,032441	22,350000	47,335000
2,743886	181,391086	56,915	-0,032388	22,350000	47,335000
2,743835	180,805628	57,066	-0,032626	22,350000	47,335000
2,743832	180,740844	57,218	-0,032653	22,350000	47,335000
2,743782	180,870412	57,368	-0,032600	22,350000	47,335000
2,743797	180,480507	57,520	-0,032759	22,350000	47,335000
2,743832	180,350939	57,675	-0,032812	22,350000	47,335000
2,743832	181,001181	57,827	-0,032547	22,350000	47,335000
2,743853	180,350939	57,978	-0,032812	22,350000	47,335000
2,743814	180,220170	58,130	-0,032865	22,350000	47,335000
2,743860	179,634713	58,281	-0,033103	22,350000	47,335000
2,743808	180,350939	58,433	-0,032812	22,350000	47,335000
2,743877	179,569929	58,584	-0,033129	22,350000	47,335000
2,743795	179,765481	58,737	-0,033050	22,350000	47,335000
2,743827	180,740844	58,889	-0,032653	22,350000	47,335000
2,743898	180,155386	59,040	-0,032891	22,350000	47,335000
2,743793	180,090602	59,190	-0,032917	22,350000	47,335000
2,743798	180,674860	59,346	-0,032680	22,350000	47,335000
2,743882	179,700697	59,496	-0,033076	22,350000	47,335000
2,743828	180,090602	59,646	-0,032917	22,350000	47,335000
2,743829	179,115239	59,796	-0,033314	22,350000	47,335000
2,743874	180,024618	59,946	-0,032944	22,350000	47,335000
2,743844	180,024618	60,097	-0,032944	22,350000	47,335000
2,743815	179,634713	60,249	-0,033103	22,350000	47,335000
2,743816	178,854902	60,400	-0,033420	22,350000	47,335000
2,743812	179,765481	60,550	-0,033050	22,350000	47,335000
2,743844	179,115239	60,701	-0,033314	22,350000	47,350000
2,743875	179,895050	60,857	-0,032997	22,350000	47,350000
2,743858	178,594566	61,008	-0,033526	22,350000	47,350000
2,741408	179,050455	61,159	-0,033341	22,350000	47,350000
2,739043	177,164514	61,309	-0,034108	22,350000	47,350000
2,736652	174,629530	61,459	-0,035140	22,350000	47,350000
2,734211	174,108857	61,612	-0,035352	22,350000	47,350000
2,731883	172,873157	61,767	-0,035855	22,350000	47,350000
2,729431	171,053200	61,917	-0,036596	22,350000	47,350000
2,727066	170,402958	62,068	-0,036860	22,350000	47,350000
2,724662	169,233242	62,218	-0,037336	22,350000	47,350000
2,722257	168,062327	62,369	-0,037813	22,350000	47,350000
2,719865	167,542854	62,519	-0,038024	22,350000	47,350000
2,717485	165,786481	62,671	-0,038739	22,350000	47,360000
2,715015	164,291644	62,823	-0,039348	22,350000	47,360000
2,712651	162,340919	62,973	-0,040142	22,350000	47,360000
2,710262	161,561108	63,124	-0,040459	22,350000	47,360000
2,707834	160,715314	63,282	-0,040803	22,350000	47,360000
2,705419	159,026125	63,432	-0,041491	22,350000	47,360000
2,703052	158,701004	63,582	-0,041623	22,350000	47,360000
2,700631	156,945831	63,734	-0,042337	22,350000	47,360000
2,698225	155,904484	63,885	-0,042761	22,350000	47,360000
2,695810	154,409648	64,047	-0,043370	22,350000	47,360000
2,693391	152,719259	64,201	-0,044058	22,350000	47,360000
2,690988	152,133801	64,353	-0,044296	22,350000	47,360000
2,688633	150,508196	64,504	-0,044958	22,350000	47,360000
2,686276	149,338481	64,655	-0,045434	22,350000	47,360000
2,683847	149,013360	64,805	-0,045566	22,350000	47,360000
2,681487	146,412393	64,956	-0,046625	22,350000	47,360000
2,679028	146,607945	65,108	-0,046545	22,350000	47,360000
2,676639	144,267314	65,263	-0,047498	22,350000	47,360000
2,674292	143,617072	65,414	-0,047762	22,350000	47,360000
2,671817	141,926683	65,566	-0,048450	22,350000	47,360000
2,669450	141,146873	65,717	-0,048768	22,350000	47,360000
2,667014	139,781605	65,868	-0,049323	22,350000	47,360000
2,664660	138,741458	66,018	-0,049747	22,350000	47,360000
2,662318	137,636527	66,168	-0,050196	22,350000	47,360000
2,659877	136,465612	66,320	-0,050673	22,350000	47,360000
2,657462	135,815370	66,479	-0,050938	22,350000	47,360000
2,655022	133,864644	66,630	-0,051731	22,340000	47,350000
2,652642	133,149618	66,780	-0,052022	22,340000	47,350000
2,650233	131,849134	66,938	-0,052552	22,340000	47,350000
2,647839	130,939755	67,088	-0,052922	22,340000	47,350000
2,645457	129,508504	67,245	-0,053504	22,340000	47,350000
2,643023	128,728693	67,396	-0,053822	22,340000	47,350000
2,640667	126,648399	67,546	-0,054668	22,340000	47,350000
2,638255	126,193710	67,697	-0,054854	22,340000	47,350000
2,635849	123,982647	67,847	-0,055753	22,340000	47,350000
2,633433	124,047432	67,998	-0,055727	22,340000	47,350000
2,631027	122,552595	68,149	-0,056335	22,340000	47,350000
2,628637	120,472301	68,299	-0,057182	22,340000	47,350000
2,626221	119,756075	68,449	-0,057474	22,340000	47,350000
2,623849	118,000902	68,599	-0,058188	22,340000	47,350000
2,621430	117,676981	68,749	-0,058320	22,340000	47,335000
2,619032	116,570850	68,899	-0,058770	22,340000	47,335000
2,616655	115,791040	69,050	-0,059087	22,340000	47,335000
2,614203	113,775530	69,200	-0,059908	22,340000	47,335000
2,611889	112,929735	69,351	-0,060252	22,340000	47,335000
2,609440	111,629252	69,506	-0,060781	22,340000	47,335000
2,607046	110,524320	69,664	-0,061231	22,340000	47,335000
2,604661	109,679726	69,815	-0,061575	22,340000	47,335000
2,602233	107,664216	69,965	-0,062395	22,340000	47,335000
2,599868	107,339095	70,120	-0,062527	22,340000	47,335000
2,597474	106,234164	70,271	-0,062977	22,340000	47,335000
2,595017	104,218654	70,427	-0,063797	22,340000	47,335000
2,592640	103,828749	70,577	-0,063956	22,340000	47,335000
2,590271	101,682471	70,727	-0,064830	22,340000	47,335000
2,587863	101,422134	70,879	-0,064936	22,340000	47,335000
2,585438	99,537393	71,031	-0,065703	22,340000	47,335000
2,582993	98,821167	71,181	-0,065994	22,340000	47,335000
2,580644	98,107340	71,337	-0,066285	22,340000	47,335000
2,578243	96,286183	71,487	-0,067026	22,340000	47,335000
2,575843	95,571157	71,644	-0,067317	22,340000	47,335000
2,573438	94,531010	71,795	-0,067740	22,340000	47,335000
2,571039	93,295311	71,947	-0,068243	22,340000	47,335000
2,568658	92,190379	72,098	-0,068693	22,340000	47,335000
2,566215	90,954680	72,250	-0,069196	22,340000	47,335000
2,563877	90,174869	72,400	-0,069513	22,340000	47,335000
2,561436	88,874386	72,553	-0,070042	22,340000	47,335000
2,559041	87,379549	72,704	-0,070651	22,340000	47,335000
2,556669	86,598539	72,855	-0,070969	22,340000	47,335000
2,554266	85,103703	73,009	-0,071577	22,340000	47,335000
2,551838	83,998771	73,160	-0,072027	22,340000	47,335000
2,549407	82,893840	73,317	-0,072477	22,340000	47,335000
2,547031	82,827856	73,467	-0,072503	22,340000	47,335000
2,544679	81,137467	73,625	-0,073191	22,340000	47,335000
2,542223	79,707415	73,776	-0,073773	22,340000	47,335000
2,539901	78,862821	73,928	-0,074117	22,340000	47,335000
2,537445	77,106448	74,078	-0,074832	22,340000	47,335000
2,535050	76,066301	74,229	-0,075255	22,340000	47,335000
2,532663	75,482043	74,381	-0,075493	22,340000	47,335000
2,530258	74,767017	74,532	-0,075784	22,340000	47,335000
2,527879	72,945860	74,682	-0,076525	22,350000	47,335000
2,525424	70,865565	74,845	-0,077372	22,350000	47,335000
2,523048	71,320255	74,996	-0,077187	22,350000	47,335000
2,520666	69,825418	75,147	-0,077795	22,350000	47,335000
2,518212	68,785271	75,297	-0,078219	22,350000	47,335000
2,515829	68,070245	75,449	-0,078510	22,350000	47,335000
2,513463	67,030098	75,600	-0,078933	22,350000	47,335000
2,511016	65,469278	75,751	-0,079568	22,350000	47,335000
2,508679	63,778889	75,901	-0,080256	22,350000	47,335000
2,506245	62,413621	76,052	-0,080812	22,350000	47,335000
2,503903	61,308690	76,202	-0,081262	22,350000	47,335000
2,501460	61,177922	76,354	-0,081315	22,350000	47,335000
2,499063	60,008206	76,506	-0,081791	22,350000	47,335000
2,496640	59,228396	76,656	-0,082108	22,340000	47,350000
2,494337	57,277670	76,808	-0,082902	22,340000	47,350000
2,491870	56,367092	76,964	-0,083273	22,340000	47,350000
2,489464	55,587281	77,116	-0,083590	22,340000	47,350000
2,487089	53,961677	77,267	-0,084252	22,340000	47,350000
2,484622	53,571771	77,417	-0,084411	22,340000	47,350000
2,482243	53,181866	77,568	-0,084569	22,340000	47,350000
2,479895	50,970804	77,718	-0,085469	22,340000	47,350000
2,477462	50,061425	77,869	-0,085839	22,340000	47,350000
2,475050	48,110699	78,024	-0,086633	22,340000	47,350000
2,472656	47,720794	78,179	-0,086792	22,340000	47,350000
2,470266	47,264905	78,333	-0,086978	22,340000	47,350000
2,467856	46,159974	78,485	-0,087427	22,340000	47,350000
2,465433	44,729922	78,637	-0,088009	22,340000	47,350000
2,463077	44,079680	78,787	-0,088274	22,340000	47,350000
2,460701	42,518859	78,938	-0,088909	22,340000	47,350000
2,458259	41,349144	79,088	-0,089385	22,340000	47,350000
2,455838	40,503350	79,244	-0,089729	22,340000	47,350000
2,453485	40,569334	79,395	-0,089703	22,340000	47,350000
2,451126	38,487840	79,546	-0,090550	22,340000	47,350000
2,448677	37,837598	79,698	-0,090814	22,340000	47,350000
2,446255	36,407546	79,848	-0,091396	22,340000	47,350000
2,443834	36,407546	79,999	-0,091396	22,340000	47,350000
2,441431	34,392036	80,153	-0,092217	22,340000	47,350000
2,439082	34,327252	80,305	-0,092243	22,340000	47,350000
2,436627	33,481457	80,457	-0,092587	22,340000	47,350000
2,434275	32,961984	80,608	-0,092799	22,340000	47,350000
2,431842	31,726284	80,758	-0,093302	22,340000	47,360000
2,429492	31,011258	80,909	-0,093593	22,340000	47,360000
2,427014	29,645990	81,059	-0,094148	22,340000	47,360000
2,424652	29,516422	81,217	-0,094201	22,340000	47,360000
2,422282	28,670627	81,380	-0,094545	22,340000	47,360000
2,419859	27,630480	81,530	-0,094969	22,340000	47,360000
2,417442	27,305359	81,684	-0,095101	22,340000	47,360000
2,415047	26,070860	81,835	-0,095604	22,340000	47,360000
2,412660	25,614970	81,986	-0,095789	22,340000	47,360000
2,410279	23,990565	82,138	-0,096450	22,340000	47,360000
2,407894	22,039840	82,288	-0,097244	22,340000	47,360000
2,405455	22,429745	82,439	-0,097085	22,340000	47,360000
2,403067	21,583951	82,591	-0,097430	22,340000	47,360000
2,400672	20,999693	82,741	-0,097667	22,350000	47,360000
2,398257	20,479020	82,897	-0,097879	22,350000	47,360000
2,395836	19,438872	83,047	-0,098303	22,350000	47,360000
2,393415	19,178536	83,197	-0,098409	22,350000	47,360000
2,391064	18,788631	83,355	-0,098567	22,350000	47,360000
2,388665	18,203173	83,506	-0,098806	22,350000	47,360000
2,386306	17,293794	83,657	-0,099176	22,350000	47,360000
2,383870	16,708337	83,809	-0,099414	22,350000	47,360000
2,381501	16,187663	83,961	-0,099626	22,350000	47,360000
2,379072	15,732974	84,111	-0,099811	22,350000	47,360000
2,376664	15,213500	84,272	-0,100022	22,350000	47,360000
2,374265	14,107369	84,424	-0,100473	22,350000	47,360000
2,371895	14,042585	84,575	-0,100499	22,350000	47,360000
2,369465	13,197990	84,725	-0,100843	22,350000	47,360000
2,367050	12,937654	84,879	-0,100949	22,350000	47,360000
2,364655	12,091859	85,029	-0,101293	22,350000	47,360000
2,362281	11,637170	85,180	-0,101478	22,350000	47,360000
2,359857	11,572386	85,350	-0,101504	22,350000	47,360000
2,357428	10,336686	85,501	-0,102007	22,350000	47,360000
2,355069	9,621660	85,663	-0,102298	22,350000	47,360000
2,352654	9,817212	85,813	-0,102219	22,350000	47,360000
2,350288	9,036202	85,963	-0,102537	22,350000	47,360000
2,347863	8,777065	86,116	-0,102642	22,350000	47,360000
2,345433	8,387160	86,267	-0,102801	22,350000	47,360000
2,343023	8,126824	86,418	-0,102907	22,350000	47,360000
2,340637	8,387160	86,569	-0,102801	22,350000	47,360000
2,338280	7,606150	86,721	-0,103119	22,340000	47,350000
2,335856	6,176098	86,874	-0,103701	22,340000	47,350000
2,333437	6,305666	87,025	-0,103648	22,340000	47,350000
2,331054	5,786193	87,177	-0,103859	22,340000	47,350000
2,328635	4,681262	87,337	-0,104309	22,340000	47,350000
2,326266	3,770683	87,488	-0,104680	22,340000	47,350000
2,323862	3,770683	87,639	-0,104680	22,340000	47,350000
2,321443	4,354941	87,794	-0,104442	22,340000	47,350000
2,319038	2,860104	87,945	-0,105050	22,340000	47,350000
2,316678	1,819957	88,106	-0,105474	22,340000	47,350000
2,314274	1,755173	88,257	-0,105500	22,340000	47,350000
2,311909	0,650242	88,409	-0,105950	22,340000	47,350000
2,309465	0,323921	88,563	-0,106083	22,340000	47,350000
2,307066	0,519474	88,715	-0,106003	22,340000	47,350000
2,304618	-0,781010	88,878	-0,106532	22,340000	47,350000
2,302215	-2,211062	89,030	-0,107114	22,340000	47,350000
2,299847	-1,950726	89,181	-0,107008	22,340000	47,350000
2,297436	-2,926088	89,331	-0,107405	22,340000	47,350000
2,295070	-2,795320	89,494	-0,107352	22,340000	47,350000
2,292697	-2,600967	89,678	-0,107273	22,340000	47,350000
2,290317	-3,121641	89,828	-0,107485	22,340000	47,350000
2,287862	-4,291356	89,978	-0,107961	22,340000	47,350000
2,285493	-4,095804	90,140	-0,107881	22,340000	47,350000
2,283057	-4,616477	90,291	-0,108093	22,340000	47,350000
2,280683	-4,747245	90,459	-0,108146	22,340000	47,350000
2,278214	-5,396288	90,611	-0,108411	22,340000	47,350000
2,275890	-6,242082	90,763	-0,108755	22,350000	47,335000
2,273478	-6,892324	90,914	-0,109020	22,350000	47,335000
2,271029	-8,907834	91,064	-0,109840	22,350000	47,335000
2,268737	-7,802902	91,215	-0,109390	22,350000	47,335000
2,266332	-9,297739	91,365	-0,109999	22,350000	47,335000
2,263886	-8,777065	91,517	-0,109787	22,350000	47,335000
2,261437	-8,257592	91,667	-0,109575	22,350000	47,335000
2,259085	-10,273102	91,819	-0,110396	22,350000	47,335000
2,256610	-9,883196	91,969	-0,110237	22,350000	47,335000
2,254250	-11,052912	92,146	-0,110713	22,350000	47,335000
2,251836	-10,988128	92,299	-0,110687	22,350000	47,335000
2,249486	-11,052912	92,462	-0,110713	22,350000	47,335000
2,247000	-11,963490	92,612	-0,111083	22,350000	47,335000
2,244701	-13,393543	92,762	-0,111666	22,350000	47,335000
2,242247	-12,613732	92,913	-0,111348	22,350000	47,335000
2,239849	-12,418180	93,064	-0,111269	22,350000	47,335000
2,237476	-12,418180	93,215	-0,111269	22,350000	47,335000
2,235082	-13,133206	93,367	-0,111560	22,350000	47,335000
2,232674	-13,068422	93,520	-0,111533	22,350000	47,335000
2,230260	-13,068422	93,679	-0,111533	22,350000	47,335000
2,227855	-13,718664	93,830	-0,111798	22,350000	47,335000
2,225518	-13,524311	93,980	-0,111719	22,350000	47,335000
2,223094	-13,393543	94,130	-0,111666	22,350000	47,335000
2,220666	-13,848232	94,280	-0,111851	22,350000	47,335000
2,218276	-13,393543	94,430	-0,111666	22,350000	47,335000
2,215845	-13,524311	94,600	-0,111719	22,350000	47,335000
2,213463	-14,304121	94,752	-0,112036	22,350000	47,335000
2,211105	-14,433690	94,926	-0,112089	22,350000	47,335000
2,208606	-14,758811	95,077	-0,112221	22,350000	47,335000
2,206274	-14,498474	95,228	-0,112115	22,350000	47,335000
2,203864	-15,929726	95,388	-0,112698	22,350000	47,335000
2,201487	-15,603405	95,539	-0,112565	22,350000	47,335000
2,199088	-15,798958	95,702	-0,112645	22,350000	47,335000
2,196704	-16,839105	95,852	-0,113068	22,350000	47,335000
2,194236	-16,319631	96,002	-0,112856	22,350000	47,335000
2,191861	-17,229010	96,156	-0,113227	22,350000	47,335000
2,189439	-17,359778	96,307	-0,113280	22,350000	47,335000
2,187070	-17,489347	96,460	-0,113333	22,350000	47,335000
2,184657	-16,384415	96,611	-0,112883	22,350000	47,335000
2,182248	-18,335141	96,763	-0,113677	22,350000	47,320000
2,179876	-18,464709	96,915	-0,113729	22,350000	47,320000
2,177432	-18,789830	97,066	-0,113862	22,350000	47,320000
2,175015	0,064784	97,216	-0,106188	22,350000	47,320000
2,172622	0,129568	97,367	-0,106162	22,350000	47,320000
2,170279	-0,716226	97,517	-0,106506	22,350000	47,320000
2,167852	0,129568	97,667	-0,106162	22,350000	47,320000
2,165478	0,064784	97,817	-0,106188	22,350000	47,320000
2,163066	-0,455889	97,968	-0,106400	22,350000	47,320000
2,160658	-0,065984	98,135	-0,106241	22,350000	47,320000
2,158285	-0,585458	98,285	-0,106453	22,350000	47,320000
2,155813	-0,845794	98,436	-0,106559	22,350000	47,320000
2,153419	-0,130768	98,588	-0,106268	22,350000	47,320000
2,151050	-0,781010	98,740	-0,106532	22,350000	47,320000
2,148658	-0,585458	98,906	-0,106453	22,350000	47,320000
2,146270	-0,520673	99,056	-0,106426	22,350000	47,320000
2,143920	-0,389905	99,206	-0,106373	22,350000	47,320000
2,141439	-0,325121	99,361	-0,106347	22,350000	47,320000
2,139066	0,129568	99,513	-0,106162	22,350000	47,320000
2,136610	-0,325121	99,669	-0,106347	22,350000	47,320000
2,134291	-0,325121	99,821	-0,106347	22,350000	47,320000
2,131872	-0,325121	99,972	-0,106347	22,350000	47,320000
2,129557	0,064784	100,138	-0,106188	22,350000	47,320000
2,127069	-0,455889	100,288	-0,106400	22,350000	47,320000
2,124741	-0,065984	100,439	-0,106241	22,350000	47,320000
2,122296	-0,716226	100,603	-0,106506	22,350000	47,320000
2,119874	-0,781010	100,754	-0,106532	22,340000	47,320000
2,117483	-0,130768	100,909	-0,106268	22,340000	47,320000
2,115099	0,260337	101,059	-0,106108	22,340000	47,320000
2,112648	-0,455889	101,209	-0,106400	22,340000	47,320000
2,110321	0,194353	101,360	-0,106135	22,340000	47,320000
2,107884	-0,325121	101,510	-0,106347	22,340000	47,320000
2,105435	-0,455889	101,662	-0,106400	22,340000	47,320000
2,103077	-0,130768	101,813	-0,106268	22,340000	47,320000
2,100674	-0,585458	101,963	-0,106453	22,340000	47,320000
2,098308	-0,389905	102,126	-0,106373	22,340000	47,320000
2,095869	-0,455889	102,276	-0,106400	22,340000	47,320000
2,093479	-0,130768	102,427	-0,106268	22,340000	47,320000
2,091079	-0,065984	102,578	-0,106241	22,340000	47,320000
2,088659	-0,130768	102,730	-0,106268	22,340000	47,320000
2,086268	0,129568	102,896	-0,106162	22,340000	47,320000
2,083899	-0,650242	103,046	-0,106479	22,340000	47,320000
2,081533	0,000000	103,197	-0,106214	22,340000	47,320000
2,079080	-0,130768	103,360	-0,106268	22,340000	47,320000
2,076669	-0,975363	103,510	-0,106611	22,340000	47,320000
2,074272	-0,975363	103,668	-0,106611	22,340000	47,320000
2,071875	-0,065984	103,819	-0,106241	22,340000	47,320000
2,069443	-0,585458	103,969	-0,106453	22,340000	47,320000
2,067141	0,064784	104,120	-0,106188	22,340000	47,320000
2,064654	0,260337	104,271	-0,106108	22,340000	47,320000
2,062253	-0,781010	104,422	-0,106532	22,340000	47,320000
2,059872	-1,040147	104,579	-0,106638	22,340000	47,320000
2,057399	-0,065984	104,730	-0,106241	22,340000	47,335000
2,055073	-0,650242	104,881	-0,106479	22,340000	47,335000
2,052648	-0,325121	105,033	-0,106347	22,340000	47,335000
2,050291	0,454689	105,183	-0,106029	22,340000	47,335000
2,047871	-0,455889	105,334	-0,106400	22,340000	47,335000
2,045432	0,064784	105,486	-0,106188	22,340000	47,335000
2,043102	-0,650242	105,636	-0,106479	22,340000	47,335000
2,040666	-0,455889	105,798	-0,106400	22,340000	47,335000
2,038324	-0,130768	105,949	-0,106268	22,340000	47,335000
2,035844	-0,325121	106,100	-0,106347	22,340000	47,335000
2,033459	0,000000	106,250	-0,106214	22,340000	47,335000
2,031080	-0,585458	106,401	-0,106453	22,340000	47,335000
2,028672	-0,650242	106,570	-0,106479	22,340000	47,335000
2,026257	-0,585458	106,720	-0,106453	22,350000	47,360000
2,023857	-0,585458	106,928	-0,106453	22,350000	47,360000
2,021495	-0,195552	107,094	-0,106294	22,350000	47,360000
2,019098	-0,065984	107,258	-0,106241	22,350000	47,360000
2,016630	-0,650242	107,439	-0,106479	22,350000	47,360000
2,014311	-0,716226	107,590	-0,106506	22,350000	47,360000
2,011882	-0,130768	107,742	-0,106268	22,350000	47,360000
2,009540	-0,585458	107,892	-0,106453	22,350000	47,360000
2,007104	-0,325121	108,042	-0,106347	22,350000	47,360000
2,004677	-0,130768	108,201	-0,106268	22,350000	47,360000
2,002250	-0,065984	108,353	-0,106241	22,350000	47,360000
1,999837	-0,716226	108,509	-0,106506	22,350000	47,360000
1,997543	-0,520673	108,660	-0,106426	22,350000	47,360000
1,995005	-0,389905	108,811	-0,106373	22,350000	47,360000
1,992638	-0,716226	108,970	-0,106506	22,350000	47,360000
1,990318	-0,650242	109,123	-0,106479	22,350000	47,360000
1,987880	0,064784	109,274	-0,106188	22,350000	47,360000
1,985466	-0,130768	109,425	-0,106268	22,350000	47,360000
1,983088	-0,585458	109,575	-0,106453	22,350000	47,360000
1,980747	-0,260337	109,726	-0,106320	22,350000	47,360000
1,978250	0,323921	109,876	-0,106083	22,350000	47,360000
1,975897	-0,520673	110,027	-0,106426	22,350000	47,360000
1,973547	0,129568	110,180	-0,106162	22,350000	47,360000
1,971101	-0,130768	110,331	-0,106268	22,350000	47,360000
1,968705	-0,195552	110,484	-0,106294	22,350000	47,360000
1,966254	-0,195552	110,634	-0,106294	22,350000	47,360000
1,963873	-0,520673	110,786	-0,106426	22,350000	47,360000
1,961502	-0,065984	110,938	-0,106241	22,350000	47,360000
1,959120	0,064784	111,090	-0,106188	22,350000	47,360000
1,956638	-0,845794	111,243	-0,106559	22,350000	47,360000
1,954302	-0,455889	111,393	-0,106400	22,350000	47,360000
1,951902	-0,130768	111,546	-0,106268	22,350000	47,360000
1,949443	-0,455889	111,696	-0,106400	22,350000	47,360000
1,947056	0,129568	111,847	-0,106162	22,350000	47,360000
1,944637	0,064784	111,997	-0,106188	22,350000	47,360000
1,943898	-0,781010	112,047	-0,106532	22,350000	47,360000