File: Nanoindentation Datenauswertung/data/MEMS Resolution Test/MEMS step test,1nm,10Hz-4
Quasi static measurement routine
Tip parameters (shape,radius, material...)
17.08.2022

Piezo position[nm]	MEMS displ.[nm]	Time[ms]	Cap [pf]	Temp [°C]	Rh [%]
eoh
2,783982	0,221946	0,186	-0,077706	22,470000	56,525000
2,784943	1,251075	2,186	-0,077276	22,460000	56,550000
2,784927	1,432136	2,287	-0,077200	22,460000	56,550000
2,784950	1,360880	2,387	-0,077230	22,460000	56,550000
2,784976	1,005766	2,487	-0,077378	22,460000	56,550000
2,784936	1,155287	2,587	-0,077316	22,460000	56,550000
2,784943	1,029129	2,687	-0,077369	22,460000	56,550000
2,784896	1,258084	2,787	-0,077273	22,460000	56,550000
2,784922	1,155287	2,887	-0,077316	22,460000	56,550000
2,784971	1,416950	2,987	-0,077207	22,460000	56,510000
2,784930	1,305977	3,087	-0,077253	22,460000	56,510000
2,784931	1,297800	3,187	-0,077256	22,460000	56,510000
2,784935	1,012775	3,288	-0,077375	22,460000	56,510000
2,784954	1,140102	3,390	-0,077322	22,460000	56,510000
2,784944	0,997589	3,491	-0,077382	22,460000	56,510000
2,784915	1,178650	3,591	-0,077306	22,460000	56,510000
2,784924	1,203181	3,691	-0,077296	22,460000	56,510000
2,784917	0,918156	3,792	-0,077415	22,460000	56,510000
2,784995	1,037306	3,893	-0,077365	22,460000	56,510000
2,784960	1,123748	3,994	-0,077329	22,460000	56,510000
2,784917	1,107394	4,095	-0,077336	22,460000	56,510000
2,784973	1,163464	4,196	-0,077313	22,460000	56,510000
2,784928	1,274437	4,297	-0,077266	22,460000	56,510000
2,784917	1,400596	4,397	-0,077213	22,460000	56,510000
2,784930	1,171641	4,497	-0,077309	22,460000	56,510000
2,784944	1,044314	4,597	-0,077362	22,460000	56,510000
2,784947	1,186827	4,697	-0,077303	22,460000	56,510000
2,784923	1,171641	4,797	-0,077309	22,460000	56,510000
2,784968	1,012775	4,897	-0,077375	22,460000	56,510000
2,784949	0,981235	4,997	-0,077389	22,460000	56,510000
2,784862	1,289623	5,097	-0,077260	22,460000	56,510000
2,784938	1,226544	5,197	-0,077286	22,460000	56,510000
2,784898	1,392419	5,297	-0,077217	22,460000	56,510000
2,784946	1,242898	5,398	-0,077279	22,460000	56,510000
2,784913	1,147110	5,498	-0,077319	22,460000	56,510000
2,784882	1,289623	5,598	-0,077260	22,460000	56,510000
2,784951	0,989412	5,698	-0,077385	22,460000	56,510000
2,784994	1,329340	5,799	-0,077243	22,460000	56,510000
2,784979	0,846899	5,900	-0,077445	22,460000	56,510000
2,785004	1,163464	6,000	-0,077313	22,460000	56,510000
2,784990	1,147110	6,100	-0,077319	22,460000	56,510000
2,784960	1,020952	6,200	-0,077372	22,460000	56,510000
2,785008	1,400596	6,300	-0,077213	22,460000	56,510000
2,784934	1,258084	6,400	-0,077273	22,460000	56,510000
2,784935	1,131925	6,500	-0,077326	22,460000	56,510000
2,784930	1,163464	6,601	-0,077313	22,460000	56,510000
2,784955	0,926333	6,701	-0,077412	22,460000	56,510000
2,784927	0,901802	6,801	-0,077422	22,460000	56,510000
2,784944	1,037306	6,903	-0,077365	22,460000	56,510000
2,784909	1,258084	7,003	-0,077273	22,460000	56,525000
2,784932	1,084031	7,103	-0,077346	22,460000	56,525000
2,784927	1,297800	7,203	-0,077256	22,460000	56,525000
2,784976	1,052491	7,303	-0,077359	22,460000	56,525000
2,784948	0,957872	7,404	-0,077398	22,460000	56,525000
2,784959	1,029129	7,505	-0,077369	22,460000	56,525000
2,784929	1,186827	7,605	-0,077303	22,460000	56,525000
2,784932	0,744103	7,707	-0,077488	22,460000	56,525000
2,784970	1,140102	7,808	-0,077322	22,460000	56,525000
2,784932	0,989412	7,908	-0,077385	22,460000	56,525000
2,784921	1,005766	8,009	-0,077378	22,460000	56,525000
2,784914	0,989412	8,110	-0,077385	22,460000	56,525000
2,784963	0,846899	8,210	-0,077445	22,460000	56,525000
2,784927	1,123748	8,311	-0,077329	22,460000	56,525000
2,784927	0,933341	8,411	-0,077409	22,460000	56,525000
2,784954	0,941518	8,513	-0,077405	22,460000	56,525000
2,784925	0,578228	8,613	-0,077557	22,460000	56,525000
2,784929	1,218367	8,713	-0,077290	22,460000	56,525000
2,784957	1,140102	8,814	-0,077322	22,460000	56,525000
2,784941	0,585237	8,915	-0,077554	22,460000	56,525000
2,784969	1,155287	9,017	-0,077316	22,460000	56,525000
2,784995	0,815360	9,118	-0,077458	22,460000	56,525000
2,784927	0,966049	9,218	-0,077395	22,460000	56,525000
2,784966	1,012775	9,319	-0,077375	22,460000	56,525000
2,785022	0,989412	9,420	-0,077385	22,460000	56,525000
2,784994	0,838722	9,520	-0,077448	22,460000	56,525000
2,784978	0,799006	9,620	-0,077465	22,460000	56,525000
2,784947	1,068845	9,720	-0,077352	22,460000	56,525000
2,784959	0,878439	9,822	-0,077432	22,460000	56,525000
2,784936	0,664670	9,922	-0,077521	22,460000	56,525000
2,784961	0,649484	10,024	-0,077527	22,460000	56,525000
2,784991	0,855076	10,125	-0,077441	22,460000	56,525000
2,784903	0,617944	10,226	-0,077541	22,460000	56,525000
2,784965	0,933341	10,326	-0,077409	22,460000	56,525000
2,784972	0,870262	10,427	-0,077435	22,460000	56,525000
2,784901	0,926333	10,529	-0,077412	22,460000	56,525000
2,784964	0,901802	10,629	-0,077422	22,460000	56,525000
2,784967	0,617944	10,730	-0,077541	22,460000	56,525000
2,784961	1,171641	10,830	-0,077309	22,460000	56,525000
2,784961	0,989412	10,930	-0,077385	22,460000	56,525000
2,785010	0,657661	11,030	-0,077524	22,460000	56,550000
2,784950	0,815360	11,130	-0,077458	22,460000	56,550000
2,784976	0,989412	11,230	-0,077385	22,460000	56,550000
2,784924	0,570051	11,330	-0,077561	22,460000	56,550000
2,784954	0,775643	11,430	-0,077475	22,460000	56,550000
2,784964	1,084031	11,530	-0,077346	22,460000	56,550000
2,784976	1,005766	11,631	-0,077378	22,460000	56,550000
2,784994	0,783820	11,731	-0,077471	22,460000	56,550000
2,784971	0,981235	11,831	-0,077389	22,460000	56,550000
2,784942	0,918156	11,932	-0,077415	22,460000	56,550000
2,785013	0,981235	12,033	-0,077389	22,460000	56,550000
2,784964	0,799006	12,138	-0,077465	22,460000	56,550000
2,784971	1,163464	12,238	-0,077313	22,460000	56,550000
2,783934	0,182229	13,271	-0,077723	22,460000	56,550000
2,783940	-0,071256	13,374	-0,077829	22,460000	56,550000
2,783936	-0,046725	13,475	-0,077818	22,460000	56,550000
2,784019	-0,364459	13,576	-0,077951	22,460000	56,550000
2,783954	-0,094619	13,678	-0,077838	22,460000	56,550000
2,783915	-0,245309	13,779	-0,077901	22,460000	56,550000
2,783936	-0,220778	13,879	-0,077891	22,460000	56,550000
2,783931	0,008177	13,979	-0,077795	22,460000	56,550000
2,784012	-0,237132	14,079	-0,077898	22,460000	56,550000
2,783923	-0,150690	14,180	-0,077862	22,460000	56,550000
2,783944	-0,063079	14,280	-0,077825	22,460000	56,550000
2,783995	-0,213769	14,380	-0,077888	22,460000	56,550000
2,783937	-0,292034	14,480	-0,077921	22,460000	56,550000
2,784000	-0,339928	14,589	-0,077941	22,460000	56,550000
2,783971	-0,348105	14,690	-0,077944	22,460000	56,550000
2,783954	-0,197415	14,790	-0,077881	22,460000	56,550000
2,783909	-0,181061	14,890	-0,077875	22,460000	56,550000
2,783951	0,016354	14,991	-0,077792	22,460000	56,525000
2,783955	-0,157698	15,092	-0,077865	22,460000	56,525000
2,783930	-0,134336	15,194	-0,077855	22,460000	56,525000
2,784007	0,102796	15,294	-0,077756	22,460000	56,525000
2,783926	-0,094619	15,397	-0,077838	22,460000	56,525000
2,783998	0,158867	15,499	-0,077732	22,460000	56,525000
2,783961	-0,117982	15,599	-0,077848	22,460000	56,525000
2,783942	0,008177	15,700	-0,077795	22,460000	56,525000
2,783964	-0,513980	15,800	-0,078014	22,460000	56,525000
2,783934	-0,237132	15,900	-0,077898	22,460000	56,525000
2,783954	0,071256	16,000	-0,077769	22,460000	56,525000
2,783960	-0,379645	16,100	-0,077958	22,460000	56,525000
2,783902	-0,054902	16,200	-0,077822	22,460000	56,525000
2,783968	-0,126159	16,300	-0,077852	22,460000	56,525000
2,783984	-0,316565	16,401	-0,077931	22,460000	56,525000
2,783926	-0,150690	16,502	-0,077862	22,460000	56,525000
2,783987	-0,165875	16,602	-0,077868	22,460000	56,525000
2,783927	-0,268672	16,702	-0,077911	22,460000	56,525000
2,783960	-0,364459	16,802	-0,077951	22,460000	56,525000
2,783983	-0,205592	16,903	-0,077885	22,460000	56,525000
2,783934	-0,063079	17,003	-0,077825	22,460000	56,540000
2,783960	-0,134336	17,103	-0,077855	22,460000	56,540000
2,783993	0,150690	17,203	-0,077736	22,460000	56,540000
2,783969	0,000000	17,304	-0,077799	22,460000	56,540000
2,783981	-0,213769	17,404	-0,077888	22,460000	56,540000
2,783982	-0,142513	17,505	-0,077858	22,460000	56,540000
2,783984	0,158867	17,605	-0,077732	22,460000	56,540000
2,783929	-0,126159	17,706	-0,077852	22,460000	56,540000
2,783960	-0,054902	17,806	-0,077822	22,460000	56,540000
2,783958	0,054902	17,908	-0,077776	22,460000	56,540000
2,783982	-0,197415	18,008	-0,077881	22,460000	56,540000
2,783945	-0,071256	18,108	-0,077829	22,460000	56,540000
2,783986	-0,023363	18,208	-0,077809	22,460000	56,540000
2,783935	-0,364459	18,308	-0,077951	22,460000	56,540000
2,783970	-0,324742	18,410	-0,077935	22,460000	56,540000
2,783995	-0,228955	18,510	-0,077895	22,460000	56,540000
2,783979	-0,150690	18,610	-0,077862	22,460000	56,540000
2,783955	-0,300211	18,710	-0,077924	22,460000	56,540000
2,783969	-0,197415	18,811	-0,077881	22,460000	56,540000
2,783982	0,000000	18,911	-0,077799	22,460000	56,540000
2,783967	-0,031540	19,011	-0,077812	22,460000	56,540000
2,783926	-0,165875	19,112	-0,077868	22,460000	56,540000
2,783967	-0,110973	19,213	-0,077845	22,460000	56,540000
2,783918	0,063079	19,314	-0,077772	22,460000	56,540000
2,783997	-0,150690	19,419	-0,077862	22,460000	56,540000
2,784045	-0,150690	19,519	-0,077862	22,460000	56,540000
2,784001	-0,339928	19,620	-0,077941	22,460000	56,540000
2,784016	-0,054902	19,722	-0,077822	22,460000	56,540000
2,784001	0,261663	19,826	-0,077689	22,460000	56,540000
2,783905	-0,174052	19,926	-0,077872	22,460000	56,540000
2,783958	-0,220778	20,026	-0,077891	22,460000	56,540000
2,783965	-0,110973	20,126	-0,077845	22,460000	56,540000
2,783915	-0,316565	20,230	-0,077931	22,460000	56,540000
2,783947	0,024531	20,330	-0,077789	22,460000	56,540000
2,783958	-0,356282	20,430	-0,077948	22,460000	56,540000
2,784003	-0,316565	20,535	-0,077931	22,460000	56,540000
2,783962	-0,292034	20,636	-0,077921	22,460000	56,540000
2,783918	-0,079433	20,737	-0,077832	22,460000	56,540000
2,783940	-0,419361	20,837	-0,077974	22,460000	56,540000
2,783917	-0,197415	20,941	-0,077881	22,460000	56,540000
2,783936	-0,023363	21,042	-0,077809	22,460000	56,540000
2,783928	-0,253486	21,144	-0,077905	22,460000	56,540000
2,783965	-0,285025	21,246	-0,077918	22,460000	56,540000
2,783967	-0,316565	21,346	-0,077931	22,460000	56,540000
2,784009	-0,071256	21,447	-0,077829	22,460000	56,540000
2,783936	-0,237132	21,548	-0,077898	22,460000	56,540000
2,783940	-0,150690	21,648	-0,077862	22,460000	56,540000
2,783920	-0,411184	21,749	-0,077971	22,460000	56,540000
2,783942	-0,157698	21,849	-0,077865	22,460000	56,540000
2,783942	0,102796	21,949	-0,077756	22,460000	56,540000
2,783965	0,102796	22,050	-0,077756	22,460000	56,540000
2,783978	0,165875	22,150	-0,077729	22,460000	56,540000
2,783896	0,008177	22,251	-0,077795	22,460000	56,540000
2,783963	-0,165875	22,351	-0,077868	22,460000	56,540000
2,783993	-0,063079	22,451	-0,077825	22,460000	56,540000
2,783966	-0,023363	22,552	-0,077809	22,460000	56,540000
2,783961	-0,157698	22,653	-0,077865	22,460000	56,540000
2,783979	-0,015186	22,753	-0,077805	22,460000	56,540000
2,783945	-0,150690	22,853	-0,077862	22,460000	56,540000
2,784022	-0,117982	22,953	-0,077848	22,460000	56,540000
2,783943	-0,292034	23,053	-0,077921	22,460000	56,540000
2,783974	-0,054902	23,153	-0,077822	22,460000	56,540000
2,783994	0,063079	23,253	-0,077772	22,460000	56,540000
2,783946	0,071256	23,353	-0,077769	22,460000	56,540000
2,784906	0,593414	24,388	-0,077551	22,460000	56,540000
2,785037	0,973058	24,488	-0,077392	22,460000	56,540000
2,784936	0,878439	24,589	-0,077432	22,460000	56,540000
2,784926	0,997589	24,690	-0,077382	22,460000	56,540000
2,784961	1,012775	24,790	-0,077375	22,460000	56,540000
2,784978	0,838722	24,891	-0,077448	22,460000	56,540000
2,784983	0,735926	24,991	-0,077491	22,460000	56,540000
2,784992	0,973058	25,091	-0,077392	22,460000	56,540000
2,784971	0,633130	25,192	-0,077534	22,460000	56,540000
2,784974	0,838722	25,293	-0,077448	22,460000	56,540000
2,784927	0,744103	25,404	-0,077488	22,460000	56,540000
2,784958	0,664670	25,504	-0,077521	22,460000	56,540000
2,784942	0,831714	25,604	-0,077451	22,460000	56,540000
2,784973	0,870262	25,704	-0,077435	22,460000	56,540000
2,784950	0,791997	25,804	-0,077468	22,460000	56,540000
2,784912	0,933341	25,904	-0,077409	22,460000	56,540000
2,784958	0,538511	26,006	-0,077574	22,460000	56,540000
2,784920	0,838722	26,107	-0,077448	22,460000	56,540000
2,784969	0,831714	26,209	-0,077451	22,460000	56,540000
2,784985	0,807183	26,309	-0,077461	22,460000	56,540000
2,785024	0,609767	26,409	-0,077544	22,460000	56,540000
2,784985	0,735926	26,509	-0,077491	22,460000	56,540000
2,784954	0,641307	26,609	-0,077531	22,460000	56,540000
2,784930	0,799006	26,709	-0,077465	22,460000	56,540000
2,784944	0,791997	26,810	-0,077468	22,460000	56,540000
2,785001	0,578228	26,910	-0,077557	22,460000	56,540000
2,784924	1,131925	27,010	-0,077326	22,460000	56,540000
2,784936	0,767466	27,110	-0,077478	22,460000	56,540000
2,784974	0,909979	27,210	-0,077418	22,460000	56,540000
2,784974	0,570051	27,310	-0,077561	22,460000	56,540000
2,784970	0,815360	27,411	-0,077458	22,460000	56,540000
2,784937	0,855076	27,512	-0,077441	22,460000	56,540000
2,785016	0,704387	27,613	-0,077504	22,460000	56,540000
2,784962	0,918156	27,714	-0,077415	22,460000	56,540000
2,784967	1,131925	27,815	-0,077326	22,460000	56,540000
2,784935	0,720741	27,916	-0,077498	22,460000	56,540000
2,784933	1,005766	28,017	-0,077378	22,460000	56,540000
2,784998	0,775643	28,117	-0,077475	22,460000	56,540000
2,785005	0,973058	28,218	-0,077392	22,460000	56,540000
2,784956	0,989412	28,318	-0,077385	22,460000	56,540000
2,784961	0,744103	28,419	-0,077488	22,460000	56,540000
2,785003	0,981235	28,519	-0,077389	22,460000	56,540000
2,784963	0,664670	28,628	-0,077521	22,460000	56,540000
2,784923	0,846899	28,728	-0,077445	22,460000	56,540000
2,784928	0,791997	28,829	-0,077468	22,460000	56,540000
2,784939	0,855076	28,929	-0,077441	22,460000	56,540000
2,785006	1,029129	29,034	-0,077369	22,460000	56,540000
2,784938	0,585237	29,135	-0,077554	22,460000	56,540000
2,784982	0,657661	29,236	-0,077524	22,460000	56,540000
2,784985	0,901802	29,343	-0,077422	22,460000	56,540000
2,784989	1,020952	29,445	-0,077372	22,460000	56,540000
2,784909	0,633130	29,545	-0,077534	22,460000	56,540000
2,784998	0,823537	29,646	-0,077455	22,460000	56,540000
2,784984	0,720741	29,754	-0,077498	22,460000	56,540000
2,784996	0,933341	29,854	-0,077409	22,460000	56,540000
2,784936	0,538511	29,954	-0,077574	22,460000	56,540000
2,784905	0,989412	30,055	-0,077385	22,460000	56,540000
2,784995	0,649484	30,156	-0,077527	22,460000	56,540000
2,784961	0,395998	30,256	-0,077633	22,460000	56,540000
2,784963	0,823537	30,357	-0,077455	22,460000	56,540000
2,784942	0,364459	30,458	-0,077646	22,460000	56,540000
2,784970	0,617944	30,558	-0,077541	22,460000	56,540000
2,784918	0,348105	30,659	-0,077653	22,460000	56,540000
2,784920	0,926333	30,761	-0,077412	22,460000	56,540000
2,784959	0,886616	30,861	-0,077428	22,460000	56,540000
2,784995	0,901802	30,962	-0,077422	22,460000	56,540000
2,784943	0,190406	31,062	-0,077719	22,460000	56,550000
2,784936	0,412352	31,162	-0,077626	22,460000	56,550000
2,784973	0,657661	31,263	-0,077524	22,460000	56,550000
2,785039	0,490618	31,363	-0,077594	22,460000	56,550000
2,784966	0,506971	31,464	-0,077587	22,460000	56,550000
2,784984	0,949695	31,564	-0,077402	22,460000	56,550000
2,784954	0,712564	31,665	-0,077501	22,460000	56,550000
2,784961	0,688033	31,767	-0,077511	22,460000	56,550000
2,784979	0,807183	31,868	-0,077461	22,460000	56,550000
2,784961	1,092208	31,968	-0,077342	22,460000	56,550000
2,784966	0,593414	32,068	-0,077551	22,460000	56,550000
2,784989	0,807183	32,179	-0,077461	22,460000	56,550000
2,784963	0,893625	32,279	-0,077425	22,460000	56,550000
2,784947	0,633130	32,379	-0,077534	22,460000	56,550000
2,784978	0,727749	32,479	-0,077495	22,460000	56,550000
2,785028	0,450901	32,587	-0,077610	22,460000	56,550000
2,784978	0,633130	32,687	-0,077534	22,460000	56,550000
2,784973	0,744103	32,787	-0,077488	22,460000	56,550000
2,784974	0,570051	32,888	-0,077561	22,460000	56,550000
2,784981	0,744103	32,995	-0,077488	22,450000	56,510000
2,785006	0,901802	33,096	-0,077422	22,450000	56,510000
2,784957	0,712564	33,197	-0,077501	22,450000	56,510000
2,784987	0,886616	33,297	-0,077428	22,450000	56,510000
2,784944	0,649484	33,406	-0,077527	22,450000	56,510000
2,784945	0,759289	33,507	-0,077481	22,450000	56,510000
2,784970	0,926333	33,608	-0,077412	22,450000	56,510000
2,784977	0,901802	33,708	-0,077422	22,450000	56,510000
2,784976	0,966049	33,809	-0,077395	22,450000	56,510000
2,784957	1,115571	33,909	-0,077333	22,450000	56,510000
2,784959	0,546688	34,010	-0,077570	22,450000	56,510000
2,784945	0,989412	34,111	-0,077385	22,450000	56,510000
2,784957	0,949695	34,211	-0,077402	22,450000	56,510000
2,784930	0,949695	34,311	-0,077402	22,450000	56,510000
2,784983	0,846899	34,412	-0,077445	22,450000	56,510000
2,784926	0,799006	34,513	-0,077465	22,450000	56,510000
2,783953	0,071256	35,564	-0,077769	22,470000	56,525000
2,783974	0,063079	35,664	-0,077772	22,470000	56,525000
2,783933	-0,316565	35,765	-0,077931	22,470000	56,525000
2,783934	-0,086442	35,867	-0,077835	22,470000	56,525000
2,783953	-0,031540	35,967	-0,077812	22,470000	56,525000
2,783959	-0,157698	36,068	-0,077865	22,470000	56,525000
2,783969	0,039717	36,168	-0,077782	22,470000	56,525000
2,783926	-0,023363	36,268	-0,077809	22,470000	56,525000
2,783963	-0,379645	36,369	-0,077958	22,470000	56,525000
2,783935	-0,086442	36,469	-0,077835	22,470000	56,525000
2,783927	0,079433	36,569	-0,077766	22,470000	56,525000
2,783974	-0,063079	36,669	-0,077825	22,470000	56,525000
2,783928	-0,054902	36,770	-0,077822	22,470000	56,525000
2,783925	-0,228955	36,870	-0,077895	22,470000	56,525000
2,784010	-0,308388	36,970	-0,077928	22,470000	56,525000
2,783927	0,110973	37,070	-0,077752	22,470000	56,525000
2,783904	-0,174052	37,170	-0,077872	22,470000	56,525000
2,783917	0,047894	37,270	-0,077779	22,470000	56,525000
2,783976	-0,237132	37,370	-0,077898	22,470000	56,525000
2,783944	-0,126159	37,470	-0,077852	22,470000	56,525000
2,783954	-0,023363	37,570	-0,077809	22,470000	56,525000
2,783962	0,158867	37,671	-0,077732	22,470000	56,525000
2,783962	0,268672	37,783	-0,077687	22,470000	56,525000
2,783902	-0,228955	37,883	-0,077895	22,470000	56,525000
2,783949	0,285025	37,984	-0,077680	22,470000	56,525000
2,783934	-0,126159	38,084	-0,077852	22,470000	56,525000
2,783956	0,000000	38,194	-0,077799	22,470000	56,525000
2,784012	-0,134336	38,294	-0,077855	22,470000	56,525000
2,783991	-0,102796	38,394	-0,077842	22,470000	56,525000
2,783973	0,031540	38,494	-0,077786	22,470000	56,525000
2,783958	-0,387821	38,606	-0,077961	22,470000	56,525000
2,783940	0,079433	38,706	-0,077766	22,470000	56,525000
2,783947	0,016354	38,809	-0,077792	22,470000	56,525000
2,783992	-0,126159	38,909	-0,077852	22,470000	56,525000
2,783961	-0,331751	39,016	-0,077938	22,470000	56,525000
2,783988	0,395998	39,116	-0,077633	22,470000	56,525000
2,783989	0,230123	39,216	-0,077703	22,470000	56,525000
2,783948	-0,276848	39,316	-0,077915	22,470000	56,525000
2,784003	-0,181061	39,418	-0,077875	22,470000	56,525000
2,783924	-0,181061	39,518	-0,077875	22,470000	56,525000
2,783955	-0,071256	39,618	-0,077829	22,470000	56,525000
2,783971	-0,174052	39,719	-0,077872	22,470000	56,525000
2,783962	0,213769	39,819	-0,077709	22,470000	56,525000
2,783968	-0,054902	39,919	-0,077822	22,470000	56,525000
2,783966	-0,356282	40,020	-0,077948	22,470000	56,525000
2,783960	-0,292034	40,122	-0,077921	22,470000	56,525000
2,783968	-0,071256	40,235	-0,077829	22,470000	56,525000
2,783988	0,047894	40,335	-0,077779	22,470000	56,525000
2,783923	0,079433	40,436	-0,077766	22,470000	56,525000
2,783958	0,127327	40,536	-0,077746	22,470000	56,525000
2,783965	0,016354	40,647	-0,077792	22,470000	56,525000
2,783974	-0,197415	40,748	-0,077881	22,470000	56,525000
2,783980	-0,015186	40,848	-0,077805	22,470000	56,525000
2,783930	0,230123	40,948	-0,077703	22,470000	56,525000
2,783917	0,047894	41,049	-0,077779	22,460000	56,540000
2,783934	-0,023363	41,149	-0,077809	22,460000	56,540000
2,783905	-0,150690	41,249	-0,077862	22,460000	56,540000
2,784005	-0,181061	41,349	-0,077875	22,460000	56,540000
2,783915	-0,260495	41,449	-0,077908	22,460000	56,540000
2,783987	-0,031540	41,549	-0,077812	22,460000	56,540000
2,784027	-0,220778	41,649	-0,077891	22,460000	56,540000
2,783937	-0,039717	41,764	-0,077815	22,460000	56,540000
2,783962	0,127327	41,865	-0,077746	22,460000	56,540000
2,783955	0,008177	41,965	-0,077795	22,460000	56,540000
2,784034	-0,039717	42,067	-0,077815	22,460000	56,540000
2,783938	-0,181061	42,168	-0,077875	22,460000	56,540000
2,783890	0,016354	42,269	-0,077792	22,460000	56,540000
2,783914	0,119150	42,370	-0,077749	22,460000	56,540000
2,783946	-0,410016	42,471	-0,077970	22,460000	56,540000
2,783920	-0,268672	42,571	-0,077911	22,460000	56,540000
2,783909	-0,268672	42,672	-0,077911	22,460000	56,540000
2,783991	-0,237132	42,772	-0,077898	22,460000	56,540000
2,783964	-0,364459	42,873	-0,077951	22,460000	56,540000
2,783939	-0,205592	42,974	-0,077885	22,460000	56,540000
2,783968	-0,181061	43,075	-0,077875	22,460000	56,525000
2,783952	-0,023363	43,176	-0,077809	22,460000	56,525000
2,783959	-0,007009	43,276	-0,077802	22,460000	56,525000
2,783968	-0,197415	43,376	-0,077881	22,460000	56,525000
2,783953	-0,015186	43,477	-0,077805	22,460000	56,525000
2,783944	-0,150690	43,577	-0,077862	22,460000	56,525000
2,784014	-0,228955	43,678	-0,077895	22,460000	56,525000
2,783977	-0,174052	43,781	-0,077872	22,460000	56,525000
2,783988	-0,134336	43,882	-0,077855	22,460000	56,525000
2,783997	-0,086442	43,982	-0,077835	22,460000	56,525000
2,783978	-0,039717	44,082	-0,077815	22,460000	56,525000
2,783943	-0,007009	44,196	-0,077802	22,460000	56,525000
2,783945	0,016354	44,296	-0,077792	22,460000	56,525000
2,783952	-0,205592	44,397	-0,077885	22,460000	56,525000
2,783966	0,063079	44,498	-0,077772	22,460000	56,525000
2,783944	-0,364459	44,605	-0,077951	22,460000	56,525000
2,783924	-0,063079	44,706	-0,077825	22,460000	56,525000
2,783940	-0,316565	44,808	-0,077931	22,460000	56,525000
2,783936	-0,031540	44,909	-0,077812	22,460000	56,525000
2,783964	-0,094619	45,016	-0,077838	22,460000	56,525000
2,783990	-0,117982	45,117	-0,077848	22,460000	56,525000
2,783964	0,238300	45,218	-0,077699	22,460000	56,525000
2,783927	-0,086442	45,318	-0,077835	22,460000	56,525000
2,783952	-0,117982	45,419	-0,077848	22,460000	56,525000
2,784041	0,016354	45,520	-0,077792	22,460000	56,525000
2,783951	-0,126159	45,620	-0,077852	22,460000	56,525000
2,783969	-0,126159	45,720	-0,077852	22,460000	56,525000
2,784941	0,799006	46,765	-0,077465	22,460000	56,525000
2,784973	0,989412	46,865	-0,077385	22,460000	56,525000
2,784921	0,846899	46,974	-0,077445	22,460000	56,525000
2,784973	0,973058	47,075	-0,077392	22,460000	56,525000
2,785013	1,060668	47,176	-0,077355	22,460000	56,525000
2,784969	1,171641	47,278	-0,077309	22,460000	56,525000
2,785016	0,909979	47,395	-0,077418	22,460000	56,525000
2,784935	0,664670	47,495	-0,077521	22,460000	56,525000
2,785000	0,957872	47,595	-0,077398	22,460000	56,525000
2,784962	0,553697	47,695	-0,077567	22,460000	56,525000
2,785043	1,020952	47,797	-0,077372	22,460000	56,525000
2,784971	1,155287	47,897	-0,077316	22,460000	56,525000
2,784930	0,863253	47,997	-0,077438	22,460000	56,525000
2,784989	0,973058	48,097	-0,077392	22,460000	56,525000
2,784942	0,870262	48,204	-0,077435	22,460000	56,525000
2,784983	0,926333	48,304	-0,077412	22,460000	56,525000
2,784995	0,712564	48,404	-0,077501	22,460000	56,525000
2,784916	0,704387	48,504	-0,077504	22,460000	56,525000
2,784957	0,815360	48,618	-0,077458	22,460000	56,525000
2,784989	0,561874	48,718	-0,077564	22,460000	56,525000
2,784942	0,981235	48,818	-0,077389	22,460000	56,525000
2,784980	0,593414	48,918	-0,077551	22,460000	56,525000
2,784978	0,949695	49,020	-0,077402	22,450000	56,525000
2,784932	0,759289	49,120	-0,077481	22,450000	56,525000
2,785004	0,791997	49,220	-0,077468	22,450000	56,525000
2,784966	1,005766	49,321	-0,077378	22,450000	56,525000
2,784933	0,767466	49,421	-0,077478	22,450000	56,525000
2,784989	0,617944	49,521	-0,077541	22,450000	56,525000
2,784937	0,570051	49,623	-0,077561	22,450000	56,525000
2,784927	0,886616	49,725	-0,077428	22,450000	56,525000
2,784934	0,783820	49,827	-0,077471	22,450000	56,525000
2,784924	0,901802	49,927	-0,077422	22,450000	56,525000
2,784979	0,744103	50,027	-0,077488	22,450000	56,525000
2,784973	0,791997	50,127	-0,077468	22,450000	56,525000
2,784946	0,791997	50,227	-0,077468	22,450000	56,525000
2,784963	1,012775	50,327	-0,077375	22,450000	56,525000
2,784967	0,815360	50,428	-0,077458	22,450000	56,525000
2,784962	0,767466	50,528	-0,077478	22,450000	56,525000
2,784980	0,624953	50,628	-0,077538	22,450000	56,525000
2,784990	0,973058	50,728	-0,077392	22,450000	56,525000
2,784927	0,886616	50,828	-0,077428	22,450000	56,525000
2,784988	0,664670	50,928	-0,077521	22,450000	56,525000
2,784991	0,863253	51,048	-0,077438	22,460000	56,510000
2,784879	0,846899	51,149	-0,077445	22,460000	56,510000
2,785018	0,601591	51,250	-0,077547	22,460000	56,510000
2,784944	0,609767	51,363	-0,077544	22,460000	56,510000
2,784947	0,893625	51,463	-0,077425	22,460000	56,510000
2,785035	0,759289	51,563	-0,077481	22,460000	56,510000
2,784969	1,084031	51,664	-0,077346	22,460000	56,510000
2,784948	0,823537	51,773	-0,077455	22,460000	56,510000
2,784971	0,688033	51,873	-0,077511	22,460000	56,510000
2,784970	0,846899	51,973	-0,077445	22,460000	56,510000
2,785003	1,060668	52,074	-0,077355	22,460000	56,510000
2,784956	0,387821	52,177	-0,077637	22,460000	56,510000
2,784990	0,681024	52,277	-0,077514	22,460000	56,510000
2,785020	0,957872	52,377	-0,077398	22,460000	56,510000
2,784898	0,863253	52,477	-0,077438	22,460000	56,510000
2,784948	0,823537	52,578	-0,077455	22,460000	56,510000
2,784961	0,681024	52,678	-0,077514	22,460000	56,510000
2,784950	0,973058	52,778	-0,077392	22,460000	56,510000
2,784979	0,926333	52,879	-0,077412	22,460000	56,510000
2,784932	0,870262	52,981	-0,077435	22,460000	56,510000
2,784903	0,838722	53,082	-0,077448	22,460000	56,510000
2,784908	0,823537	53,183	-0,077455	22,460000	56,510000
2,784948	0,633130	53,284	-0,077534	22,460000	56,510000
2,784983	0,744103	53,385	-0,077488	22,460000	56,510000
2,784905	0,672847	53,485	-0,077518	22,460000	56,510000
2,784957	1,258084	53,586	-0,077273	22,460000	56,510000
2,784969	0,712564	53,686	-0,077501	22,460000	56,510000
2,784985	0,989412	53,798	-0,077385	22,460000	56,510000
2,784950	0,989412	53,898	-0,077385	22,460000	56,510000
2,784972	0,681024	53,999	-0,077514	22,460000	56,510000
2,784934	0,886616	54,099	-0,077428	22,460000	56,510000
2,784952	0,601591	54,202	-0,077547	22,460000	56,510000
2,784965	1,147110	54,302	-0,077319	22,460000	56,510000
2,784995	0,863253	54,402	-0,077438	22,460000	56,510000
2,784967	0,918156	54,502	-0,077415	22,460000	56,510000
2,784981	1,044314	54,621	-0,077362	22,460000	56,510000
2,785010	1,131925	54,722	-0,077326	22,460000	56,510000
2,784980	0,966049	54,822	-0,077395	22,460000	56,510000
2,784916	0,863253	54,923	-0,077438	22,460000	56,510000
2,784966	1,012775	55,023	-0,077375	22,460000	56,540000
2,785010	0,831714	55,125	-0,077451	22,460000	56,540000
2,784982	0,893625	55,226	-0,077425	22,460000	56,540000
2,784942	0,901802	55,326	-0,077422	22,460000	56,540000
2,784924	1,100385	55,427	-0,077339	22,460000	56,540000
2,784968	0,886616	55,527	-0,077428	22,460000	56,540000
2,784957	0,712564	55,627	-0,077501	22,460000	56,540000
2,784971	0,957872	55,728	-0,077398	22,460000	56,540000
2,784988	1,052491	55,843	-0,077359	22,460000	56,540000
2,784979	0,893625	55,943	-0,077425	22,460000	56,540000
2,784978	0,649484	56,043	-0,077527	22,460000	56,540000
2,784997	0,815360	56,144	-0,077458	22,460000	56,540000
2,784986	0,664670	56,244	-0,077521	22,460000	56,540000
2,784935	0,538511	56,344	-0,077574	22,460000	56,540000
2,784984	0,570051	56,445	-0,077561	22,460000	56,540000
2,784994	1,100385	56,565	-0,077339	22,460000	56,540000
2,784979	0,846899	56,666	-0,077445	22,460000	56,540000
2,785006	0,585237	56,766	-0,077554	22,460000	56,540000
2,784954	0,609767	56,867	-0,077544	22,460000	56,540000
2,784983	1,242898	56,981	-0,077279	22,460000	56,540000
2,783960	-0,117982	58,019	-0,077848	22,460000	56,510000
2,784029	-0,260495	58,119	-0,077908	22,460000	56,510000
2,783903	-0,316565	58,225	-0,077931	22,460000	56,510000
2,783951	-0,245309	58,326	-0,077901	22,460000	56,510000
2,783983	-0,142513	58,427	-0,077858	22,460000	56,510000
2,783920	-0,181061	58,527	-0,077875	22,460000	56,510000
2,783949	-0,015186	58,635	-0,077805	22,460000	56,510000
2,783948	-0,174052	58,736	-0,077872	22,460000	56,510000
2,783965	-0,285025	58,838	-0,077918	22,460000	56,510000
2,783983	-0,348105	58,939	-0,077944	22,460000	56,510000
2,783939	-0,356282	59,040	-0,077948	22,460000	56,525000
2,784010	-0,394830	59,141	-0,077964	22,460000	56,525000
2,783939	-0,165875	59,241	-0,077868	22,460000	56,525000
2,783939	-0,189238	59,341	-0,077878	22,460000	56,525000
2,783943	-0,387821	59,461	-0,077961	22,460000	56,525000
2,783975	-0,292034	59,561	-0,077921	22,460000	56,525000
2,784000	-0,434547	59,661	-0,077980	22,460000	56,525000
2,783977	-0,450901	59,784	-0,077987	22,460000	56,525000
2,783947	-0,356282	59,884	-0,077948	22,460000	56,525000
2,783959	-0,505803	59,985	-0,078010	22,460000	56,525000
2,783966	-0,228955	60,086	-0,077895	22,460000	56,525000
2,783964	-0,371468	60,204	-0,077954	22,460000	56,525000
2,783891	-0,434547	60,305	-0,077980	22,460000	56,525000
2,783962	-0,561874	60,406	-0,078034	22,460000	56,525000
2,783952	-0,189238	60,507	-0,077878	22,460000	56,525000
2,783966	-0,545520	60,628	-0,078027	22,460000	56,525000
2,783985	-0,300211	60,729	-0,077924	22,460000	56,525000
2,783972	-0,189238	60,830	-0,077878	22,460000	56,525000
2,783960	-0,308388	60,931	-0,077928	22,460000	56,525000
2,784017	-0,165875	61,032	-0,077868	22,460000	56,525000
2,783933	-0,260495	61,133	-0,077908	22,460000	56,525000
2,783948	-0,633130	61,233	-0,078063	22,460000	56,525000
2,784007	-0,094619	61,334	-0,077838	22,460000	56,525000
2,783936	-0,498794	61,438	-0,078007	22,460000	56,525000
2,783947	-0,371468	61,538	-0,077954	22,460000	56,525000
2,783966	-0,593414	61,639	-0,078047	22,460000	56,525000
2,783920	-0,213769	61,739	-0,077888	22,460000	56,525000
2,783998	-0,331751	61,855	-0,077938	22,460000	56,525000
2,783932	-0,348105	61,956	-0,077944	22,460000	56,525000
2,783949	-0,403007	62,057	-0,077967	22,460000	56,525000
2,783968	-0,285025	62,175	-0,077918	22,460000	56,525000
2,783902	-0,538511	62,277	-0,078024	22,460000	56,525000
2,783998	-0,316565	62,378	-0,077931	22,460000	56,525000
2,783970	-0,260495	62,478	-0,077908	22,460000	56,525000
2,783975	-0,545520	62,578	-0,078027	22,460000	56,525000
2,783923	-0,165875	62,678	-0,077868	22,460000	56,525000
2,783957	-0,530334	62,779	-0,078021	22,460000	56,525000
2,783938	-0,450901	62,879	-0,077987	22,460000	56,525000
2,783982	-0,331751	62,979	-0,077938	22,460000	56,525000
2,783934	-0,545520	63,080	-0,078027	22,460000	56,510000
2,783945	-0,331751	63,180	-0,077938	22,460000	56,510000
2,783918	-0,466087	63,280	-0,077994	22,460000	56,510000
2,783955	-0,165875	63,384	-0,077868	22,460000	56,510000
2,783915	-0,142513	63,485	-0,077858	22,460000	56,510000
2,783932	-0,490618	63,585	-0,078004	22,460000	56,510000
2,784000	-0,071256	63,686	-0,077829	22,460000	56,510000
2,783945	-0,245309	63,787	-0,077901	22,460000	56,510000
2,784021	-0,292034	63,888	-0,077921	22,460000	56,510000
2,783953	-0,292034	63,990	-0,077921	22,460000	56,510000
2,783916	-0,466087	64,091	-0,077994	22,460000	56,510000
2,783962	-0,593414	64,205	-0,078047	22,460000	56,510000
2,783975	-0,237132	64,306	-0,077898	22,460000	56,510000
2,783996	-0,379645	64,407	-0,077958	22,460000	56,510000
2,783963	-0,205592	64,507	-0,077885	22,460000	56,510000
2,783980	-0,419361	64,630	-0,077974	22,460000	56,510000
2,783936	-0,205592	64,730	-0,077885	22,460000	56,510000
2,783981	-0,316565	64,831	-0,077931	22,460000	56,510000
2,783977	-0,490618	64,931	-0,078004	22,460000	56,510000
2,783985	-0,394830	65,039	-0,077964	22,460000	56,510000
2,783991	-0,364459	65,139	-0,077951	22,460000	56,510000
2,784019	-0,316565	65,240	-0,077931	22,460000	56,510000
2,783976	-0,505803	65,341	-0,078010	22,460000	56,510000
2,783967	-0,505803	65,441	-0,078010	22,460000	56,510000
2,783969	-0,339928	65,541	-0,077941	22,460000	56,510000
2,783956	-0,482441	65,641	-0,078000	22,460000	56,510000
2,783942	-0,411184	65,741	-0,077971	22,460000	56,510000
2,783927	-0,276848	65,842	-0,077915	22,460000	56,510000
2,783957	-0,505803	65,942	-0,078010	22,460000	56,510000
2,783974	-0,490618	66,043	-0,078004	22,460000	56,510000
2,783932	-0,268672	66,144	-0,077911	22,460000	56,510000
2,783986	-0,664670	66,269	-0,078077	22,460000	56,510000
2,784005	-0,442724	66,369	-0,077984	22,460000	56,510000
2,783993	-0,419361	66,469	-0,077974	22,460000	56,510000
2,783953	-0,300211	66,586	-0,077924	22,460000	56,510000
2,783976	0,039717	66,686	-0,077782	22,460000	56,510000
2,783989	0,008177	66,787	-0,077795	22,460000	56,510000
2,784026	-0,585237	66,888	-0,078043	22,460000	56,510000
2,783978	-0,593414	67,012	-0,078047	22,460000	56,525000
2,783937	-0,553697	67,112	-0,078030	22,460000	56,525000
2,783970	-0,505803	67,212	-0,078010	22,460000	56,525000
2,783941	-0,624953	67,312	-0,078060	22,460000	56,525000
2,783964	-0,530334	67,432	-0,078021	22,460000	56,525000
2,783991	-0,570051	67,532	-0,078037	22,460000	56,525000
2,783958	-0,608599	67,633	-0,078053	22,460000	56,525000
2,783991	-0,704387	67,734	-0,078093	22,460000	56,525000
2,783941	-0,608599	67,838	-0,078053	22,460000	56,525000
2,783999	-0,213769	67,938	-0,077888	22,460000	56,525000
2,783912	-0,482441	68,039	-0,078000	22,460000	56,525000
2,783981	-0,522157	68,139	-0,078017	22,460000	56,525000
2,783999	-0,331751	68,244	-0,077938	22,460000	56,525000
2,783973	-0,656493	68,345	-0,078073	22,460000	56,525000
2,784987	0,522157	69,380	-0,077581	22,460000	56,540000
2,784913	0,609767	69,481	-0,077544	22,460000	56,540000
2,784989	0,182229	69,583	-0,077723	22,460000	56,540000
2,784979	0,348105	69,684	-0,077653	22,460000	56,540000
2,784996	0,546688	69,795	-0,077570	22,460000	56,540000
2,784927	0,649484	69,896	-0,077527	22,460000	56,540000
2,784961	0,522157	69,997	-0,077581	22,460000	56,540000
2,784928	0,427538	70,097	-0,077620	22,460000	56,540000
2,784974	0,878439	70,197	-0,077432	22,460000	56,540000
2,785014	0,419361	70,298	-0,077624	22,460000	56,540000
2,784967	0,759289	70,398	-0,077481	22,460000	56,540000
2,784979	0,372636	70,499	-0,077643	22,460000	56,540000
2,784938	0,696210	70,619	-0,077508	22,460000	56,540000
2,784945	0,498794	70,719	-0,077590	22,460000	56,540000
2,784938	0,230123	70,819	-0,077703	22,460000	56,540000
2,785023	0,570051	70,920	-0,077561	22,460000	56,540000
2,784938	0,657661	71,037	-0,077524	22,460000	56,525000
2,784950	0,601591	71,138	-0,077547	22,460000	56,525000
2,784892	0,047894	71,239	-0,077779	22,460000	56,525000
2,784942	0,513980	71,339	-0,077584	22,460000	56,525000
2,785015	0,268672	71,439	-0,077687	22,460000	56,525000
2,784969	0,165875	71,539	-0,077729	22,460000	56,525000
2,784974	0,482441	71,639	-0,077597	22,460000	56,525000
2,785009	0,443892	71,739	-0,077613	22,460000	56,525000
2,785003	0,443892	71,847	-0,077613	22,460000	56,525000
2,784942	0,245309	71,947	-0,077696	22,460000	56,525000
2,784977	0,498794	72,048	-0,077590	22,460000	56,525000
2,785008	0,387821	72,148	-0,077637	22,460000	56,525000
2,784968	0,165875	72,248	-0,077729	22,460000	56,525000
2,784988	0,404175	72,349	-0,077630	22,460000	56,525000
2,784983	0,467255	72,449	-0,077604	22,460000	56,525000
2,784952	0,427538	72,549	-0,077620	22,460000	56,525000
2,785053	0,427538	72,650	-0,077620	22,460000	56,525000
2,784905	0,404175	72,751	-0,077630	22,460000	56,525000
2,784948	0,767466	72,852	-0,077478	22,460000	56,525000
2,784986	0,617944	72,953	-0,077541	22,460000	56,525000
2,784983	0,624953	73,078	-0,077538	22,460000	56,525000
2,785004	0,641307	73,178	-0,077531	22,460000	56,525000
2,784973	0,253486	73,278	-0,077693	22,460000	56,525000
2,785000	0,815360	73,397	-0,077458	22,460000	56,525000
2,784969	0,522157	73,497	-0,077581	22,460000	56,525000
2,784918	0,364459	73,597	-0,077646	22,460000	56,525000
2,784967	0,664670	73,697	-0,077521	22,460000	56,525000
2,784968	0,522157	73,800	-0,077581	22,460000	56,525000
2,784943	0,443892	73,901	-0,077613	22,460000	56,525000
2,784938	0,657661	74,001	-0,077524	22,460000	56,525000
2,784968	0,672847	74,101	-0,077518	22,460000	56,525000
2,784971	0,102796	74,225	-0,077756	22,460000	56,525000
2,784972	0,348105	74,326	-0,077653	22,460000	56,525000
2,784902	0,039717	74,427	-0,077782	22,460000	56,525000
2,784987	0,546688	74,527	-0,077570	22,460000	56,525000
2,784915	0,268672	74,637	-0,077687	22,460000	56,525000
2,784956	0,404175	74,737	-0,077630	22,460000	56,525000
2,784947	0,174052	74,837	-0,077726	22,460000	56,525000
2,784945	0,332919	74,937	-0,077660	22,460000	56,525000
2,784905	0,230123	75,044	-0,077703	22,460000	56,510000
2,784976	0,530334	75,144	-0,077577	22,460000	56,510000
2,784936	0,633130	75,245	-0,077534	22,460000	56,510000
2,784965	0,079433	75,346	-0,077766	22,460000	56,510000
2,784942	0,633130	75,467	-0,077534	22,460000	56,510000
2,784938	0,459078	75,567	-0,077607	22,460000	56,510000
2,784968	0,704387	75,667	-0,077504	22,460000	56,510000
2,784910	0,688033	75,795	-0,077511	22,460000	56,510000
2,784912	0,482441	75,896	-0,077597	22,460000	56,510000
2,784987	0,578228	75,996	-0,077557	22,460000	56,510000
2,784941	0,419361	76,097	-0,077624	22,460000	56,510000
2,784933	0,578228	76,201	-0,077557	22,460000	56,510000
2,784906	0,641307	76,301	-0,077531	22,460000	56,510000
2,784971	0,230123	76,401	-0,077703	22,460000	56,510000
2,784978	0,664670	76,501	-0,077521	22,460000	56,510000
2,784927	0,293202	76,604	-0,077676	22,460000	56,510000
2,784943	0,561874	76,705	-0,077564	22,460000	56,510000
2,784965	0,530334	76,806	-0,077577	22,460000	56,510000
2,784961	0,316565	76,908	-0,077667	22,460000	56,510000
2,784921	0,506971	77,037	-0,077587	22,460000	56,525000
2,785029	0,261663	77,137	-0,077689	22,460000	56,525000
2,784959	0,150690	77,237	-0,077736	22,460000	56,525000
2,784959	0,546688	77,337	-0,077570	22,460000	56,525000
2,784959	0,301379	77,448	-0,077673	22,460000	56,525000
2,784964	0,617944	77,548	-0,077541	22,460000	56,525000
2,784974	0,276848	77,649	-0,077683	22,460000	56,525000
2,784967	0,379645	77,749	-0,077640	22,460000	56,525000
2,784944	0,490618	77,854	-0,077594	22,460000	56,525000
2,784914	0,513980	77,954	-0,077584	22,460000	56,525000
2,785014	0,379645	78,056	-0,077640	22,460000	56,525000
2,784970	0,593414	78,158	-0,077551	22,460000	56,525000
2,784939	0,467255	78,280	-0,077604	22,460000	56,525000
2,784923	0,268672	78,381	-0,077687	22,460000	56,525000
2,784972	0,165875	78,481	-0,077729	22,460000	56,525000
2,784923	0,238300	78,598	-0,077699	22,460000	56,525000
2,784938	0,348105	78,698	-0,077653	22,460000	56,525000
2,784949	0,110973	78,798	-0,077752	22,460000	56,525000
2,784965	0,419361	78,898	-0,077624	22,460000	56,525000
2,784962	0,775643	79,025	-0,077475	22,470000	56,525000
2,785037	0,339928	79,126	-0,077657	22,470000	56,525000
2,784945	0,482441	79,226	-0,077597	22,470000	56,525000
2,784957	0,404175	79,327	-0,077630	22,470000	56,525000
2,784980	0,387821	79,429	-0,077637	22,470000	56,525000
2,784990	0,775643	79,530	-0,077475	22,470000	56,525000
2,785009	0,427538	79,631	-0,077620	22,470000	56,525000
2,784951	0,253486	79,731	-0,077693	22,470000	56,525000
2,783995	-0,371468	80,779	-0,077954	22,470000	56,525000
2,783943	-0,513980	80,879	-0,078014	22,470000	56,525000
2,783977	-0,925164	81,007	-0,078186	22,460000	56,525000
2,783936	-0,570051	81,108	-0,078037	22,460000	56,525000
2,783937	-0,790829	81,208	-0,078129	22,460000	56,525000
2,783989	-0,442724	81,308	-0,077984	22,460000	56,525000
2,783947	-0,561874	81,439	-0,078034	22,460000	56,525000
2,783949	-0,285025	81,540	-0,077918	22,460000	56,525000
2,783928	-0,570051	81,640	-0,078037	22,460000	56,525000
2,783981	-0,577060	81,740	-0,078040	22,460000	56,525000
2,783972	-0,394830	81,859	-0,077964	22,460000	56,525000
2,783976	-0,570051	81,959	-0,078037	22,460000	56,525000
2,783990	-0,379645	82,061	-0,077958	22,460000	56,525000
2,783991	-0,482441	82,161	-0,078000	22,460000	56,525000
2,783929	-0,783820	82,284	-0,078126	22,460000	56,525000
2,783981	-0,285025	82,386	-0,077918	22,460000	56,525000
2,784009	-0,023363	82,487	-0,077809	22,460000	56,525000
2,783974	-0,482441	82,604	-0,078000	22,460000	56,525000
2,784002	-0,505803	82,704	-0,078010	22,460000	56,525000
2,783942	-0,324742	82,806	-0,077935	22,460000	56,525000
2,783975	-0,656493	82,906	-0,078073	22,460000	56,525000
2,783973	-0,426370	83,031	-0,077977	22,460000	56,525000
2,783934	-0,696210	83,133	-0,078090	22,460000	56,525000
2,783948	-0,490618	83,233	-0,078004	22,460000	56,525000
2,783960	-0,585237	83,333	-0,078043	22,460000	56,525000
2,783934	-0,276848	83,453	-0,077915	22,460000	56,525000
2,783938	-0,348105	83,553	-0,077944	22,460000	56,525000
2,783957	-0,364459	83,654	-0,077951	22,460000	56,525000
2,783935	-0,490618	83,756	-0,078004	22,460000	56,525000
2,784023	-0,165875	83,887	-0,077868	22,460000	56,525000
2,783922	-0,545520	83,987	-0,078027	22,460000	56,525000
2,783973	-0,276848	84,087	-0,077915	22,460000	56,525000
2,783977	-0,039717	84,206	-0,077815	22,460000	56,525000
2,783982	-0,260495	84,306	-0,077908	22,460000	56,525000
2,783977	-0,339928	84,407	-0,077941	22,460000	56,525000
2,783995	-0,577060	84,508	-0,078040	22,460000	56,525000
2,783965	-0,220778	84,636	-0,077891	22,460000	56,525000
2,784004	-0,459078	84,737	-0,077991	22,460000	56,525000
2,783970	-0,513980	84,837	-0,078014	22,460000	56,525000
2,783995	-0,577060	84,938	-0,078040	22,460000	56,525000
2,783994	-0,585237	85,038	-0,078043	22,460000	56,525000
2,783929	-0,538511	85,138	-0,078024	22,460000	56,525000
2,783954	-0,585237	85,238	-0,078043	22,460000	56,525000
2,784001	-0,538511	85,339	-0,078024	22,460000	56,525000
2,783946	-1,012775	85,452	-0,078222	22,460000	56,525000
2,783976	-0,633130	85,553	-0,078063	22,460000	56,525000
2,784002	-0,364459	85,654	-0,077951	22,460000	56,525000
2,783975	-0,426370	85,754	-0,077977	22,460000	56,525000
2,783986	-0,411184	85,857	-0,077971	22,460000	56,525000
2,783971	-0,474264	85,957	-0,077997	22,460000	56,525000
2,783971	-0,679856	86,058	-0,078083	22,460000	56,525000
2,783958	-0,522157	86,158	-0,078017	22,460000	56,525000
2,783984	-0,593414	86,268	-0,078047	22,460000	56,525000
2,784022	-0,664670	86,369	-0,078077	22,460000	56,525000
2,783992	-0,181061	86,469	-0,077875	22,460000	56,525000
2,783975	-0,640139	86,569	-0,078066	22,460000	56,525000
2,783997	-0,862085	86,670	-0,078159	22,460000	56,525000
2,784034	-0,237132	86,770	-0,077898	22,460000	56,525000
2,783987	-0,482441	86,870	-0,078000	22,460000	56,525000
2,783930	-0,656493	86,971	-0,078073	22,460000	56,525000
2,783975	-0,434547	87,088	-0,077980	22,460000	56,510000
2,783949	-0,648316	87,188	-0,078070	22,460000	56,510000
2,783974	-0,538511	87,288	-0,078024	22,460000	56,510000
2,783964	-0,664670	87,409	-0,078077	22,460000	56,510000
2,783978	-0,815360	87,509	-0,078140	22,460000	56,510000
2,783924	-0,704387	87,609	-0,078093	22,460000	56,510000
2,783966	-0,593414	87,710	-0,078047	22,460000	56,510000
2,783929	-0,379645	87,837	-0,077958	22,460000	56,510000
2,783963	-0,434547	87,937	-0,077980	22,460000	56,510000
2,783977	-0,339928	88,037	-0,077941	22,460000	56,510000
2,783981	-0,656493	88,137	-0,078073	22,460000	56,510000
2,783985	-0,419361	88,256	-0,077974	22,460000	56,510000
2,783972	-0,561874	88,357	-0,078034	22,460000	56,510000
2,783955	-0,704387	88,457	-0,078093	22,460000	56,510000
2,783976	-0,570051	88,558	-0,078037	22,460000	56,510000
2,783993	-0,442724	88,665	-0,077984	22,460000	56,510000
2,783961	-0,815360	88,766	-0,078140	22,460000	56,510000
2,783990	-0,364459	88,866	-0,077951	22,460000	56,510000
2,783982	0,063079	88,994	-0,077772	22,460000	56,510000
2,783951	-0,364459	89,096	-0,077951	22,460000	56,510000
2,784028	-0,220778	89,197	-0,077891	22,460000	56,510000
2,783942	-0,981235	89,298	-0,078209	22,460000	56,510000
2,783999	-0,624953	89,413	-0,078060	22,460000	56,510000
2,783971	-0,727749	89,513	-0,078103	22,460000	56,510000
2,783951	-0,845731	89,613	-0,078152	22,460000	56,510000
2,783974	-0,679856	89,713	-0,078083	22,460000	56,510000
2,784031	-0,853908	89,835	-0,078156	22,460000	56,510000
2,783965	-0,530334	89,936	-0,078021	22,460000	56,510000
2,783926	-0,624953	90,037	-0,078060	22,460000	56,510000
2,783909	-0,585237	90,138	-0,078043	22,460000	56,510000
2,783951	-0,482441	90,268	-0,078000	22,460000	56,510000
2,783973	-0,838722	90,368	-0,078149	22,460000	56,510000
2,783918	-0,656493	90,468	-0,078073	22,460000	56,510000
2,784004	-1,115571	90,568	-0,078265	22,460000	56,510000
2,783970	-0,300211	90,689	-0,077924	22,460000	56,510000
2,783941	-0,679856	90,790	-0,078083	22,460000	56,510000
2,783993	-0,419361	90,890	-0,077974	22,460000	56,510000
2,783927	-0,419361	91,018	-0,077974	22,460000	56,525000
2,783961	-0,633130	91,119	-0,078063	22,460000	56,525000
2,783964	-0,711395	91,219	-0,078096	22,460000	56,525000
2,783940	-0,522157	91,269	-0,078017	22,460000	56,525000