File: Nanoindentation Datenauswertung/data/MEMS Resolution Test/MEMS step test,1nm,10Hz-2
Quasi static measurement routine
Tip parameters (shape,radius, material...)
17.08.2022

Piezo position[nm]	MEMS displ.[nm]	Time[ms]	Cap [pf]	Temp [°C]	Rh [%]
eoh
2,783926	0,071256	0,220	-0,070796	22,460000	56,795000
2,784968	1,060668	2,220	-0,070383	22,460000	56,780000
2,784904	1,067677	2,321	-0,070380	22,460000	56,780000
2,784950	1,637728	2,421	-0,070142	22,460000	56,780000
2,784945	0,648316	2,522	-0,070555	22,460000	56,780000
2,784886	1,029129	2,622	-0,070396	22,460000	56,780000
2,784933	0,862085	2,722	-0,070466	22,460000	56,780000
2,784880	1,321163	2,823	-0,070274	22,460000	56,780000
2,784936	0,790829	2,924	-0,070496	22,460000	56,780000
2,784948	0,901802	3,025	-0,070449	22,460000	56,780000
2,784923	1,186827	3,125	-0,070330	22,460000	56,780000
2,784926	0,996421	3,226	-0,070410	22,460000	56,780000
2,784951	0,909979	3,326	-0,070446	22,460000	56,780000
2,784974	0,933341	3,426	-0,070436	22,460000	56,780000
2,784901	0,996421	3,527	-0,070410	22,460000	56,780000
2,784971	0,941518	3,627	-0,070433	22,460000	56,780000
2,784969	1,091040	3,727	-0,070370	22,460000	56,780000
2,784940	1,455499	3,827	-0,070218	22,460000	56,780000
2,784955	0,601591	3,929	-0,070575	22,460000	56,780000
2,784885	1,107394	4,030	-0,070363	22,460000	56,780000
2,784920	1,186827	4,130	-0,070330	22,460000	56,780000
2,784938	0,735926	4,231	-0,070519	22,460000	56,780000
2,784930	1,044314	4,331	-0,070390	22,460000	56,780000
2,784948	1,360880	4,431	-0,070257	22,460000	56,780000
2,784943	0,775643	4,531	-0,070502	22,460000	56,780000
2,784962	0,885448	4,632	-0,070456	22,460000	56,780000
2,784893	0,790829	4,732	-0,070496	22,460000	56,780000
2,784950	0,916988	4,833	-0,070443	22,460000	56,780000
2,784931	0,901802	4,933	-0,070449	22,460000	56,780000
2,784937	1,084031	5,033	-0,070373	22,460000	56,780000
2,784939	0,925164	5,134	-0,070439	22,460000	56,780000
2,784935	0,933341	5,235	-0,070436	22,460000	56,780000
2,784949	0,878439	5,336	-0,070459	22,460000	56,780000
2,784873	0,870262	5,437	-0,070462	22,460000	56,780000
2,784925	1,004598	5,538	-0,070406	22,460000	56,780000
2,784940	1,130757	5,640	-0,070354	22,460000	56,780000
2,784946	0,885448	5,740	-0,070456	22,460000	56,780000
2,784924	0,941518	5,840	-0,070433	22,460000	56,780000
2,784894	0,885448	5,940	-0,070456	22,470000	56,795000
2,784913	1,107394	6,042	-0,070363	22,470000	56,795000
2,785000	0,964881	6,143	-0,070423	22,470000	56,795000
2,784930	0,855076	6,245	-0,070469	22,470000	56,795000
2,784901	0,633130	6,346	-0,070562	22,470000	56,795000
2,784944	0,735926	6,460	-0,070519	22,470000	56,795000
2,784964	0,744103	6,571	-0,070515	22,470000	56,795000
2,784926	0,379645	6,671	-0,070667	22,470000	56,795000
2,784980	0,671679	6,771	-0,070545	22,470000	56,795000
2,784908	0,744103	6,871	-0,070515	22,470000	56,795000
2,784935	0,577060	6,972	-0,070585	22,470000	56,795000
2,784940	0,807183	7,072	-0,070489	22,470000	56,795000
2,784967	0,830545	7,172	-0,070479	22,470000	56,795000
2,784972	0,624953	7,273	-0,070565	22,470000	56,795000
2,784914	1,044314	7,374	-0,070390	22,470000	56,795000
2,784923	0,751112	7,474	-0,070512	22,470000	56,795000
2,784957	0,878439	7,574	-0,070459	22,470000	56,795000
2,784966	0,799006	7,675	-0,070492	22,470000	56,795000
2,784922	0,846899	7,775	-0,070472	22,470000	56,795000
2,784964	0,751112	7,875	-0,070512	22,470000	56,795000
2,784954	0,901802	7,976	-0,070449	22,470000	56,755000
2,784951	0,941518	8,076	-0,070433	22,470000	56,755000
2,784972	0,570051	8,176	-0,070588	22,470000	56,755000
2,784922	0,893625	8,277	-0,070453	22,470000	56,755000
2,784940	0,585237	8,377	-0,070582	22,470000	56,755000
2,784925	0,704387	8,479	-0,070532	22,470000	56,755000
2,784941	0,799006	8,579	-0,070492	22,470000	56,755000
2,784976	1,036137	8,679	-0,070393	22,470000	56,755000
2,784942	0,767466	8,780	-0,070505	22,470000	56,755000
2,784990	1,266260	8,880	-0,070297	22,470000	56,755000
2,784926	0,704387	8,981	-0,070532	22,470000	56,755000
2,784990	1,099217	9,082	-0,070367	22,470000	56,755000
2,784926	0,989412	9,183	-0,070413	22,470000	56,755000
2,784955	0,964881	9,283	-0,070423	22,470000	56,755000
2,784896	0,782652	9,385	-0,070499	22,470000	56,755000
2,784969	0,901802	9,485	-0,070449	22,470000	56,755000
2,784936	1,029129	9,585	-0,070396	22,470000	56,755000
2,784954	0,601591	9,685	-0,070575	22,470000	56,755000
2,784925	0,664670	9,785	-0,070548	22,470000	56,755000
2,784907	0,553697	9,885	-0,070595	22,470000	56,755000
2,784948	0,941518	9,986	-0,070433	22,460000	56,740000
2,784931	0,775643	10,087	-0,070502	22,460000	56,740000
2,784942	0,807183	10,187	-0,070489	22,460000	56,740000
2,784922	0,885448	10,288	-0,070456	22,460000	56,740000
2,784916	0,885448	10,388	-0,070456	22,460000	56,740000
2,784950	0,553697	10,489	-0,070595	22,460000	56,740000
2,784952	0,671679	10,589	-0,070545	22,460000	56,740000
2,784953	0,570051	10,689	-0,070588	22,460000	56,740000
2,784952	1,060668	10,790	-0,070383	22,460000	56,740000
2,784895	0,671679	10,891	-0,070545	22,460000	56,740000
2,784936	0,775643	10,991	-0,070502	22,460000	56,740000
2,784918	0,719572	11,092	-0,070525	22,460000	56,740000
2,784902	0,727749	11,193	-0,070522	22,460000	56,740000
2,784906	0,616776	11,293	-0,070568	22,460000	56,740000
2,784951	0,996421	11,394	-0,070410	22,460000	56,740000
2,784915	0,807183	11,494	-0,070489	22,460000	56,740000
2,784963	1,004598	11,595	-0,070406	22,460000	56,740000
2,784906	0,933341	11,695	-0,070436	22,460000	56,740000
2,784936	0,862085	11,796	-0,070466	22,460000	56,740000
2,784958	1,241730	11,896	-0,070307	22,460000	56,740000
2,784920	0,744103	11,997	-0,070515	22,460000	56,755000
2,784933	1,060668	12,099	-0,070383	22,460000	56,755000
2,784966	0,956704	12,200	-0,070426	22,460000	56,755000
2,784970	1,099217	12,301	-0,070367	22,460000	56,755000
2,783960	-0,513980	13,332	-0,071041	22,460000	56,755000
2,783937	0,086442	13,433	-0,070790	22,460000	56,755000
2,783952	-0,285025	13,533	-0,070945	22,460000	56,755000
2,783925	-0,197415	13,634	-0,070909	22,460000	56,755000
2,783914	-0,285025	13,734	-0,070945	22,460000	56,755000
2,783942	-0,268672	13,834	-0,070938	22,460000	56,755000
2,783933	-0,158867	13,934	-0,070893	22,460000	56,770000
2,783889	-0,142513	14,035	-0,070886	22,460000	56,770000
2,783996	-0,276848	14,136	-0,070942	22,460000	56,770000
2,783895	-0,190406	14,236	-0,070906	22,460000	56,770000
2,783877	-0,071256	14,336	-0,070856	22,460000	56,770000
2,783930	-0,158867	14,436	-0,070893	22,460000	56,770000
2,783924	-0,213769	14,537	-0,070916	22,460000	56,770000
2,783984	0,063079	14,638	-0,070800	22,460000	56,770000
2,783990	-0,213769	14,738	-0,070916	22,460000	56,770000
2,783932	-0,427538	14,840	-0,071005	22,460000	56,770000
2,783913	-0,411184	14,941	-0,070998	22,460000	56,770000
2,783921	-0,578228	15,042	-0,071068	22,460000	56,770000
2,783948	-0,482441	15,151	-0,071028	22,460000	56,770000
2,783949	-0,268672	15,252	-0,070938	22,460000	56,770000
2,783954	-0,450901	15,352	-0,071015	22,460000	56,770000
2,783976	-0,205592	15,452	-0,070912	22,460000	56,770000
2,783948	-0,221946	15,552	-0,070919	22,460000	56,770000
2,783907	-0,341096	15,653	-0,070969	22,460000	56,770000
2,783935	-0,119150	15,753	-0,070876	22,460000	56,770000
2,783908	-0,127327	15,854	-0,070879	22,460000	56,770000
2,783953	-0,624953	15,955	-0,071087	22,460000	56,755000
2,783917	0,023363	16,055	-0,070816	22,460000	56,755000
2,783902	-0,641307	16,156	-0,071094	22,460000	56,755000
2,783973	-0,356282	16,257	-0,070975	22,460000	56,755000
2,783979	0,000000	16,358	-0,070826	22,460000	56,755000
2,783949	-0,134336	16,459	-0,070882	22,460000	56,755000
2,783950	-0,245309	16,560	-0,070929	22,460000	56,755000
2,783941	-0,087610	16,660	-0,070863	22,460000	56,755000
2,783962	-0,031540	16,760	-0,070839	22,460000	56,755000
2,783931	-0,237132	16,861	-0,070925	22,460000	56,755000
2,783967	-0,213769	16,962	-0,070916	22,460000	56,755000
2,783917	-0,158867	17,062	-0,070893	22,460000	56,755000
2,783976	-0,435715	17,162	-0,071008	22,460000	56,755000
2,783894	0,086442	17,263	-0,070790	22,460000	56,755000
2,783935	-0,221946	17,363	-0,070919	22,460000	56,755000
2,783952	-0,553697	17,464	-0,071058	22,460000	56,755000
2,783986	-0,308388	17,565	-0,070955	22,460000	56,755000
2,784022	-0,230123	17,666	-0,070922	22,460000	56,755000
2,783932	-0,783820	17,767	-0,071154	22,460000	56,755000
2,783980	-0,174052	17,867	-0,070899	22,460000	56,755000
2,783916	-0,293202	17,968	-0,070949	22,460000	56,755000
2,783948	-0,450901	18,069	-0,071015	22,460000	56,755000
2,783888	-0,395998	18,169	-0,070992	22,460000	56,755000
2,783931	-0,356282	18,270	-0,070975	22,460000	56,755000
2,783956	-0,268672	18,370	-0,070938	22,460000	56,755000
2,783971	-0,308388	18,470	-0,070955	22,460000	56,755000
2,783966	-0,356282	18,570	-0,070975	22,460000	56,755000
2,783930	-0,411184	18,670	-0,070998	22,460000	56,755000
2,783898	-0,245309	18,772	-0,070929	22,460000	56,755000
2,783977	-0,094619	18,873	-0,070866	22,460000	56,755000
2,783926	-0,276848	18,974	-0,070942	22,460000	56,755000
2,783955	-0,087610	19,074	-0,070863	22,460000	56,755000
2,784007	-0,341096	19,175	-0,070969	22,460000	56,755000
2,783896	-0,016354	19,276	-0,070833	22,460000	56,755000
2,783918	-0,395998	19,377	-0,070992	22,460000	56,755000
2,783902	-0,356282	19,477	-0,070975	22,460000	56,755000
2,783927	-0,127327	19,577	-0,070879	22,460000	56,755000
2,783981	-0,071256	19,679	-0,070856	22,460000	56,755000
2,783910	-0,308388	19,780	-0,070955	22,460000	56,755000
2,783946	-0,276848	19,880	-0,070942	22,460000	56,755000
2,783907	-0,561874	19,980	-0,071061	22,460000	56,740000
2,783913	-0,230123	20,082	-0,070922	22,460000	56,740000
2,783930	-0,182229	20,183	-0,070902	22,460000	56,740000
2,783908	-0,253486	20,283	-0,070932	22,460000	56,740000
2,783965	0,039717	20,383	-0,070810	22,460000	56,740000
2,783902	-0,293202	20,483	-0,070949	22,460000	56,740000
2,783960	-0,127327	20,585	-0,070879	22,460000	56,740000
2,783956	-0,442724	20,687	-0,071011	22,460000	56,740000
2,783926	-0,261663	20,789	-0,070936	22,460000	56,740000
2,783907	-0,316565	20,889	-0,070958	22,460000	56,740000
2,783907	0,031540	20,989	-0,070813	22,460000	56,740000
2,783956	-0,498794	21,090	-0,071035	22,460000	56,740000
2,783982	-0,102796	21,190	-0,070869	22,460000	56,740000
2,783939	-0,553697	21,290	-0,071058	22,460000	56,740000
2,783945	-0,419361	21,392	-0,071001	22,460000	56,740000
2,783938	-0,450901	21,492	-0,071015	22,460000	56,740000
2,783906	-0,395998	21,592	-0,070992	22,460000	56,740000
2,783868	-0,245309	21,694	-0,070929	22,460000	56,740000
2,783929	-0,450901	21,794	-0,071015	22,460000	56,740000
2,783912	-0,435715	21,896	-0,071008	22,460000	56,740000
2,783988	-0,435715	21,996	-0,071008	22,460000	56,740000
2,783955	-0,435715	22,096	-0,071008	22,460000	56,740000
2,783930	-0,308388	22,198	-0,070955	22,460000	56,740000
2,783973	-0,720741	22,300	-0,071127	22,460000	56,740000
2,783909	-0,633130	22,400	-0,071091	22,460000	56,740000
2,783946	-0,348105	22,500	-0,070972	22,460000	56,740000
2,783907	-0,127327	22,600	-0,070879	22,460000	56,740000
2,783961	-0,546688	22,700	-0,071055	22,460000	56,740000
2,783974	-0,301379	22,800	-0,070952	22,460000	56,740000
2,783908	-0,316565	22,901	-0,070958	22,460000	56,740000
2,783912	-0,285025	23,002	-0,070945	22,460000	56,740000
2,783921	-0,102796	23,103	-0,070869	22,460000	56,740000
2,783961	-0,624953	23,204	-0,071087	22,460000	56,740000
2,783879	-0,838722	23,306	-0,071177	22,460000	56,740000
2,783928	-0,372636	23,406	-0,070982	22,460000	56,740000
2,784926	0,688033	24,442	-0,070539	22,460000	56,740000
2,784953	0,601591	24,542	-0,070575	22,460000	56,740000
2,784961	0,411184	24,643	-0,070654	22,460000	56,740000
2,784962	0,807183	24,743	-0,070489	22,460000	56,740000
2,784920	0,790829	24,845	-0,070496	22,460000	56,740000
2,784912	0,624953	24,945	-0,070565	22,460000	56,740000
2,784937	0,679856	25,046	-0,070542	22,460000	56,740000
2,784904	1,052491	25,148	-0,070386	22,460000	56,740000
2,784958	0,664670	25,248	-0,070548	22,460000	56,740000
2,784949	0,593414	25,348	-0,070578	22,460000	56,740000
2,784927	0,870262	25,450	-0,070462	22,460000	56,740000
2,784915	0,537343	25,551	-0,070602	22,460000	56,740000
2,784914	0,497626	25,651	-0,070618	22,460000	56,740000
2,784917	0,696210	25,752	-0,070535	22,460000	56,740000
2,784901	0,577060	25,853	-0,070585	22,460000	56,740000
2,784981	0,308388	25,954	-0,070697	22,460000	56,770000
2,784940	0,941518	26,054	-0,070433	22,460000	56,770000
2,785022	0,513980	26,154	-0,070611	22,460000	56,770000
2,784911	0,688033	26,254	-0,070539	22,460000	56,770000
2,784996	0,704387	26,355	-0,070532	22,460000	56,770000
2,784944	0,799006	26,457	-0,070492	22,460000	56,770000
2,784979	0,633130	26,558	-0,070562	22,460000	56,770000
2,784917	0,641307	26,659	-0,070558	22,460000	56,770000
2,784910	0,696210	26,762	-0,070535	22,460000	56,770000
2,784895	0,419361	26,863	-0,070651	22,460000	56,770000
2,784913	0,624953	26,964	-0,070565	22,460000	56,770000
2,784933	0,767466	27,064	-0,070505	22,460000	56,770000
2,784908	0,522157	27,165	-0,070608	22,460000	56,770000
2,784938	0,379645	27,267	-0,070667	22,460000	56,770000
2,784902	0,411184	27,367	-0,070654	22,460000	56,770000
2,784932	0,790829	27,468	-0,070496	22,460000	56,770000
2,784944	0,744103	27,569	-0,070515	22,460000	56,770000
2,784934	0,885448	27,671	-0,070456	22,460000	56,770000
2,784951	0,696210	27,771	-0,070535	22,460000	56,770000
2,785006	0,324742	27,872	-0,070690	22,460000	56,770000
2,784936	0,505803	27,972	-0,070615	22,460000	56,740000
2,784929	0,933341	28,073	-0,070436	22,460000	56,740000
2,784883	0,782652	28,173	-0,070499	22,460000	56,740000
2,784944	0,885448	28,273	-0,070456	22,460000	56,740000
2,784934	0,435715	28,373	-0,070644	22,460000	56,740000
2,784876	1,337517	28,473	-0,070267	22,460000	56,740000
2,784961	0,570051	28,573	-0,070588	22,460000	56,740000
2,784929	0,989412	28,673	-0,070413	22,460000	56,740000
2,784922	0,973058	28,774	-0,070419	22,460000	56,740000
2,784980	0,601591	28,883	-0,070575	22,460000	56,740000
2,784899	0,782652	28,983	-0,070499	22,460000	56,740000
2,784898	0,949695	29,083	-0,070429	22,460000	56,740000
2,784895	0,838722	29,183	-0,070476	22,460000	56,740000
2,784929	0,799006	29,283	-0,070492	22,460000	56,740000
2,784952	0,593414	29,383	-0,070578	22,460000	56,740000
2,784938	0,537343	29,484	-0,070602	22,460000	56,740000
2,784929	0,648316	29,585	-0,070555	22,460000	56,740000
2,784921	0,656493	29,685	-0,070552	22,460000	56,740000
2,784924	0,751112	29,788	-0,070512	22,460000	56,740000
2,784904	0,893625	29,889	-0,070453	22,460000	56,740000
2,784971	0,577060	29,991	-0,070585	22,460000	56,730000
2,784994	0,790829	30,091	-0,070496	22,460000	56,730000
2,784914	0,570051	30,193	-0,070588	22,460000	56,730000
2,784995	0,537343	30,294	-0,070602	22,460000	56,730000
2,784910	0,570051	30,394	-0,070588	22,460000	56,730000
2,784916	0,916988	30,495	-0,070443	22,460000	56,730000
2,784995	0,260495	30,595	-0,070717	22,460000	56,730000
2,784920	0,711395	30,696	-0,070529	22,460000	56,730000
2,784927	0,316565	30,797	-0,070694	22,460000	56,730000
2,784908	0,815360	30,898	-0,070485	22,460000	56,730000
2,784959	0,530334	31,000	-0,070604	22,460000	56,730000
2,784891	0,719572	31,100	-0,070525	22,460000	56,730000
2,784930	0,466087	31,200	-0,070631	22,460000	56,730000
2,784903	0,497626	31,300	-0,070618	22,460000	56,730000
2,784967	0,735926	31,401	-0,070519	22,460000	56,730000
2,784948	0,679856	31,501	-0,070542	22,460000	56,730000
2,784956	0,561874	31,601	-0,070591	22,460000	56,730000
2,784974	0,442724	31,701	-0,070641	22,460000	56,730000
2,784915	0,704387	31,801	-0,070532	22,460000	56,730000
2,784939	0,411184	31,902	-0,070654	22,460000	56,730000
2,784996	0,925164	32,002	-0,070439	22,460000	56,730000
2,784955	0,505803	32,102	-0,070615	22,460000	56,730000
2,784903	0,925164	32,203	-0,070439	22,460000	56,730000
2,784902	0,744103	32,304	-0,070515	22,460000	56,730000
2,784936	0,442724	32,404	-0,070641	22,460000	56,730000
2,784930	0,276848	32,504	-0,070710	22,460000	56,730000
2,784925	0,260495	32,605	-0,070717	22,460000	56,730000
2,784958	0,260495	32,707	-0,070717	22,460000	56,730000
2,784950	0,601591	32,807	-0,070575	22,460000	56,730000
2,784887	0,585237	32,908	-0,070582	22,460000	56,730000
2,784927	0,799006	33,010	-0,070492	22,460000	56,730000
2,784940	0,696210	33,110	-0,070535	22,460000	56,730000
2,784965	0,237132	33,210	-0,070727	22,460000	56,730000
2,784936	0,545520	33,314	-0,070598	22,460000	56,730000
2,784915	0,711395	33,414	-0,070529	22,460000	56,730000
2,784921	0,427538	33,515	-0,070647	22,460000	56,730000
2,784932	0,285025	33,616	-0,070707	22,460000	56,730000
2,784965	0,442724	33,717	-0,070641	22,460000	56,730000
2,784948	0,363291	33,818	-0,070674	22,460000	56,730000
2,784965	0,459078	33,918	-0,070634	22,460000	56,730000
2,784901	0,497626	34,018	-0,070618	22,470000	56,740000
2,784922	0,316565	34,119	-0,070694	22,470000	56,740000
2,784874	0,348105	34,219	-0,070681	22,470000	56,740000
2,784937	0,585237	34,319	-0,070582	22,470000	56,740000
2,784925	-0,023363	34,419	-0,070836	22,470000	56,740000
2,784940	0,174052	34,520	-0,070753	22,470000	56,740000
2,783984	-0,727749	35,553	-0,071130	22,470000	56,740000
2,783917	-0,735926	35,653	-0,071134	22,470000	56,740000
2,783925	-0,530334	35,754	-0,071048	22,470000	56,740000
2,783887	-0,870262	35,854	-0,071190	22,470000	56,740000
2,783936	-1,037306	35,954	-0,071260	22,470000	56,770000
2,784029	-0,712564	36,054	-0,071124	22,470000	56,770000
2,783939	-0,720741	36,154	-0,071127	22,470000	56,770000
2,783902	-0,546688	36,255	-0,071055	22,470000	56,770000
2,783958	-0,490618	36,357	-0,071031	22,470000	56,770000
2,783917	-0,341096	36,458	-0,070969	22,470000	56,770000
2,783964	-0,404175	36,560	-0,070995	22,470000	56,770000
2,783939	-0,341096	36,660	-0,070969	22,470000	56,770000
2,783985	-1,005766	36,761	-0,071247	22,470000	56,770000
2,783916	-1,171641	36,861	-0,071316	22,470000	56,770000
2,783983	-0,624953	36,962	-0,071087	22,470000	56,770000
2,783949	-0,411184	37,062	-0,070998	22,470000	56,770000
2,784022	-0,918156	37,162	-0,071210	22,470000	56,770000
2,783950	-0,522157	37,263	-0,071044	22,470000	56,770000
2,783906	-0,442724	37,363	-0,071011	22,470000	56,770000
2,783982	-0,656493	37,463	-0,071101	22,470000	56,770000
2,783958	-0,720741	37,563	-0,071127	22,470000	56,770000
2,783907	-0,570051	37,663	-0,071064	22,470000	56,770000
2,783888	-0,688033	37,763	-0,071114	22,470000	56,770000
2,783916	-0,838722	37,863	-0,071177	22,470000	56,770000
2,783917	-0,720741	37,963	-0,071127	22,470000	56,770000
2,783925	-0,704387	38,063	-0,071121	22,470000	56,770000
2,783891	-0,696210	38,164	-0,071117	22,470000	56,770000
2,783953	-0,498794	38,264	-0,071035	22,470000	56,770000
2,783920	-0,656493	38,364	-0,071101	22,470000	56,770000
2,783892	-0,522157	38,464	-0,071044	22,470000	56,770000
2,783946	-0,530334	38,564	-0,071048	22,470000	56,770000
2,783966	-0,704387	38,664	-0,071121	22,470000	56,770000
2,783988	-0,530334	38,765	-0,071048	22,470000	56,770000
2,783899	-0,878439	38,865	-0,071193	22,470000	56,770000
2,783935	-0,704387	38,965	-0,071121	22,470000	56,770000
2,783930	-0,649484	39,065	-0,071098	22,470000	56,770000
2,783912	-0,530334	39,166	-0,071048	22,470000	56,770000
2,783919	-0,656493	39,266	-0,071101	22,470000	56,770000
2,783956	-0,807183	39,366	-0,071164	22,470000	56,770000
2,783905	-0,442724	39,468	-0,071011	22,470000	56,770000
2,783894	-0,672847	39,569	-0,071107	22,470000	56,770000
2,783901	-0,672847	39,669	-0,071107	22,470000	56,770000
2,783955	-0,609767	39,770	-0,071081	22,470000	56,770000
2,783913	-0,799006	39,871	-0,071160	22,470000	56,770000
2,783923	-0,799006	39,972	-0,071160	22,460000	56,740000
2,783896	-0,712564	40,074	-0,071124	22,460000	56,740000
2,783966	-0,546688	40,175	-0,071055	22,460000	56,740000
2,783927	-0,727749	40,275	-0,071130	22,460000	56,740000
2,783904	-0,831714	40,376	-0,071174	22,460000	56,740000
2,783902	-0,586405	40,476	-0,071071	22,460000	56,740000
2,783966	-0,760457	40,577	-0,071144	22,460000	56,740000
2,783937	-0,823537	40,678	-0,071170	22,460000	56,740000
2,783915	-0,855076	40,778	-0,071184	22,460000	56,740000
2,783943	-1,100385	40,878	-0,071286	22,460000	56,740000
2,783892	-0,752280	40,978	-0,071141	22,460000	56,740000
2,783953	-0,522157	41,079	-0,071044	22,460000	56,740000
2,783938	-0,949695	41,180	-0,071223	22,460000	56,740000
2,783913	-0,909979	41,280	-0,071207	22,460000	56,740000
2,784022	-0,862085	41,381	-0,071187	22,460000	56,740000
2,783893	-0,744103	41,481	-0,071137	22,460000	56,740000
2,783967	-0,846899	41,581	-0,071180	22,460000	56,740000
2,783943	-0,760457	41,681	-0,071144	22,460000	56,740000
2,783921	-0,783820	41,782	-0,071154	22,460000	56,740000
2,783912	-0,735926	41,882	-0,071134	22,460000	56,740000
2,783918	-0,966049	41,983	-0,071230	22,460000	56,755000
2,783904	-0,989412	42,083	-0,071240	22,460000	56,755000
2,783872	-0,649484	42,184	-0,071098	22,460000	56,755000
2,783946	-0,467255	42,284	-0,071021	22,460000	56,755000
2,783925	-0,681024	42,384	-0,071111	22,460000	56,755000
2,783871	-1,186827	42,485	-0,071322	22,460000	56,755000
2,783972	-1,163464	42,585	-0,071313	22,460000	56,755000
2,783981	-0,870262	42,685	-0,071190	22,460000	56,755000
2,783934	-0,997589	42,785	-0,071243	22,460000	56,755000
2,783932	-0,744103	42,885	-0,071137	22,460000	56,755000
2,783971	-0,909979	42,985	-0,071207	22,460000	56,755000
2,783933	-1,226544	43,085	-0,071339	22,460000	56,755000
2,783924	-0,941518	43,186	-0,071220	22,460000	56,755000
2,783884	-0,941518	43,286	-0,071220	22,460000	56,755000
2,783951	-0,696210	43,386	-0,071117	22,460000	56,755000
2,783902	-0,744103	43,486	-0,071137	22,460000	56,755000
2,783938	-0,941518	43,587	-0,071220	22,460000	56,755000
2,783993	-1,020952	43,687	-0,071253	22,460000	56,755000
2,783916	-0,997589	43,788	-0,071243	22,460000	56,755000
2,783977	-0,681024	43,889	-0,071111	22,460000	56,755000
2,783956	-0,926333	43,990	-0,071213	22,460000	56,755000
2,783964	-0,862085	44,090	-0,071187	22,460000	56,755000
2,783989	-1,060668	44,190	-0,071270	22,460000	56,755000
2,783919	-1,052491	44,291	-0,071266	22,460000	56,755000
2,783935	-0,941518	44,393	-0,071220	22,460000	56,755000
2,783890	-1,060668	44,493	-0,071270	22,460000	56,755000
2,783933	-1,100385	44,593	-0,071286	22,460000	56,755000
2,783926	-0,735926	44,693	-0,071134	22,460000	56,755000
2,784010	-0,989412	44,794	-0,071240	22,460000	56,755000
2,783910	-0,649484	44,894	-0,071098	22,460000	56,755000
2,783934	-1,107394	44,995	-0,071289	22,460000	56,755000
2,783926	-1,005766	45,096	-0,071247	22,460000	56,755000
2,783908	-1,005766	45,196	-0,071247	22,460000	56,755000
2,783934	-0,909979	45,296	-0,071207	22,460000	56,755000
2,783968	-0,855076	45,396	-0,071184	22,460000	56,755000
2,783998	-0,807183	45,498	-0,071164	22,460000	56,755000
2,783887	-0,799006	45,599	-0,071160	22,460000	56,755000
2,784878	0,008177	46,634	-0,070823	22,460000	56,770000
2,784940	-0,031540	46,734	-0,070839	22,460000	56,770000
2,784945	-0,047894	46,835	-0,070846	22,460000	56,770000
2,784928	-0,237132	46,935	-0,070925	22,460000	56,770000
2,784935	0,245309	47,035	-0,070724	22,460000	56,770000
2,784915	-0,142513	47,135	-0,070886	22,460000	56,770000
2,784944	0,078265	47,236	-0,070793	22,460000	56,770000
2,784927	0,046725	47,336	-0,070807	22,460000	56,770000
2,784954	0,071256	47,436	-0,070796	22,460000	56,770000
2,784927	0,285025	47,538	-0,070707	22,460000	56,770000
2,784975	0,078265	47,638	-0,070793	22,460000	56,770000
2,785043	0,063079	47,739	-0,070800	22,460000	56,770000
2,784922	0,221946	47,840	-0,070733	22,460000	56,770000
2,784968	-0,167044	47,940	-0,070896	22,460000	56,755000
2,784944	0,371468	48,040	-0,070671	22,460000	56,755000
2,784974	0,117982	48,141	-0,070777	22,460000	56,755000
2,784900	-0,293202	48,241	-0,070949	22,460000	56,755000
2,784894	-0,356282	48,343	-0,070975	22,460000	56,755000
2,784943	0,134336	48,443	-0,070770	22,460000	56,755000
2,784948	-0,079433	48,544	-0,070859	22,460000	56,755000
2,784939	0,054902	48,645	-0,070803	22,460000	56,755000
2,784981	0,054902	48,745	-0,070803	22,460000	56,755000
2,784986	0,221946	48,846	-0,070733	22,460000	56,755000
2,784949	0,102796	48,946	-0,070783	22,460000	56,755000
2,784974	0,071256	49,046	-0,070796	22,460000	56,755000
2,784887	0,102796	49,146	-0,070783	22,460000	56,755000
2,784926	-0,127327	49,246	-0,070879	22,460000	56,755000
2,784911	-0,134336	49,346	-0,070882	22,460000	56,755000
2,784970	0,157698	49,447	-0,070760	22,460000	56,755000
2,784860	0,000000	49,547	-0,070826	22,460000	56,755000
2,784914	0,031540	49,649	-0,070813	22,460000	56,755000
2,784944	-0,094619	49,750	-0,070866	22,460000	56,755000
2,784928	-0,127327	49,850	-0,070879	22,460000	56,755000
2,784960	0,086442	49,950	-0,070790	22,460000	56,755000
2,784969	0,071256	50,051	-0,070796	22,460000	56,755000
2,784906	0,000000	50,151	-0,070826	22,460000	56,755000
2,784916	-0,364459	50,251	-0,070979	22,460000	56,755000
2,784943	-0,174052	50,351	-0,070899	22,460000	56,755000
2,784964	-0,039717	50,451	-0,070843	22,460000	56,755000
2,784900	-0,023363	50,551	-0,070836	22,460000	56,755000
2,784921	0,046725	50,652	-0,070807	22,460000	56,755000
2,785025	-0,308388	50,752	-0,070955	22,460000	56,755000
2,784991	0,008177	50,852	-0,070823	22,460000	56,755000
2,784983	-0,213769	50,952	-0,070916	22,460000	56,755000
2,784930	0,276848	51,052	-0,070710	22,460000	56,755000
2,784929	-0,094619	51,153	-0,070866	22,460000	56,755000
2,784962	-0,119150	51,254	-0,070876	22,460000	56,755000
2,784938	-0,245309	51,354	-0,070929	22,460000	56,755000
2,784951	-0,221946	51,455	-0,070919	22,460000	56,755000
2,784926	-0,094619	51,556	-0,070866	22,460000	56,755000
2,784888	-0,482441	51,656	-0,071028	22,460000	56,755000
2,784949	-0,102796	51,756	-0,070869	22,460000	56,755000
2,784961	-0,071256	51,856	-0,070856	22,460000	56,755000
2,785010	-0,197415	51,957	-0,070909	22,460000	56,755000
2,784963	-0,127327	52,057	-0,070879	22,460000	56,755000
2,784905	-0,285025	52,159	-0,070945	22,460000	56,755000
2,784985	-0,372636	52,260	-0,070982	22,460000	56,755000
2,784988	-0,205592	52,360	-0,070912	22,460000	56,755000
2,784953	0,165875	52,460	-0,070757	22,460000	56,755000
2,784938	-0,245309	52,560	-0,070929	22,460000	56,755000
2,784967	0,031540	52,661	-0,070813	22,460000	56,755000
2,784954	-0,119150	52,761	-0,070876	22,460000	56,755000
2,784941	-0,079433	52,862	-0,070859	22,460000	56,755000
2,785006	-0,332919	52,964	-0,070965	22,460000	56,755000
2,784932	0,134336	53,065	-0,070770	22,460000	56,755000
2,784939	-0,450901	53,167	-0,071015	22,460000	56,755000
2,784916	-0,245309	53,269	-0,070929	22,460000	56,755000
2,784905	-0,348105	53,370	-0,070972	22,460000	56,755000
2,784926	-0,167044	53,470	-0,070896	22,460000	56,755000
2,785010	-0,016354	53,571	-0,070833	22,460000	56,755000
2,784959	-0,047894	53,672	-0,070846	22,460000	56,755000
2,784990	-0,301379	53,772	-0,070952	22,460000	56,755000
2,784933	0,071256	53,872	-0,070796	22,460000	56,755000
2,784923	-0,142513	53,972	-0,070886	22,460000	56,755000
2,784943	-0,467255	54,072	-0,071021	22,460000	56,755000
2,784927	-0,110973	54,172	-0,070873	22,460000	56,755000
2,784949	0,016354	54,272	-0,070819	22,460000	56,755000
2,784912	-0,633130	54,372	-0,071091	22,460000	56,755000
2,784932	-0,102796	54,472	-0,070869	22,460000	56,755000
2,784950	-0,268672	54,572	-0,070938	22,460000	56,755000
2,784916	-0,110973	54,672	-0,070873	22,460000	56,755000
2,784950	0,046725	54,773	-0,070807	22,460000	56,755000
2,785004	-0,285025	54,873	-0,070945	22,460000	56,755000
2,784973	-0,102796	54,974	-0,070869	22,460000	56,755000
2,784914	-0,308388	55,074	-0,070955	22,460000	56,755000
2,784934	-0,285025	55,175	-0,070945	22,460000	56,755000
2,785002	-0,372636	55,276	-0,070982	22,460000	56,755000
2,784910	-0,341096	55,376	-0,070969	22,460000	56,755000
2,784963	-0,593414	55,476	-0,071074	22,460000	56,755000
2,784949	-0,419361	55,577	-0,071001	22,460000	56,755000
2,784978	-0,609767	55,677	-0,071081	22,460000	56,755000
2,784955	-0,459078	55,778	-0,071018	22,460000	56,755000
2,784889	-0,696210	55,879	-0,071117	22,460000	56,755000
2,784915	-0,538511	55,980	-0,071051	22,460000	56,755000
2,784966	-0,293202	56,080	-0,070949	22,460000	56,755000
2,784943	-0,411184	56,180	-0,070998	22,460000	56,755000
2,784954	-0,482441	56,280	-0,071028	22,460000	56,755000
2,784929	-0,356282	56,382	-0,070975	22,460000	56,755000
2,784960	-0,578228	56,484	-0,071068	22,460000	56,755000
2,784945	-0,071256	56,584	-0,070856	22,460000	56,755000
2,784917	-0,467255	56,685	-0,071021	22,460000	56,755000
2,783974	-1,448490	57,718	-0,071432	22,460000	56,755000
2,783926	-1,464844	57,818	-0,071438	22,460000	56,755000
2,783914	-1,488206	57,920	-0,071448	22,460000	56,755000
2,783957	-1,234721	58,020	-0,071342	22,460000	56,740000
2,783904	-1,637728	58,120	-0,071511	22,460000	56,740000
2,783979	-1,392419	58,220	-0,071408	22,460000	56,740000
2,783938	-1,258084	58,320	-0,071352	22,460000	56,740000
2,783922	-1,147110	58,421	-0,071306	22,460000	56,740000
2,783991	-1,432136	58,522	-0,071425	22,460000	56,740000
2,783914	-1,740524	58,622	-0,071554	22,460000	56,740000
2,783945	-1,360880	58,723	-0,071395	22,460000	56,740000
2,783965	-1,708984	58,824	-0,071541	22,460000	56,740000
2,783949	-1,844488	58,924	-0,071597	22,460000	56,740000
2,783911	-1,591003	59,024	-0,071491	22,460000	56,740000
2,783927	-1,456667	59,125	-0,071435	22,460000	56,740000
2,783922	-1,314154	59,226	-0,071375	22,460000	56,740000
2,783946	-1,408773	59,328	-0,071415	22,460000	56,740000
2,784005	-1,392419	59,428	-0,071408	22,460000	56,740000
2,783978	-1,345694	59,530	-0,071389	22,460000	56,740000
2,783937	-1,503392	59,630	-0,071455	22,460000	56,740000
2,784014	-1,559463	59,731	-0,071478	22,460000	56,740000
2,783910	-1,305977	59,831	-0,071372	22,460000	56,740000
2,783975	-1,416950	59,931	-0,071418	22,460000	56,740000
2,783954	-1,614365	60,032	-0,071501	22,460000	56,740000
2,783953	-1,519746	60,134	-0,071461	22,460000	56,740000
2,783879	-1,314154	60,234	-0,071375	22,460000	56,740000
2,783925	-1,622542	60,334	-0,071504	22,460000	56,740000
2,783946	-1,591003	60,435	-0,071491	22,460000	56,740000
2,783937	-1,432136	60,535	-0,071425	22,460000	56,740000
2,783894	-1,606188	60,636	-0,071498	22,460000	56,740000
2,783930	-1,670436	60,736	-0,071524	22,460000	56,740000
2,783939	-1,195004	60,837	-0,071326	22,460000	56,740000
2,783910	-1,345694	60,937	-0,071389	22,460000	56,740000
2,784042	-1,456667	61,037	-0,071435	22,460000	56,740000
2,783989	-1,566472	61,138	-0,071481	22,460000	56,740000
2,783927	-1,566472	61,238	-0,071481	22,460000	56,740000
2,783939	-1,345694	61,338	-0,071389	22,460000	56,740000
2,784013	-1,251075	61,438	-0,071349	22,460000	56,740000
2,783933	-1,788418	61,539	-0,071574	22,460000	56,740000
2,783940	-1,186827	61,640	-0,071322	22,460000	56,740000
2,783931	-1,258084	61,741	-0,071352	22,460000	56,740000
2,783928	-1,464844	61,841	-0,071438	22,460000	56,740000
2,783936	-1,345694	61,941	-0,071389	22,450000	56,755000
2,783920	-1,471853	62,041	-0,071441	22,450000	56,755000
2,783950	-1,591003	62,141	-0,071491	22,450000	56,755000
2,783883	-1,360880	62,242	-0,071395	22,450000	56,755000
2,783928	-1,773232	62,343	-0,071567	22,450000	56,755000
2,783949	-1,305977	62,443	-0,071372	22,450000	56,755000
2,783904	-1,448490	62,544	-0,071432	22,450000	56,755000
2,783945	-1,314154	62,644	-0,071375	22,450000	56,755000
2,783989	-1,480030	62,744	-0,071445	22,450000	56,755000
2,783978	-1,654082	62,844	-0,071518	22,450000	56,755000
2,783932	-1,637728	62,944	-0,071511	22,450000	56,755000
2,783920	-1,314154	63,044	-0,071375	22,450000	56,755000
2,783970	-1,281446	63,144	-0,071362	22,450000	56,755000
2,784018	-1,551286	63,245	-0,071475	22,450000	56,755000
2,783907	-1,606188	63,346	-0,071498	22,450000	56,755000
2,783930	-1,289623	63,447	-0,071365	22,450000	56,755000
2,783995	-1,392419	63,549	-0,071408	22,450000	56,755000
2,783934	-1,092208	63,650	-0,071283	22,450000	56,755000
2,783965	-1,400596	63,751	-0,071412	22,450000	56,755000
2,783918	-1,242898	63,851	-0,071346	22,450000	56,755000
2,783955	-1,456667	63,951	-0,071435	22,450000	56,755000
2,783983	-1,630719	64,052	-0,071508	22,450000	56,755000
2,783981	-1,266260	64,152	-0,071355	22,450000	56,755000
2,783961	-1,289623	64,253	-0,071365	22,450000	56,755000
2,783997	-1,140102	64,353	-0,071303	22,450000	56,755000
2,783995	-1,708984	64,453	-0,071541	22,450000	56,755000
2,783937	-1,503392	64,554	-0,071455	22,450000	56,755000
2,783937	-1,582826	64,654	-0,071488	22,450000	56,755000
2,784003	-1,448490	64,755	-0,071432	22,450000	56,755000
2,784018	-1,566472	64,855	-0,071481	22,450000	56,755000
2,783960	-1,369057	64,955	-0,071398	22,450000	56,755000
2,783980	-1,385410	65,055	-0,071405	22,450000	56,755000
2,784032	-1,186827	65,155	-0,071322	22,450000	56,755000
2,783953	-2,041903	65,255	-0,071680	22,450000	56,755000
2,783988	-1,526755	65,356	-0,071464	22,450000	56,755000
2,783965	-1,526755	65,456	-0,071464	22,450000	56,755000
2,783911	-1,511569	65,557	-0,071458	22,450000	56,755000
2,783895	-1,297800	65,658	-0,071369	22,450000	56,755000
2,783966	-1,511569	65,759	-0,071458	22,450000	56,755000
2,783947	-1,503392	65,860	-0,071455	22,450000	56,755000
2,783861	-1,314154	65,961	-0,071375	22,460000	56,740000
2,783889	-1,559463	66,061	-0,071478	22,460000	56,740000
2,783993	-1,289623	66,162	-0,071365	22,460000	56,740000
2,783940	-1,242898	66,263	-0,071346	22,460000	56,740000
2,783884	-1,345694	66,363	-0,071389	22,460000	56,740000
2,783967	-1,495215	66,464	-0,071451	22,460000	56,740000
2,783959	-1,432136	66,565	-0,071425	22,460000	56,740000
2,783947	-1,408773	66,665	-0,071415	22,460000	56,740000
2,783944	-1,519746	66,765	-0,071461	22,460000	56,740000
2,783992	-1,559463	66,867	-0,071478	22,460000	56,740000
2,783975	-1,804772	66,970	-0,071581	22,460000	56,740000
2,783909	-1,400596	67,072	-0,071412	22,460000	56,740000
2,783921	-1,551286	67,172	-0,071475	22,460000	56,740000
2,783958	-1,511569	67,272	-0,071458	22,460000	56,740000
2,783944	-1,195004	67,372	-0,071326	22,460000	56,740000
2,783957	-1,599180	67,473	-0,071495	22,460000	56,740000
2,783935	-1,591003	67,573	-0,071491	22,460000	56,740000
2,784022	-1,606188	67,673	-0,071498	22,460000	56,740000
2,783904	-1,385410	67,773	-0,071405	22,460000	56,740000
2,784956	-0,752280	68,805	-0,071141	22,460000	56,755000
2,784971	-0,450901	68,906	-0,071015	22,460000	56,755000
2,784951	-0,450901	69,006	-0,071015	22,460000	56,755000
2,784978	-0,490618	69,106	-0,071031	22,460000	56,755000
2,784944	-0,538511	69,206	-0,071051	22,460000	56,755000
2,784969	-0,624953	69,306	-0,071087	22,460000	56,755000
2,784923	-0,411184	69,406	-0,070998	22,460000	56,755000
2,784959	0,016354	69,506	-0,070819	22,460000	56,755000
2,784982	-0,633130	69,606	-0,071091	22,460000	56,755000
2,784951	-0,522157	69,708	-0,071044	22,460000	56,755000
2,784910	-0,538511	69,809	-0,071051	22,460000	56,755000
2,784926	-0,332919	69,910	-0,070965	22,460000	56,755000
2,784983	-0,681024	70,010	-0,071111	22,450000	56,730000
2,784952	-0,855076	70,110	-0,071184	22,450000	56,730000
2,784940	-0,656493	70,211	-0,071101	22,450000	56,730000
2,785003	-0,498794	70,311	-0,071035	22,450000	56,730000
2,784947	-0,918156	70,411	-0,071210	22,450000	56,730000
2,784941	-0,561874	70,512	-0,071061	22,450000	56,730000
2,784996	-0,475432	70,612	-0,071025	22,450000	56,730000
2,784956	-0,601591	70,713	-0,071078	22,450000	56,730000
2,784905	-0,633130	70,814	-0,071091	22,450000	56,730000
2,784969	-0,268672	70,914	-0,070938	22,450000	56,730000
2,784936	-0,387821	71,015	-0,070988	22,450000	56,730000
2,784949	-0,506971	71,116	-0,071038	22,450000	56,730000
2,784896	-0,546688	71,216	-0,071055	22,450000	56,730000
2,784983	-0,617944	71,316	-0,071084	22,450000	56,730000
2,784948	-0,570051	71,416	-0,071064	22,450000	56,730000
2,784962	-0,624953	71,516	-0,071087	22,450000	56,730000
2,784954	-0,341096	71,616	-0,070969	22,450000	56,730000
2,784979	-0,966049	71,717	-0,071230	22,450000	56,730000
2,784962	-0,641307	71,817	-0,071094	22,450000	56,730000
2,784950	-0,506971	71,917	-0,071038	22,450000	56,730000
2,784935	-0,475432	72,017	-0,071025	22,450000	56,730000
2,784914	-0,230123	72,117	-0,070922	22,450000	56,730000
2,784932	-0,506971	72,217	-0,071038	22,450000	56,730000
2,784952	-0,593414	72,317	-0,071074	22,450000	56,730000
2,784977	-0,656493	72,418	-0,071101	22,450000	56,730000
2,784882	-0,641307	72,518	-0,071094	22,450000	56,730000
2,784983	-0,641307	72,619	-0,071094	22,450000	56,730000
2,784950	-0,767466	72,719	-0,071147	22,450000	56,730000
2,784930	-0,601591	72,820	-0,071078	22,450000	56,730000
2,784948	-0,332919	72,920	-0,070965	22,450000	56,730000
2,784968	-0,696210	73,020	-0,071117	22,450000	56,730000
2,784917	-0,664670	73,120	-0,071104	22,450000	56,730000
2,784982	-0,450901	73,221	-0,071015	22,450000	56,730000
2,784930	-0,316565	73,321	-0,070958	22,450000	56,730000
2,784909	-0,593414	73,421	-0,071074	22,450000	56,730000
2,784928	-0,681024	73,522	-0,071111	22,450000	56,730000
2,784927	-0,268672	73,622	-0,070938	22,450000	56,730000
2,784974	-0,681024	73,722	-0,071111	22,450000	56,730000
2,784958	-0,435715	73,823	-0,071008	22,450000	56,730000
2,784967	-0,656493	73,924	-0,071101	22,460000	56,755000
2,784961	-0,570051	74,024	-0,071064	22,460000	56,755000
2,784954	-0,419361	74,124	-0,071001	22,460000	56,755000
2,784969	-0,641307	74,224	-0,071094	22,460000	56,755000
2,784945	-0,293202	74,326	-0,070949	22,460000	56,755000
2,784946	-0,538511	74,427	-0,071051	22,460000	56,755000
2,784913	-0,633130	74,527	-0,071091	22,460000	56,755000
2,784935	-0,617944	74,628	-0,071084	22,460000	56,755000
2,784974	-0,649484	74,729	-0,071098	22,460000	56,755000
2,784929	-0,586405	74,830	-0,071071	22,460000	56,755000
2,784955	-0,688033	74,930	-0,071114	22,460000	56,755000
2,784935	-0,475432	75,031	-0,071025	22,460000	56,755000
2,784986	-0,989412	75,131	-0,071240	22,460000	56,755000
2,784943	-0,268672	75,236	-0,070938	22,460000	56,755000
2,785031	-0,276848	75,336	-0,070942	22,460000	56,755000
2,784926	-0,276848	75,436	-0,070942	22,460000	56,755000
2,784994	-0,681024	75,536	-0,071111	22,460000	56,755000
2,784962	-0,442724	75,636	-0,071011	22,460000	56,755000
2,784927	-0,617944	75,736	-0,071084	22,460000	56,755000
2,784922	-0,364459	75,836	-0,070979	22,460000	56,755000
2,785006	-0,846899	75,936	-0,071180	22,460000	56,755000
2,784926	-0,989412	76,037	-0,071240	22,460000	56,755000
2,784975	-0,364459	76,138	-0,070979	22,460000	56,755000
2,784952	-0,435715	76,240	-0,071008	22,460000	56,755000
2,784955	-0,601591	76,342	-0,071078	22,460000	56,755000
2,784964	-0,681024	76,442	-0,071111	22,460000	56,755000
2,784900	-0,570051	76,544	-0,071064	22,460000	56,755000
2,784955	-0,672847	76,645	-0,071107	22,460000	56,755000
2,784958	-0,649484	76,747	-0,071098	22,460000	56,755000
2,784903	-0,578228	76,847	-0,071068	22,460000	56,755000
2,784973	-0,411184	76,947	-0,070998	22,460000	56,755000
2,784951	-0,823537	77,048	-0,071170	22,460000	56,755000
2,784933	-0,364459	77,151	-0,070979	22,460000	56,755000
2,784946	-0,285025	77,252	-0,070945	22,460000	56,755000
2,784963	-0,230123	77,353	-0,070922	22,460000	56,755000
2,785026	-0,767466	77,455	-0,071147	22,460000	56,755000
2,784889	-0,341096	77,556	-0,070969	22,460000	56,755000
2,785026	-0,633130	77,657	-0,071091	22,460000	56,755000
2,784957	-0,348105	77,757	-0,070972	22,460000	56,755000
2,785010	-0,482441	77,857	-0,071028	22,460000	56,755000
2,784962	-0,601591	77,959	-0,071078	22,460000	56,715000
2,784951	-0,752280	78,060	-0,071141	22,460000	56,715000
2,784957	-0,522157	78,162	-0,071044	22,460000	56,715000
2,784898	-0,356282	78,263	-0,070975	22,460000	56,715000
2,784930	-0,688033	78,363	-0,071114	22,460000	56,715000
2,784928	-0,617944	78,463	-0,071084	22,460000	56,715000
2,784950	-0,293202	78,563	-0,070949	22,460000	56,715000
2,784964	-0,490618	78,664	-0,071031	22,460000	56,715000
2,784978	-0,482441	78,765	-0,071028	22,460000	56,715000
2,784900	-0,624953	78,865	-0,071087	22,460000	56,715000
2,783911	-1,756878	79,899	-0,071561	22,460000	56,715000
2,783937	-1,899391	79,999	-0,071620	22,460000	56,740000
2,783922	-1,599180	80,099	-0,071495	22,460000	56,740000
2,783989	-1,464844	80,200	-0,071438	22,460000	56,740000
2,783910	-1,844488	80,300	-0,071597	22,460000	56,740000
2,783919	-1,432136	80,401	-0,071425	22,460000	56,740000
2,783993	-1,226544	80,502	-0,071339	22,460000	56,740000
2,783940	-1,677445	80,602	-0,071527	22,460000	56,740000
2,783993	-1,756878	80,703	-0,071561	22,460000	56,740000
2,783923	-1,591003	80,804	-0,071491	22,460000	56,740000
2,783983	-1,780241	80,905	-0,071570	22,460000	56,740000
2,783987	-1,503392	81,005	-0,071455	22,460000	56,740000
2,783982	-1,606188	81,107	-0,071498	22,460000	56,740000
2,783905	-1,566472	81,207	-0,071481	22,460000	56,740000
2,783912	-1,693799	81,307	-0,071534	22,460000	56,740000
2,783947	-1,582826	81,407	-0,071488	22,460000	56,740000
2,783939	-1,456667	81,507	-0,071435	22,460000	56,740000
2,783912	-1,773232	81,608	-0,071567	22,460000	56,740000
2,783952	-1,630719	81,709	-0,071508	22,460000	56,740000
2,783923	-1,534932	81,810	-0,071468	22,460000	56,740000
2,783923	-1,400596	81,910	-0,071412	22,460000	56,740000
2,783930	-1,685622	82,010	-0,071531	22,460000	56,770000
2,783912	-1,677445	82,110	-0,071527	22,460000	56,770000
2,783939	-1,519746	82,211	-0,071461	22,460000	56,770000
2,783907	-1,432136	82,312	-0,071425	22,460000	56,770000
2,783974	-1,773232	82,412	-0,071567	22,460000	56,770000
2,783946	-2,081620	82,513	-0,071696	22,460000	56,770000
2,783998	-1,495215	82,613	-0,071451	22,460000	56,770000
2,783962	-1,645905	82,713	-0,071514	22,460000	56,770000
2,783940	-1,242898	82,813	-0,071346	22,460000	56,770000
2,783952	-1,559463	82,914	-0,071478	22,460000	56,770000
2,783958	-1,060668	83,014	-0,071270	22,460000	56,770000
2,783951	-1,614365	83,114	-0,071501	22,460000	56,770000
2,783986	-1,637728	83,216	-0,071511	22,460000	56,770000
2,783953	-1,408773	83,316	-0,071415	22,460000	56,770000
2,784011	-1,377233	83,417	-0,071402	22,460000	56,770000
2,783975	-1,788418	83,517	-0,071574	22,460000	56,770000
2,783930	-1,670436	83,617	-0,071524	22,460000	56,770000
2,783956	-1,543109	83,718	-0,071471	22,460000	56,770000
2,783962	-1,670436	83,867	-0,071524	22,460000	56,770000
2,783951	-1,218367	83,969	-0,071335	22,460000	56,770000
2,784022	-1,425127	84,075	-0,071422	22,460000	56,770000
2,783954	-1,353871	84,175	-0,071392	22,460000	56,770000
2,783953	-1,226544	84,277	-0,071339	22,460000	56,770000
2,783902	-1,314154	84,377	-0,071375	22,460000	56,770000
2,783914	-1,551286	84,487	-0,071475	22,460000	56,770000
2,783920	-1,464844	84,588	-0,071438	22,460000	56,770000
2,783934	-1,416950	84,689	-0,071418	22,460000	56,770000
2,783940	-1,480030	84,789	-0,071445	22,460000	56,770000
2,783990	-1,179818	84,891	-0,071319	22,460000	56,770000
2,783932	-1,645905	84,993	-0,071514	22,460000	56,770000
2,783940	-1,266260	85,094	-0,071355	22,460000	56,770000
2,783943	-1,400596	85,194	-0,071412	22,460000	56,770000
2,783932	-1,242898	85,294	-0,071346	22,460000	56,770000
2,783958	-1,100385	85,394	-0,071286	22,460000	56,770000
2,783921	-1,606188	85,494	-0,071498	22,460000	56,770000
2,783986	-1,305977	85,594	-0,071372	22,460000	56,770000
2,784016	-1,274437	85,711	-0,071359	22,460000	56,770000
2,783921	-1,234721	85,812	-0,071342	22,460000	56,770000
2,783978	-1,353871	85,912	-0,071392	22,460000	56,770000
2,783941	-1,408773	86,012	-0,071415	22,460000	56,730000
2,783951	-1,179818	86,116	-0,071319	22,460000	56,730000
2,783885	-1,622542	86,217	-0,071504	22,460000	56,730000
2,783929	-1,195004	86,317	-0,071326	22,460000	56,730000
2,783920	-1,337517	86,418	-0,071385	22,460000	56,730000
2,783927	-1,360880	86,536	-0,071395	22,460000	56,730000
2,783972	-1,353871	86,636	-0,071392	22,460000	56,730000
2,783949	-1,075854	86,736	-0,071276	22,460000	56,730000
2,783945	-1,226544	86,836	-0,071339	22,460000	56,730000
2,784004	-1,266260	86,940	-0,071355	22,460000	56,730000
2,783952	-1,377233	87,040	-0,071402	22,460000	56,730000
2,783965	-1,258084	87,140	-0,071352	22,460000	56,730000
2,783923	-1,377233	87,240	-0,071402	22,460000	56,730000
2,783959	-1,195004	87,341	-0,071326	22,460000	56,730000
2,783981	-1,582826	87,442	-0,071488	22,460000	56,730000
2,783958	-1,234721	87,544	-0,071342	22,460000	56,730000
2,783917	-1,425127	87,645	-0,071422	22,460000	56,730000
2,783954	-1,480030	87,745	-0,071445	22,460000	56,730000
2,783958	-1,203181	87,846	-0,071329	22,460000	56,730000
2,783938	-1,392419	87,947	-0,071408	22,460000	56,700000
2,784046	-1,566472	88,048	-0,071481	22,460000	56,700000
2,783995	-1,195004	88,149	-0,071326	22,460000	56,700000
2,783912	-1,392419	88,250	-0,071408	22,460000	56,700000
2,783971	-1,440313	88,351	-0,071428	22,460000	56,700000
2,783950	-1,464844	88,451	-0,071438	22,460000	56,700000
2,783928	-1,606188	88,563	-0,071498	22,460000	56,700000
2,783932	-1,811780	88,663	-0,071583	22,460000	56,700000
2,783949	-1,591003	88,763	-0,071491	22,460000	56,700000
2,783925	-1,353871	88,885	-0,071392	22,460000	56,700000
2,783919	-1,251075	88,986	-0,071349	22,460000	56,700000
2,783957	-1,440313	89,086	-0,071428	22,460000	56,700000
2,783905	-1,353871	89,187	-0,071392	22,460000	56,700000
2,783947	-1,622542	89,296	-0,071504	22,460000	56,700000
2,784007	-1,321163	89,396	-0,071378	22,460000	56,700000
2,784047	-1,464844	89,497	-0,071438	22,460000	56,700000
2,783913	-1,360880	89,597	-0,071395	22,460000	56,700000
2,783914	-1,456667	89,699	-0,071435	22,460000	56,700000
2,783965	-1,289623	89,799	-0,071365	22,460000	56,700000
2,783879	-1,195004	89,899	-0,071326	22,460000	56,700000
2,783986	-1,440313	90,000	-0,071428	22,460000	56,770000
2,783905	-1,226544	90,050	-0,071339	22,460000	56,770000