File: Nanoindentation Datenauswertung/data/MEMS Resolution Test/MEMS step test,0,5nm,10Hz-3
Quasi static measurement routine
Tip parameters (shape,radius, material...)
17.08.2022

Piezo position[nm]	MEMS displ.[nm]	Time[ms]	Cap [pf]	Temp [°C]	Rh [%]
eoh
2,851902	-0,054902	0,187	-0,057563	22,460000	56,265000
2,852443	0,593414	0,289	-0,057292	22,460000	56,280000
2,852384	0,221946	0,389	-0,057447	22,460000	56,280000
2,852452	0,442724	0,490	-0,057354	22,460000	56,280000
2,852361	0,230123	0,590	-0,057443	22,460000	56,280000
2,852403	0,364459	0,690	-0,057387	22,460000	56,280000
2,852368	0,197415	0,790	-0,057457	22,460000	56,280000
2,852386	0,561874	0,891	-0,057305	22,460000	56,280000
2,852406	0,404175	0,991	-0,057371	22,460000	56,280000
2,852374	0,505803	1,092	-0,057328	22,460000	56,280000
2,852390	0,331751	1,192	-0,057401	22,460000	56,280000
2,852425	0,561874	1,293	-0,057305	22,460000	56,280000
2,852415	0,245309	1,393	-0,057437	22,460000	56,280000
2,852410	0,079433	1,493	-0,057506	22,460000	56,280000
2,852423	0,513980	1,593	-0,057325	22,460000	56,280000
2,852361	0,735926	1,694	-0,057232	22,460000	56,280000
2,852371	0,838722	1,795	-0,057189	22,460000	56,280000
2,852404	0,300211	1,895	-0,057414	22,460000	56,280000
2,852414	0,570051	1,996	-0,057301	22,460000	56,280000
2,852373	0,609767	2,097	-0,057285	22,460000	56,280000
2,852414	0,174052	2,197	-0,057467	22,460000	56,280000
2,852438	0,442724	2,298	-0,057354	22,460000	56,280000
2,852396	0,300211	2,400	-0,057414	22,460000	56,280000
2,852344	0,339928	2,500	-0,057397	22,460000	56,280000
2,852335	0,624953	2,600	-0,057278	22,460000	56,280000
2,852421	0,609767	2,700	-0,057285	22,460000	56,280000
2,852459	0,395998	2,801	-0,057374	22,460000	56,280000
2,852396	0,696210	2,901	-0,057249	22,460000	56,280000
2,852382	0,941518	3,001	-0,057146	22,460000	56,280000
2,852366	0,404175	3,102	-0,057371	22,460000	56,280000
2,852425	0,245309	3,203	-0,057437	22,460000	56,280000
2,852358	0,165875	3,303	-0,057470	22,460000	56,280000
2,852377	0,578228	3,403	-0,057298	22,460000	56,280000
2,852403	0,316565	3,503	-0,057407	22,460000	56,280000
2,852378	0,056071	3,604	-0,057516	22,460000	56,280000
2,852401	0,522157	3,704	-0,057321	22,460000	56,280000
2,852458	0,553697	3,804	-0,057308	22,460000	56,280000
2,852353	0,371468	3,905	-0,057384	22,460000	56,280000
2,852407	0,719572	4,005	-0,057239	22,460000	56,280000
2,852448	0,467255	4,105	-0,057344	22,460000	56,280000
2,852394	0,157698	4,205	-0,057474	22,460000	56,280000
2,852425	0,767466	4,306	-0,057219	22,460000	56,265000
2,852336	0,435715	4,407	-0,057357	22,460000	56,265000
2,852387	0,316565	4,507	-0,057407	22,460000	56,265000
2,852437	0,213769	4,608	-0,057450	22,460000	56,265000
2,852396	0,221946	4,709	-0,057447	22,460000	56,265000
2,852423	0,570051	4,809	-0,057301	22,460000	56,265000
2,852352	0,379645	4,910	-0,057381	22,460000	56,265000
2,852376	0,505803	5,010	-0,057328	22,460000	56,265000
2,852399	0,285025	5,111	-0,057420	22,460000	56,265000
2,852476	0,300211	5,211	-0,057414	22,460000	56,265000
2,852378	0,427538	5,312	-0,057361	22,460000	56,265000
2,852397	0,261663	5,412	-0,057430	22,460000	56,265000
2,852357	0,063079	5,513	-0,057513	22,460000	56,265000
2,852403	0,894793	5,614	-0,057166	22,460000	56,265000
2,852341	0,633130	5,714	-0,057275	22,460000	56,265000
2,852456	0,799006	5,814	-0,057206	22,460000	56,265000
2,852433	0,126159	5,915	-0,057487	22,460000	56,265000
2,852386	0,276848	6,015	-0,057424	22,460000	56,265000
2,852422	0,300211	6,115	-0,057414	22,460000	56,265000
2,852395	0,364459	6,215	-0,057387	22,460000	56,265000
2,852371	0,570051	6,316	-0,057301	22,460000	56,265000
2,852396	0,205592	6,417	-0,057454	22,460000	56,265000
2,852356	0,230123	6,519	-0,057443	22,460000	56,265000
2,852365	0,213769	6,619	-0,057450	22,460000	56,265000
2,852370	0,253486	6,719	-0,057434	22,460000	56,265000
2,852428	0,119150	6,820	-0,057490	22,460000	56,265000
2,852383	0,285025	6,920	-0,057420	22,460000	56,265000
2,852370	-0,031540	7,020	-0,057553	22,460000	56,265000
2,852381	0,157698	7,120	-0,057474	22,460000	56,265000
2,852368	-0,094619	7,220	-0,057579	22,460000	56,265000
2,852413	-0,054902	7,320	-0,057563	22,460000	56,265000
2,852433	0,324742	7,420	-0,057404	22,460000	56,265000
2,852382	0,570051	7,520	-0,057301	22,460000	56,265000
2,852439	0,205592	7,621	-0,057454	22,460000	56,265000
2,852378	0,356282	7,722	-0,057391	22,460000	56,265000
2,852422	0,331751	7,823	-0,057401	22,460000	56,265000
2,852381	0,071256	7,923	-0,057510	22,460000	56,265000
2,852438	0,404175	8,025	-0,057371	22,460000	56,265000
2,852431	0,356282	8,125	-0,057391	22,460000	56,265000
2,852443	0,237132	8,225	-0,057440	22,460000	56,265000
2,852421	0,213769	8,325	-0,057450	22,460000	56,255000
2,852452	0,197415	8,426	-0,057457	22,460000	56,255000
2,852374	0,744103	8,526	-0,057229	22,460000	56,255000
2,852429	-0,213769	8,627	-0,057629	22,460000	56,255000
2,852406	0,094619	8,727	-0,057500	22,460000	56,255000
2,852381	0,253486	8,827	-0,057434	22,460000	56,255000
2,852397	0,490618	8,929	-0,057334	22,460000	56,255000
2,852423	0,545520	9,031	-0,057312	22,460000	56,255000
2,852397	0,498794	9,132	-0,057331	22,460000	56,255000
2,852381	0,276848	9,232	-0,057424	22,460000	56,255000
2,852389	0,150690	9,333	-0,057477	22,460000	56,255000
2,852344	0,023363	9,433	-0,057530	22,460000	56,255000
2,852414	0,182229	9,535	-0,057463	22,460000	56,255000
2,852356	-0,221946	9,635	-0,057632	22,460000	56,255000
2,852414	0,150690	9,737	-0,057477	22,460000	56,255000
2,852395	0,276848	9,838	-0,057424	22,460000	56,255000
2,852368	0,285025	9,939	-0,057420	22,460000	56,255000
2,852402	0,245309	10,041	-0,057437	22,460000	56,255000
2,852409	0,023363	10,141	-0,057530	22,460000	56,255000
2,852376	-0,008177	10,242	-0,057543	22,460000	56,255000
2,852393	0,031540	10,342	-0,057526	22,460000	56,310000
2,851857	-0,087610	10,426	-0,057576	22,460000	56,310000
2,851883	-0,467255	10,528	-0,057735	22,460000	56,310000
2,851911	-0,339928	10,629	-0,057682	22,460000	56,310000
2,851840	-0,411184	10,729	-0,057711	22,460000	56,310000
2,851894	-0,094619	10,830	-0,057579	22,460000	56,310000
2,851848	-0,316565	10,931	-0,057672	22,460000	56,310000
2,851861	-0,134336	11,031	-0,057596	22,460000	56,310000
2,851909	-0,348105	11,131	-0,057685	22,460000	56,310000
2,851892	-0,189238	11,231	-0,057619	22,460000	56,310000
2,851863	-0,450901	11,332	-0,057728	22,460000	56,310000
2,851892	-0,300211	11,432	-0,057665	22,460000	56,310000
2,851883	-0,174052	11,533	-0,057612	22,460000	56,310000
2,851856	-0,545520	11,634	-0,057768	22,460000	56,310000
2,851879	-0,474264	11,735	-0,057738	22,460000	56,310000
2,851940	-0,015186	11,835	-0,057546	22,460000	56,310000
2,851891	-0,403007	11,935	-0,057708	22,460000	56,310000
2,851873	-0,561874	12,035	-0,057774	22,460000	56,310000
2,851899	-0,633130	12,136	-0,057804	22,460000	56,310000
2,851899	-0,261663	12,236	-0,057649	22,460000	56,310000
2,851899	-0,419361	12,337	-0,057715	22,460000	56,255000
2,851884	-0,403007	12,438	-0,057708	22,460000	56,255000
2,851914	-0,237132	12,538	-0,057639	22,460000	56,255000
2,851894	-0,324742	12,639	-0,057675	22,460000	56,255000
2,851926	-0,783820	12,740	-0,057867	22,460000	56,255000
2,851919	-0,387821	12,840	-0,057702	22,460000	56,255000
2,851942	-0,482441	12,940	-0,057741	22,460000	56,255000
2,851901	-0,593414	13,042	-0,057788	22,460000	56,255000
2,851948	-0,110973	13,142	-0,057586	22,460000	56,255000
2,851938	-0,601591	13,242	-0,057791	22,460000	56,255000
2,851939	-0,427538	13,343	-0,057718	22,460000	56,255000
2,851923	-0,656493	13,443	-0,057814	22,460000	56,255000
2,851938	-0,221946	13,543	-0,057632	22,460000	56,255000
2,851934	-0,237132	13,643	-0,057639	22,460000	56,255000
2,851902	-0,237132	13,744	-0,057639	22,460000	56,255000
2,851918	-0,071256	13,844	-0,057569	22,460000	56,255000
2,851906	-0,205592	13,945	-0,057625	22,460000	56,255000
2,851871	-0,379645	14,045	-0,057698	22,460000	56,255000
2,851907	-0,704387	14,145	-0,057834	22,460000	56,255000
2,851885	-0,664670	14,246	-0,057817	22,460000	56,255000
2,851897	-0,071256	14,347	-0,057569	22,460000	56,240000
2,851880	-0,427538	14,448	-0,057718	22,460000	56,240000
2,851913	-0,419361	14,548	-0,057715	22,460000	56,240000
2,851889	-0,268672	14,648	-0,057652	22,460000	56,240000
2,851899	-0,087610	14,749	-0,057576	22,460000	56,240000
2,851873	-0,513980	14,849	-0,057754	22,460000	56,240000
2,851956	-0,411184	14,949	-0,057711	22,460000	56,240000
2,851946	-0,450901	15,049	-0,057728	22,460000	56,240000
2,851934	-0,664670	15,150	-0,057817	22,460000	56,240000
2,851903	-0,387821	15,250	-0,057702	22,460000	56,240000
2,851857	-0,593414	15,351	-0,057788	22,460000	56,240000
2,851954	-0,538511	15,451	-0,057765	22,460000	56,240000
2,851934	-0,332919	15,551	-0,057679	22,460000	56,240000
2,851904	-0,442724	15,652	-0,057725	22,460000	56,240000
2,851927	0,126159	15,753	-0,057487	22,460000	56,240000
2,851918	-0,213769	15,853	-0,057629	22,460000	56,240000
2,851894	-0,356282	15,953	-0,057688	22,460000	56,240000
2,851925	-0,498794	16,053	-0,057748	22,460000	56,240000
2,851939	-0,411184	16,154	-0,057711	22,460000	56,240000
2,851933	-0,182229	16,255	-0,057616	22,460000	56,240000
2,851910	-0,387821	16,356	-0,057702	22,460000	56,295000
2,851919	-0,054902	16,456	-0,057563	22,460000	56,295000
2,851933	-0,427538	16,558	-0,057718	22,460000	56,295000
2,851892	-0,727749	16,658	-0,057844	22,460000	56,295000
2,851900	-0,228955	16,759	-0,057635	22,460000	56,295000
2,851884	-0,522157	16,860	-0,057758	22,460000	56,295000
2,851943	-0,087610	16,960	-0,057576	22,460000	56,295000
2,851963	-0,395998	17,062	-0,057705	22,460000	56,295000
2,851908	-0,276848	17,162	-0,057655	22,460000	56,295000
2,851833	-0,189238	17,264	-0,057619	22,460000	56,295000
2,851846	-0,530334	17,365	-0,057761	22,460000	56,295000
2,851886	-0,268672	17,466	-0,057652	22,460000	56,295000
2,851879	-0,213769	17,568	-0,057629	22,460000	56,295000
2,851960	-0,522157	17,668	-0,057758	22,460000	56,295000
2,851937	-0,538511	17,768	-0,057765	22,460000	56,295000
2,851889	-0,237132	17,868	-0,057639	22,460000	56,295000
2,851898	-0,608599	17,968	-0,057794	22,460000	56,295000
2,851903	-0,308388	18,070	-0,057668	22,460000	56,295000
2,851923	-0,538511	18,170	-0,057765	22,460000	56,295000
2,851913	-0,427538	18,271	-0,057718	22,460000	56,295000
2,851941	-0,237132	18,371	-0,057639	22,460000	56,295000
2,851921	-0,293202	18,471	-0,057662	22,460000	56,295000
2,851903	-0,664670	18,571	-0,057817	22,460000	56,295000
2,851863	-0,363291	18,672	-0,057691	22,460000	56,295000
2,851961	-0,205592	18,773	-0,057625	22,460000	56,295000
2,851941	-0,482441	18,874	-0,057741	22,460000	56,295000
2,851899	-0,522157	18,980	-0,057758	22,460000	56,295000
2,851905	-0,332919	19,080	-0,057679	22,460000	56,295000
2,851927	-0,545520	19,181	-0,057768	22,460000	56,295000
2,851893	-0,498794	19,281	-0,057748	22,460000	56,295000
2,851960	-0,316565	19,382	-0,057672	22,460000	56,295000
2,851933	-0,434547	19,482	-0,057721	22,460000	56,295000
2,851945	-0,538511	19,582	-0,057765	22,460000	56,295000
2,851855	-0,174052	19,682	-0,057612	22,460000	56,295000
2,851958	-0,189238	19,782	-0,057619	22,460000	56,295000
2,851951	-0,752280	19,882	-0,057854	22,460000	56,295000
2,851908	-0,134336	19,983	-0,057596	22,460000	56,295000
2,851896	-0,395998	20,084	-0,057705	22,460000	56,295000
2,851905	-0,228955	20,184	-0,057635	22,460000	56,295000
2,851900	-0,513980	20,284	-0,057754	22,460000	56,295000
2,851905	-0,538511	20,385	-0,057765	22,460000	56,295000
2,851917	-0,570051	20,485	-0,057778	22,460000	56,295000
2,852433	0,071256	20,568	-0,057510	22,460000	56,295000
2,852493	0,063079	20,669	-0,057513	22,460000	56,295000
2,852410	0,063079	20,770	-0,057513	22,460000	56,295000
2,852425	0,331751	20,871	-0,057401	22,460000	56,295000
2,852413	0,031540	20,988	-0,057526	22,460000	56,295000
2,852413	0,324742	21,088	-0,057404	22,460000	56,295000
2,852482	0,253486	21,190	-0,057434	22,460000	56,295000
2,852461	0,134336	21,291	-0,057483	22,460000	56,295000
2,852411	0,182229	21,391	-0,057463	22,460000	56,295000
2,852463	0,071256	21,491	-0,057510	22,460000	56,295000
2,852370	-0,142513	21,593	-0,057599	22,460000	56,295000
2,852398	0,157698	21,694	-0,057474	22,460000	56,295000
2,852410	0,411184	21,795	-0,057368	22,460000	56,295000
2,852413	0,276848	21,895	-0,057424	22,460000	56,295000
2,852411	0,237132	21,995	-0,057440	22,460000	56,295000
2,852439	0,427538	22,097	-0,057361	22,460000	56,295000
2,852347	-0,079433	22,198	-0,057573	22,460000	56,295000
2,852399	0,174052	22,298	-0,057467	22,460000	56,295000
2,852388	-0,165875	22,398	-0,057609	22,460000	56,295000
2,852355	0,150690	22,498	-0,057477	22,460000	56,295000
2,852397	-0,308388	22,599	-0,057668	22,460000	56,295000
2,852410	-0,008177	22,699	-0,057543	22,460000	56,295000
2,852409	0,023363	22,800	-0,057530	22,460000	56,295000
2,852449	-0,142513	22,901	-0,057599	22,460000	56,295000
2,852403	0,047894	23,002	-0,057520	22,460000	56,295000
2,852423	0,174052	23,102	-0,057467	22,460000	56,295000
2,852382	0,324742	23,202	-0,057404	22,460000	56,295000
2,852448	0,110973	23,302	-0,057493	22,460000	56,295000
2,852409	0,047894	23,405	-0,057520	22,460000	56,295000
2,852424	0,245309	23,505	-0,057437	22,460000	56,295000
2,852416	-0,228955	23,605	-0,057635	22,460000	56,295000
2,852435	0,316565	23,706	-0,057407	22,460000	56,295000
2,852384	0,482441	23,808	-0,057338	22,460000	56,295000
2,852415	0,475432	23,908	-0,057341	22,460000	56,295000
2,852428	0,047894	24,009	-0,057520	22,460000	56,295000
2,852422	0,253486	24,111	-0,057434	22,460000	56,295000
2,852458	0,276848	24,211	-0,057424	22,460000	56,295000
2,852388	0,237132	24,311	-0,057440	22,450000	56,265000
2,852402	0,237132	24,412	-0,057440	22,450000	56,265000
2,852439	0,221946	24,512	-0,057447	22,450000	56,265000
2,852391	-0,047894	24,613	-0,057560	22,450000	56,265000
2,852440	0,071256	24,713	-0,057510	22,450000	56,265000
2,852367	-0,142513	24,814	-0,057599	22,450000	56,265000
2,852415	-0,134336	24,915	-0,057596	22,450000	56,265000
2,852388	0,047894	25,015	-0,057520	22,450000	56,265000
2,852392	0,142513	25,115	-0,057480	22,450000	56,265000
2,852426	0,261663	25,216	-0,057430	22,450000	56,265000
2,852466	0,008177	25,317	-0,057536	22,450000	56,265000
2,852405	0,190406	25,419	-0,057460	22,450000	56,265000
2,852462	0,182229	25,520	-0,057463	22,450000	56,265000
2,852384	0,134336	25,620	-0,057483	22,450000	56,265000
2,852392	0,348105	25,720	-0,057394	22,450000	56,265000
2,852369	0,205592	25,820	-0,057454	22,450000	56,265000
2,852400	0,253486	25,920	-0,057434	22,450000	56,265000
2,852409	0,308388	26,022	-0,057411	22,450000	56,265000
2,852438	0,047894	26,123	-0,057520	22,450000	56,265000
2,852436	0,197415	26,223	-0,057457	22,450000	56,265000
2,852426	0,071256	26,325	-0,057510	22,460000	56,265000
2,852420	0,056071	26,427	-0,057516	22,460000	56,265000
2,852412	0,086442	26,527	-0,057503	22,460000	56,265000
2,852384	0,253486	26,637	-0,057434	22,460000	56,265000
2,852393	0,110973	26,738	-0,057493	22,460000	56,265000
2,852459	0,379645	26,840	-0,057381	22,460000	56,265000
2,852436	-0,079433	26,943	-0,057573	22,460000	56,265000
2,852442	0,197415	27,043	-0,057457	22,460000	56,265000
2,852363	-0,054902	27,144	-0,057563	22,460000	56,265000
2,852431	0,016354	27,244	-0,057533	22,460000	56,265000
2,852423	0,008177	27,345	-0,057536	22,460000	56,265000
2,852349	-0,079433	27,445	-0,057573	22,460000	56,265000
2,852417	0,031540	27,545	-0,057526	22,460000	56,265000
2,852397	0,119150	27,646	-0,057490	22,460000	56,265000
2,852466	0,000000	27,747	-0,057540	22,460000	56,265000
2,852416	0,016354	27,847	-0,057533	22,460000	56,265000
2,852453	0,253486	27,948	-0,057434	22,460000	56,265000
2,852385	0,190406	28,048	-0,057460	22,460000	56,265000
2,852375	0,261663	28,149	-0,057430	22,460000	56,265000
2,852431	0,094619	28,249	-0,057500	22,460000	56,265000
2,852425	0,150690	28,349	-0,057477	22,460000	56,265000
2,852369	-0,063079	28,450	-0,057566	22,460000	56,265000
2,852405	-0,174052	28,551	-0,057612	22,460000	56,265000
2,852395	0,094619	28,651	-0,057500	22,460000	56,265000
2,852451	0,213769	28,760	-0,057450	22,460000	56,265000
2,852395	0,023363	28,861	-0,057530	22,460000	56,265000
2,852356	0,094619	28,961	-0,057500	22,460000	56,265000
2,852470	0,197415	29,062	-0,057457	22,460000	56,265000
2,852402	0,150690	29,162	-0,057477	22,460000	56,265000
2,852461	0,300211	29,262	-0,057414	22,460000	56,265000
2,852417	0,142513	29,363	-0,057480	22,460000	56,265000
2,852372	0,008177	29,463	-0,057536	22,460000	56,265000
2,852452	0,213769	29,563	-0,057450	22,460000	56,265000
2,852403	0,150690	29,664	-0,057477	22,460000	56,265000
2,852402	0,023363	29,766	-0,057530	22,460000	56,265000
2,852398	-0,015186	29,867	-0,057546	22,460000	56,265000
2,852400	0,086442	29,968	-0,057503	22,460000	56,265000
2,852360	0,197415	30,069	-0,057457	22,460000	56,265000
2,852379	-0,285025	30,169	-0,057659	22,460000	56,265000
2,852373	-0,403007	30,269	-0,057708	22,460000	56,265000
2,852417	-0,047894	30,370	-0,057560	22,460000	56,265000
2,852351	-0,031540	30,470	-0,057553	22,460000	56,265000
2,852434	-0,165875	30,570	-0,057609	22,460000	56,265000
2,852402	-0,008177	30,670	-0,057543	22,460000	56,265000
2,851914	-0,830545	30,751	-0,057887	22,460000	56,265000
2,851902	-0,807183	30,852	-0,057877	22,460000	56,265000
2,852013	-0,648316	30,952	-0,057811	22,460000	56,265000
2,851892	-0,403007	31,053	-0,057708	22,460000	56,265000
2,851913	-0,846899	31,154	-0,057894	22,460000	56,265000
2,851909	-0,704387	31,254	-0,057834	22,460000	56,265000
2,851896	-0,561874	31,355	-0,057774	22,460000	56,265000
2,851916	-0,633130	31,455	-0,057804	22,460000	56,265000
2,851936	-0,853908	31,558	-0,057896	22,460000	56,265000
2,851870	-0,641307	31,660	-0,057808	22,460000	56,265000
2,851915	-0,442724	31,760	-0,057725	22,460000	56,265000
2,851914	-0,799006	31,861	-0,057874	22,460000	56,265000
2,851908	-0,664670	31,962	-0,057817	22,460000	56,265000
2,851945	-0,395998	32,062	-0,057705	22,460000	56,265000
2,851897	-0,442724	32,162	-0,057725	22,460000	56,265000
2,851934	-0,379645	32,262	-0,057698	22,460000	56,265000
2,851912	-1,060668	32,362	-0,057983	22,450000	56,265000
2,851963	-0,981235	32,462	-0,057950	22,450000	56,265000
2,851978	-0,467255	32,562	-0,057735	22,450000	56,265000
2,851965	-0,775643	32,662	-0,057864	22,450000	56,265000
2,851930	-0,822368	32,762	-0,057883	22,450000	56,265000
2,851891	-0,704387	32,862	-0,057834	22,450000	56,265000
2,851977	-0,775643	32,962	-0,057864	22,450000	56,265000
2,851932	-1,004598	33,062	-0,057959	22,450000	56,265000
2,851926	-0,482441	33,163	-0,057741	22,450000	56,265000
2,851962	-0,442724	33,263	-0,057725	22,450000	56,265000
2,851920	-0,585237	33,365	-0,057784	22,450000	56,265000
2,851913	-0,735926	33,465	-0,057847	22,450000	56,265000
2,851939	-0,664670	33,565	-0,057817	22,450000	56,265000
2,851949	-0,744103	33,666	-0,057851	22,450000	56,265000
2,851911	-0,545520	33,767	-0,057768	22,450000	56,265000
2,851928	-0,815360	33,868	-0,057880	22,450000	56,265000
2,851892	-0,419361	33,968	-0,057715	22,450000	56,265000
2,851919	-0,474264	34,069	-0,057738	22,450000	56,265000
2,851957	-0,419361	34,177	-0,057715	22,450000	56,265000
2,851929	-0,253486	34,279	-0,057646	22,450000	56,265000
2,851921	-0,688033	34,379	-0,057827	22,460000	56,265000
2,851927	-0,545520	34,480	-0,057768	22,460000	56,265000
2,851899	-0,498794	34,580	-0,057748	22,460000	56,265000
2,851927	-1,004598	34,680	-0,057959	22,460000	56,265000
2,851873	-0,672847	34,780	-0,057821	22,460000	56,265000
2,851943	-0,545520	34,880	-0,057768	22,460000	56,265000
2,851911	-0,585237	34,980	-0,057784	22,460000	56,265000
2,851848	-0,830545	35,081	-0,057887	22,460000	56,265000
2,851922	-0,482441	35,182	-0,057741	22,460000	56,265000
2,851940	-0,601591	35,282	-0,057791	22,460000	56,265000
2,851885	-0,379645	35,382	-0,057698	22,460000	56,265000
2,851935	-0,506971	35,483	-0,057751	22,460000	56,265000
2,851900	-0,450901	35,585	-0,057728	22,460000	56,265000
2,851952	-0,838722	35,686	-0,057890	22,460000	56,265000
2,851909	-0,553697	35,787	-0,057771	22,460000	56,265000
2,851882	-0,616776	35,888	-0,057797	22,460000	56,265000
2,851961	-0,815360	35,988	-0,057880	22,460000	56,265000
2,851954	-0,696210	36,088	-0,057831	22,460000	56,265000
2,851928	-0,348105	36,190	-0,057685	22,460000	56,265000
2,851991	-0,735926	36,291	-0,057847	22,460000	56,280000
2,851885	-0,316565	36,391	-0,057672	22,460000	56,280000
2,851905	-0,704387	36,491	-0,057834	22,460000	56,280000
2,851913	-0,719572	36,603	-0,057840	22,460000	56,280000
2,851930	-0,822368	36,703	-0,057883	22,460000	56,280000
2,851894	-0,530334	36,803	-0,057761	22,460000	56,280000
2,851927	-0,332919	36,903	-0,057679	22,460000	56,280000
2,851991	-0,744103	37,004	-0,057851	22,460000	56,280000
2,851908	-0,442724	37,104	-0,057725	22,460000	56,280000
2,851910	-0,688033	37,204	-0,057827	22,460000	56,280000
2,851874	-0,553697	37,305	-0,057771	22,460000	56,280000
2,851886	-0,434547	37,405	-0,057721	22,460000	56,280000
2,851877	-0,419361	37,505	-0,057715	22,460000	56,280000
2,851882	-0,371468	37,606	-0,057695	22,460000	56,280000
2,851867	-0,870262	37,707	-0,057903	22,460000	56,280000
2,851950	-0,799006	37,808	-0,057874	22,460000	56,280000
2,851900	-0,434547	37,909	-0,057721	22,460000	56,280000
2,851901	-0,712564	38,009	-0,057837	22,460000	56,280000
2,851909	-0,442724	38,110	-0,057725	22,460000	56,280000
2,851928	-0,648316	38,212	-0,057811	22,460000	56,280000
2,851868	-0,648316	38,312	-0,057811	22,460000	56,280000
2,851885	-0,608599	38,413	-0,057794	22,460000	56,280000
2,851889	-0,759289	38,514	-0,057857	22,460000	56,280000
2,851969	-0,664670	38,614	-0,057817	22,460000	56,280000
2,851921	-0,593414	38,715	-0,057788	22,460000	56,280000
2,851892	-0,356282	38,816	-0,057688	22,460000	56,280000
2,851902	-0,538511	38,917	-0,057765	22,460000	56,280000
2,851922	-0,079433	39,019	-0,057573	22,460000	56,280000
2,851871	-0,672847	39,120	-0,057821	22,460000	56,280000
2,851919	-0,561874	39,221	-0,057774	22,460000	56,280000
2,851892	-0,395998	39,321	-0,057705	22,460000	56,280000
2,851903	-0,672847	39,421	-0,057821	22,460000	56,280000
2,851932	-0,553697	39,522	-0,057771	22,460000	56,280000
2,851898	-0,688033	39,622	-0,057827	22,460000	56,280000
2,851942	-0,482441	39,723	-0,057741	22,460000	56,280000
2,851872	-0,909979	39,824	-0,057920	22,460000	56,280000
2,851936	-0,570051	39,924	-0,057778	22,460000	56,280000
2,851933	-0,570051	40,025	-0,057778	22,460000	56,280000
2,851857	-0,759289	40,125	-0,057857	22,460000	56,280000
2,851895	-0,561874	40,225	-0,057774	22,460000	56,280000
2,851880	-0,553697	40,326	-0,057771	22,460000	56,280000
2,851925	-0,427538	40,427	-0,057718	22,460000	56,280000
2,851915	-0,450901	40,528	-0,057728	22,460000	56,280000
2,851871	-0,427538	40,628	-0,057718	22,460000	56,280000
2,851879	-0,063079	40,730	-0,057566	22,460000	56,280000
2,851947	-0,363291	40,831	-0,057691	22,460000	56,280000
2,852415	0,016354	40,918	-0,057533	22,460000	56,280000
2,852408	-0,102796	41,019	-0,057583	22,460000	56,280000
2,852375	-0,253486	41,120	-0,057646	22,460000	56,280000
2,852449	-0,134336	41,221	-0,057596	22,460000	56,280000
2,852429	-0,308388	41,321	-0,057668	22,460000	56,280000
2,852423	0,000000	41,422	-0,057540	22,460000	56,280000
2,852418	0,016354	41,523	-0,057533	22,460000	56,280000
2,852401	-0,157698	41,623	-0,057605	22,460000	56,280000
2,852417	-0,094619	41,724	-0,057579	22,460000	56,280000
2,852366	0,071256	41,825	-0,057510	22,460000	56,280000
2,852406	0,000000	41,925	-0,057540	22,460000	56,280000
2,852411	-0,142513	42,025	-0,057599	22,460000	56,280000
2,852463	-0,015186	42,126	-0,057546	22,460000	56,280000
2,852428	-0,205592	42,226	-0,057625	22,460000	56,280000
2,852438	-0,174052	42,327	-0,057612	22,460000	56,265000
2,852399	-0,356282	42,428	-0,057688	22,460000	56,265000
2,852423	0,324742	42,529	-0,057404	22,460000	56,265000
2,852448	-0,182229	42,629	-0,057616	22,460000	56,265000
2,852389	0,094619	42,729	-0,057500	22,460000	56,265000
2,852409	0,213769	42,829	-0,057450	22,460000	56,265000
2,852424	-0,157698	42,929	-0,057605	22,460000	56,265000
2,852428	-0,094619	43,029	-0,057579	22,460000	56,265000
2,852412	-0,071256	43,130	-0,057569	22,460000	56,265000
2,852451	-0,134336	43,232	-0,057596	22,460000	56,265000
2,852431	-0,213769	43,332	-0,057629	22,460000	56,265000
2,852398	0,063079	43,432	-0,057513	22,460000	56,265000
2,852438	-0,253486	43,532	-0,057646	22,460000	56,265000
2,852396	0,071256	43,633	-0,057510	22,460000	56,265000
2,852417	0,094619	43,734	-0,057500	22,460000	56,265000
2,852412	0,094619	43,837	-0,057500	22,460000	56,265000
2,852435	0,110973	43,938	-0,057493	22,460000	56,265000
2,852364	-0,221946	44,038	-0,057632	22,460000	56,265000
2,852419	-0,261663	44,138	-0,057649	22,460000	56,265000
2,852414	-0,142513	44,242	-0,057599	22,460000	56,265000
2,852442	-0,126159	44,342	-0,057592	22,460000	56,295000
2,852406	-0,110973	44,442	-0,057586	22,460000	56,295000
2,852395	0,102796	44,542	-0,057497	22,460000	56,295000
2,852433	0,056071	44,649	-0,057516	22,460000	56,295000
2,852454	-0,031540	44,750	-0,057553	22,460000	56,295000
2,852429	0,056071	44,851	-0,057516	22,460000	56,295000
2,852434	-0,079433	44,951	-0,057573	22,460000	56,295000
2,852367	0,110973	45,052	-0,057493	22,460000	56,295000
2,852398	-0,395998	45,152	-0,057705	22,460000	56,295000
2,852416	-0,079433	45,253	-0,057573	22,460000	56,295000
2,852398	-0,047894	45,353	-0,057560	22,460000	56,295000
2,852426	-0,110973	45,454	-0,057586	22,460000	56,295000
2,852447	-0,348105	45,555	-0,057685	22,460000	56,295000
2,852396	-0,174052	45,656	-0,057612	22,460000	56,295000
2,852450	-0,008177	45,768	-0,057543	22,460000	56,295000
2,852433	-0,339928	45,869	-0,057682	22,460000	56,295000
2,852386	-0,197415	45,969	-0,057622	22,460000	56,295000
2,852372	-0,379645	46,069	-0,057698	22,460000	56,295000
2,852374	-0,039717	46,170	-0,057556	22,460000	56,295000
2,852396	-0,237132	46,271	-0,057639	22,460000	56,295000
2,852330	-0,015186	46,371	-0,057546	22,460000	56,295000
2,852374	-0,213769	46,471	-0,057629	22,460000	56,295000
2,852442	-0,316565	46,571	-0,057672	22,460000	56,295000
2,852402	-0,063079	46,671	-0,057566	22,460000	56,295000
2,852390	-0,205592	46,772	-0,057625	22,460000	56,295000
2,852434	-0,300211	46,872	-0,057665	22,460000	56,295000
2,852405	-0,253486	46,974	-0,057646	22,460000	56,295000
2,852402	-0,149522	47,074	-0,057602	22,460000	56,295000
2,852393	-0,031540	47,175	-0,057553	22,460000	56,295000
2,852353	0,008177	47,275	-0,057536	22,460000	56,295000
2,852395	-0,332919	47,375	-0,057679	22,460000	56,295000
2,852398	-0,142513	47,477	-0,057599	22,460000	56,295000
2,852388	0,071256	47,577	-0,057510	22,460000	56,295000
2,852384	-0,285025	47,677	-0,057659	22,460000	56,295000
2,852423	-0,008177	47,777	-0,057543	22,460000	56,295000
2,852407	0,086442	47,879	-0,057503	22,460000	56,295000
2,852404	-0,039717	47,979	-0,057556	22,460000	56,295000
2,852376	0,134336	48,079	-0,057483	22,460000	56,295000
2,852368	0,063079	48,179	-0,057513	22,460000	56,295000
2,852430	-0,356282	48,279	-0,057688	22,460000	56,295000
2,852435	-0,087610	48,381	-0,057576	22,460000	56,255000
2,852402	-0,054902	48,482	-0,057563	22,460000	56,255000
2,852396	-0,197415	48,582	-0,057622	22,460000	56,255000
2,852441	-0,308388	48,682	-0,057668	22,460000	56,255000
2,852456	0,016354	48,782	-0,057533	22,460000	56,255000
2,852360	-0,221946	48,882	-0,057632	22,460000	56,255000
2,852390	-0,087610	48,982	-0,057576	22,460000	56,255000
2,852373	-0,054902	49,082	-0,057563	22,460000	56,255000
2,852431	-0,371468	49,182	-0,057695	22,460000	56,255000
2,852380	-0,047894	49,282	-0,057560	22,460000	56,255000
2,852386	-0,189238	49,383	-0,057619	22,460000	56,255000
2,852453	-0,300211	49,484	-0,057665	22,460000	56,255000
2,852380	-0,339928	49,584	-0,057682	22,460000	56,255000
2,852430	-0,197415	49,684	-0,057622	22,460000	56,255000
2,852399	0,023363	49,784	-0,057530	22,460000	56,255000
2,852402	-0,228955	49,885	-0,057635	22,460000	56,255000
2,852448	0,379645	49,986	-0,057381	22,460000	56,255000
2,852379	0,427538	50,087	-0,057361	22,460000	56,255000
2,852393	-0,379645	50,193	-0,057698	22,460000	56,255000
2,852469	-0,079433	50,294	-0,057573	22,460000	56,255000
2,852347	-0,189238	50,394	-0,057619	22,460000	56,255000
2,852424	-0,221946	50,494	-0,057632	22,460000	56,255000
2,852452	0,182229	50,606	-0,057463	22,460000	56,255000
2,852390	-0,189238	50,708	-0,057619	22,460000	56,255000
2,852383	-0,371468	50,809	-0,057695	22,460000	56,255000
2,852384	-0,174052	50,909	-0,057612	22,460000	56,255000
2,852396	0,205592	51,010	-0,057454	22,460000	56,255000
2,851873	-0,411184	51,097	-0,057711	22,460000	56,255000
2,851874	-0,482441	51,197	-0,057741	22,460000	56,255000
2,851873	-0,276848	51,298	-0,057655	22,460000	56,255000
2,851902	-0,664670	51,405	-0,057817	22,460000	56,255000
2,851938	-0,561874	51,505	-0,057774	22,460000	56,255000
2,851914	-0,608599	51,606	-0,057794	22,460000	56,255000
2,851913	-0,467255	51,707	-0,057735	22,460000	56,255000
2,851977	-0,838722	51,814	-0,057890	22,460000	56,255000
2,851913	-0,838722	51,915	-0,057890	22,460000	56,255000
2,851920	-0,545520	52,016	-0,057768	22,460000	56,255000
2,851877	-0,316565	52,117	-0,057672	22,460000	56,255000
2,851908	-0,308388	52,220	-0,057668	22,460000	56,255000
2,851874	-0,308388	52,320	-0,057668	22,460000	56,265000
2,851952	-0,459078	52,421	-0,057731	22,460000	56,265000
2,851905	-0,538511	52,521	-0,057765	22,460000	56,265000
2,851907	-0,054902	52,622	-0,057563	22,460000	56,265000
2,851942	-0,387821	52,722	-0,057702	22,460000	56,265000
2,851922	-0,664670	52,823	-0,057817	22,460000	56,265000
2,851885	-0,348105	52,923	-0,057685	22,460000	56,265000
2,851870	-0,681024	53,026	-0,057824	22,460000	56,265000
2,851871	-0,300211	53,127	-0,057665	22,460000	56,265000
2,851886	-0,506971	53,227	-0,057751	22,460000	56,265000
2,851922	-0,308388	53,329	-0,057668	22,460000	56,265000
2,851950	-0,434547	53,431	-0,057721	22,460000	56,265000
2,851895	-0,933341	53,531	-0,057930	22,460000	56,265000
2,851934	-0,957872	53,631	-0,057940	22,460000	56,265000
2,851857	-0,387821	53,732	-0,057702	22,460000	56,265000
2,851880	-0,498794	53,832	-0,057748	22,460000	56,265000
2,851880	-0,767466	53,932	-0,057860	22,460000	56,265000
2,851883	-0,688033	54,033	-0,057827	22,460000	56,265000
2,851991	-0,570051	54,135	-0,057778	22,460000	56,265000
2,851895	-0,616776	54,235	-0,057797	22,460000	56,265000
2,851947	-0,482441	54,336	-0,057741	22,450000	56,265000
2,851871	-0,719572	54,436	-0,057840	22,450000	56,265000
2,851960	-0,513980	54,536	-0,057754	22,450000	56,265000
2,851902	-0,727749	54,637	-0,057844	22,450000	56,265000
2,851930	-0,822368	54,737	-0,057883	22,450000	56,265000
2,851885	-0,561874	54,838	-0,057774	22,450000	56,265000
2,851954	-0,712564	54,940	-0,057837	22,450000	56,265000
2,851933	-0,853908	55,041	-0,057896	22,450000	56,265000
2,851913	-0,513980	55,142	-0,057754	22,450000	56,265000
2,851880	-0,467255	55,243	-0,057735	22,450000	56,265000
2,851934	-0,846899	55,343	-0,057894	22,450000	56,265000
2,851908	-0,513980	55,452	-0,057754	22,450000	56,265000
2,851884	-0,909979	55,552	-0,057920	22,450000	56,265000
2,851924	-0,752280	55,653	-0,057854	22,450000	56,265000
2,851871	-0,570051	55,754	-0,057778	22,450000	56,265000
2,851950	-0,681024	55,855	-0,057824	22,450000	56,265000
2,851872	-0,585237	55,955	-0,057784	22,450000	56,265000
2,851934	-0,339928	56,057	-0,057682	22,450000	56,265000
2,851937	-0,332919	56,158	-0,057679	22,450000	56,265000
2,851938	-0,672847	56,262	-0,057821	22,450000	56,265000
2,851964	-0,790829	56,362	-0,057870	22,450000	56,265000
2,851926	-0,624953	56,462	-0,057801	22,450000	56,265000
2,851954	-0,783820	56,563	-0,057867	22,450000	56,265000
2,851877	-0,530334	56,664	-0,057761	22,450000	56,265000
2,851914	-0,608599	56,765	-0,057794	22,450000	56,265000
2,851923	-0,664670	56,866	-0,057817	22,450000	56,265000
2,851921	-0,807183	56,976	-0,057877	22,450000	56,265000
2,851888	-0,616776	57,076	-0,057797	22,450000	56,265000
2,851924	-0,712564	57,176	-0,057837	22,450000	56,265000
2,851905	-0,641307	57,276	-0,057808	22,450000	56,265000
2,851898	-0,759289	57,377	-0,057857	22,450000	56,265000
2,851873	-0,799006	57,477	-0,057874	22,450000	56,265000
2,851947	-0,672847	57,579	-0,057821	22,450000	56,265000
2,851940	-0,348105	57,680	-0,057685	22,450000	56,265000
2,851891	-0,672847	57,782	-0,057821	22,450000	56,265000
2,851901	-0,656493	57,882	-0,057814	22,450000	56,265000
2,851941	-0,641307	57,982	-0,057808	22,450000	56,265000
2,851883	-0,672847	58,082	-0,057821	22,450000	56,265000
2,851889	-0,783820	58,184	-0,057867	22,450000	56,265000
2,851864	-1,012775	58,286	-0,057963	22,450000	56,265000
2,851927	-0,593414	58,386	-0,057788	22,450000	56,265000
2,851928	-0,704387	58,487	-0,057834	22,450000	56,265000
2,851894	-0,941518	58,587	-0,057933	22,450000	56,265000
2,851876	-0,633130	58,688	-0,057804	22,450000	56,265000
2,851906	-0,616776	58,788	-0,057797	22,450000	56,265000
2,851887	-0,853908	58,889	-0,057896	22,450000	56,265000
2,851901	-0,434547	59,009	-0,057721	22,450000	56,265000
2,851858	-0,656493	59,110	-0,057814	22,450000	56,265000
2,851906	-0,608599	59,210	-0,057794	22,450000	56,265000
2,851855	-0,324742	59,311	-0,057675	22,450000	56,265000
2,851848	-0,403007	59,423	-0,057708	22,450000	56,265000
2,851917	-0,608599	59,525	-0,057794	22,450000	56,265000
2,851949	-0,601591	59,625	-0,057791	22,450000	56,265000
2,851853	-0,545520	59,725	-0,057768	22,450000	56,265000
2,851899	-0,648316	59,832	-0,057811	22,450000	56,265000
2,851900	-0,545520	59,932	-0,057768	22,450000	56,265000
2,851886	-0,830545	60,032	-0,057887	22,450000	56,265000
2,851917	-0,403007	60,133	-0,057708	22,450000	56,265000
2,851931	-0,744103	60,234	-0,057851	22,450000	56,265000
2,851887	-0,870262	60,335	-0,057903	22,450000	56,265000
2,851878	-0,513980	60,436	-0,057754	22,450000	56,265000
2,851905	-0,807183	60,536	-0,057877	22,450000	56,265000
2,851906	-0,681024	60,640	-0,057824	22,450000	56,265000
2,851876	-0,490618	60,740	-0,057745	22,450000	56,265000
2,851894	-0,371468	60,840	-0,057695	22,450000	56,265000
2,851851	-0,893625	60,941	-0,057913	22,450000	56,265000
2,851920	-0,664670	61,041	-0,057817	22,450000	56,265000
2,851878	-0,561874	61,141	-0,057774	22,450000	56,265000
2,851894	-0,941518	61,191	-0,057933	22,450000	56,265000