File: Nanoindentation Datenauswertung/data/MEMS Resolution Test/MEMS step test,0,5nm,10Hz-2
Quasi static measurement routine
Tip parameters (shape,radius, material...)
17.08.2022

Piezo position[nm]	MEMS displ.[nm]	Time[ms]	Cap [pf]	Temp [°C]	Rh [%]
eoh
2,851928	-0,174052	0,189	-0,056736	22,460000	56,310000
2,852387	-0,047894	0,296	-0,056683	22,460000	56,310000
2,852454	0,269840	0,396	-0,056550	22,460000	56,310000
2,852386	0,126159	0,496	-0,056610	22,460000	56,310000
2,852442	0,190406	0,596	-0,056583	22,460000	56,310000
2,852404	0,174052	0,697	-0,056590	22,460000	56,310000
2,852388	0,364459	0,797	-0,056511	22,460000	56,310000
2,852379	0,316565	0,897	-0,056531	22,460000	56,310000
2,852402	0,276848	0,997	-0,056547	22,460000	56,310000
2,852412	0,213769	1,098	-0,056574	22,460000	56,310000
2,852430	0,016354	1,198	-0,056656	22,460000	56,310000
2,852373	0,134336	1,298	-0,056607	22,460000	56,310000
2,852398	0,102796	1,398	-0,056620	22,460000	56,310000
2,852433	0,522157	1,498	-0,056445	22,460000	56,310000
2,852390	0,838722	1,598	-0,056313	22,450000	56,280000
2,852421	0,379645	1,698	-0,056504	22,450000	56,280000
2,852432	0,450901	1,800	-0,056475	22,450000	56,280000
2,852413	0,293202	1,901	-0,056541	22,450000	56,280000
2,852408	0,237132	2,001	-0,056564	22,450000	56,280000
2,852421	0,063079	2,102	-0,056637	22,450000	56,280000
2,852359	0,071256	2,203	-0,056633	22,450000	56,280000
2,852401	-0,165875	2,304	-0,056732	22,450000	56,280000
2,852446	0,126159	2,405	-0,056610	22,450000	56,280000
2,852383	0,190406	2,505	-0,056583	22,450000	56,280000
2,852408	-0,071256	2,605	-0,056693	22,450000	56,280000
2,852428	0,182229	2,706	-0,056587	22,450000	56,280000
2,852333	0,134336	2,807	-0,056607	22,450000	56,280000
2,852426	0,134336	2,908	-0,056607	22,450000	56,280000
2,852403	0,110973	3,008	-0,056617	22,450000	56,280000
2,852442	0,079433	3,109	-0,056630	22,450000	56,280000
2,852439	0,213769	3,210	-0,056574	22,450000	56,280000
2,852416	0,150690	3,311	-0,056600	22,450000	56,280000
2,852443	-0,031540	3,411	-0,056676	22,450000	56,280000
2,852409	0,269840	3,512	-0,056550	22,450000	56,280000
2,852416	0,221946	3,612	-0,056570	22,450000	56,280000
2,852437	0,119150	3,712	-0,056613	22,450000	56,280000
2,852370	0,237132	3,812	-0,056564	22,450000	56,280000
2,852372	0,261663	3,914	-0,056554	22,450000	56,280000
2,852421	0,031540	4,015	-0,056650	22,450000	56,280000
2,852444	0,158867	4,115	-0,056597	22,450000	56,280000
2,852423	0,134336	4,215	-0,056607	22,450000	56,280000
2,852411	-0,157698	4,316	-0,056729	22,450000	56,280000
2,852406	-0,023363	4,417	-0,056673	22,450000	56,280000
2,852351	-0,054902	4,518	-0,056686	22,450000	56,280000
2,852397	-0,087610	4,618	-0,056700	22,450000	56,280000
2,852388	-0,079433	4,718	-0,056696	22,450000	56,280000
2,852443	0,008177	4,818	-0,056660	22,450000	56,280000
2,852413	-0,039717	4,918	-0,056680	22,450000	56,280000
2,852470	-0,079433	5,018	-0,056696	22,450000	56,280000
2,852411	0,119150	5,118	-0,056613	22,450000	56,280000
2,852429	0,119150	5,218	-0,056613	22,450000	56,280000
2,852438	-0,110973	5,319	-0,056709	22,450000	56,280000
2,852440	-0,134336	5,420	-0,056719	22,450000	56,280000
2,852451	-0,054902	5,520	-0,056686	22,450000	56,280000
2,852445	0,047894	5,620	-0,056643	22,460000	56,310000
2,852380	-0,442724	5,722	-0,056848	22,460000	56,310000
2,852406	-0,253486	5,822	-0,056769	22,460000	56,310000
2,852432	-0,149522	5,922	-0,056726	22,460000	56,310000
2,852447	-0,071256	6,023	-0,056693	22,460000	56,310000
2,852431	-0,117982	6,123	-0,056712	22,460000	56,310000
2,852501	-0,102796	6,225	-0,056706	22,460000	56,310000
2,852452	0,016354	6,325	-0,056656	22,460000	56,310000
2,852449	-0,134336	6,425	-0,056719	22,460000	56,310000
2,852407	-0,182229	6,526	-0,056739	22,460000	56,310000
2,852409	0,095787	6,626	-0,056623	22,460000	56,310000
2,852369	-0,174052	6,727	-0,056736	22,460000	56,310000
2,852399	-0,023363	6,828	-0,056673	22,460000	56,310000
2,852405	0,119150	6,928	-0,056613	22,460000	56,310000
2,852462	-0,197415	7,029	-0,056746	22,460000	56,310000
2,852369	-0,411184	7,129	-0,056835	22,460000	56,310000
2,852457	0,301379	7,229	-0,056537	22,460000	56,310000
2,852434	-0,213769	7,330	-0,056752	22,460000	56,310000
2,852461	0,134336	7,431	-0,056607	22,460000	56,310000
2,852355	-0,094619	7,532	-0,056703	22,460000	56,310000
2,852391	-0,031540	7,632	-0,056676	22,460000	56,310000
2,852436	0,174052	7,733	-0,056590	22,460000	56,310000
2,852483	0,126159	7,833	-0,056610	22,460000	56,310000
2,852469	-0,260495	7,933	-0,056772	22,460000	56,310000
2,852425	-0,149522	8,034	-0,056726	22,460000	56,310000
2,852400	-0,213769	8,134	-0,056752	22,460000	56,310000
2,852458	-0,221946	8,235	-0,056756	22,460000	56,310000
2,852413	-0,585237	8,335	-0,056908	22,460000	56,310000
2,852395	-0,331751	8,435	-0,056802	22,460000	56,310000
2,852436	-0,174052	8,535	-0,056736	22,460000	56,310000
2,852394	-0,110973	8,635	-0,056709	22,460000	56,310000
2,852358	-0,293202	8,736	-0,056786	22,460000	56,310000
2,852426	0,165875	8,836	-0,056594	22,460000	56,310000
2,852414	-0,157698	8,937	-0,056729	22,460000	56,310000
2,852381	-0,268672	9,037	-0,056775	22,460000	56,310000
2,852402	-0,149522	9,137	-0,056726	22,460000	56,310000
2,852434	-0,039717	9,237	-0,056680	22,460000	56,310000
2,852434	-0,142513	9,338	-0,056723	22,460000	56,310000
2,852423	-0,039717	9,438	-0,056680	22,460000	56,310000
2,852416	-0,316565	9,539	-0,056795	22,460000	56,310000
2,852407	-0,031540	9,639	-0,056676	22,450000	56,280000
2,852430	0,000000	9,741	-0,056663	22,450000	56,280000
2,852438	0,063079	9,842	-0,056637	22,450000	56,280000
2,852404	-0,356282	9,943	-0,056812	22,450000	56,280000
2,852384	-0,300211	10,044	-0,056789	22,450000	56,280000
2,852388	0,142513	10,144	-0,056604	22,450000	56,280000
2,852437	-0,293202	10,244	-0,056786	22,450000	56,280000
2,852441	-0,467255	10,344	-0,056858	22,450000	56,280000
2,851845	-0,893625	10,430	-0,057037	22,450000	56,280000
2,851966	-0,506971	10,531	-0,056875	22,450000	56,280000
2,851864	-0,679856	10,632	-0,056947	22,450000	56,280000
2,851905	-0,696210	10,732	-0,056954	22,450000	56,280000
2,851903	-1,036137	10,832	-0,057096	22,450000	56,280000
2,851937	-0,838722	10,932	-0,057014	22,450000	56,280000
2,851966	-0,568883	11,033	-0,056901	22,450000	56,280000
2,851889	-0,545520	11,135	-0,056891	22,450000	56,280000
2,851911	-0,830545	11,235	-0,057010	22,450000	56,280000
2,851905	-0,688033	11,335	-0,056951	22,450000	56,280000
2,851885	-0,775643	11,435	-0,056987	22,450000	56,280000
2,851950	-0,467255	11,535	-0,056858	22,450000	56,280000
2,851886	-0,688033	11,635	-0,056951	22,460000	56,295000
2,851850	-0,672847	11,736	-0,056944	22,460000	56,295000
2,851941	-0,616776	11,837	-0,056921	22,460000	56,295000
2,851888	-0,704387	11,937	-0,056958	22,460000	56,295000
2,851857	-0,799006	12,038	-0,056997	22,460000	56,295000
2,851870	-0,901802	12,138	-0,057040	22,460000	56,295000
2,851881	-0,608599	12,238	-0,056917	22,460000	56,295000
2,851908	-0,696210	12,339	-0,056954	22,460000	56,295000
2,851959	-0,782652	12,439	-0,056990	22,460000	56,295000
2,851862	-0,782652	12,540	-0,056990	22,460000	56,295000
2,851873	-0,830545	12,640	-0,057010	22,460000	56,295000
2,851916	-0,616776	12,740	-0,056921	22,460000	56,295000
2,851928	-0,767466	12,841	-0,056984	22,460000	56,295000
2,851934	-0,679856	12,942	-0,056947	22,460000	56,295000
2,851926	-0,394830	13,042	-0,056828	22,460000	56,295000
2,851905	-0,973058	13,142	-0,057070	22,460000	56,295000
2,851936	-0,735926	13,242	-0,056971	22,460000	56,295000
2,851905	-0,870262	13,343	-0,057027	22,460000	56,295000
2,851898	-1,163464	13,444	-0,057149	22,460000	56,295000
2,851939	-0,981235	13,545	-0,057073	22,460000	56,295000
2,851929	-0,996421	13,647	-0,057080	22,460000	56,310000
2,851959	-0,973058	13,748	-0,057070	22,460000	56,310000
2,851919	-1,027961	13,848	-0,057093	22,460000	56,310000
2,851927	-0,830545	13,949	-0,057010	22,460000	56,310000
2,851957	-0,838722	14,050	-0,057014	22,460000	56,310000
2,851920	-0,727749	14,151	-0,056967	22,460000	56,310000
2,851969	-0,593414	14,251	-0,056911	22,460000	56,310000
2,851904	-0,996421	14,352	-0,057080	22,460000	56,310000
2,851942	-1,384242	14,453	-0,057242	22,460000	56,310000
2,851893	-0,878439	14,554	-0,057030	22,460000	56,310000
2,851930	-0,442724	14,654	-0,056848	22,460000	56,310000
2,851891	-1,084031	14,754	-0,057116	22,460000	56,310000
2,851896	-1,163464	14,854	-0,057149	22,460000	56,310000
2,851888	-0,926333	14,955	-0,057050	22,460000	56,310000
2,851932	-0,767466	15,055	-0,056984	22,460000	56,310000
2,851886	-0,744103	15,155	-0,056974	22,460000	56,310000
2,851844	-0,853908	15,256	-0,057020	22,460000	56,310000
2,851913	-0,853908	15,356	-0,057020	22,460000	56,310000
2,851879	-1,115571	15,456	-0,057129	22,460000	56,310000
2,851938	-0,909979	15,556	-0,057043	22,460000	56,310000
2,851902	-0,822368	15,658	-0,057007	22,460000	56,310000
2,851970	-0,973058	15,758	-0,057070	22,460000	56,310000
2,851886	-0,815360	15,860	-0,057004	22,460000	56,310000
2,852002	-0,964881	15,961	-0,057066	22,460000	56,310000
2,851901	-0,537343	16,062	-0,056888	22,460000	56,310000
2,851906	-0,838722	16,162	-0,057014	22,460000	56,310000
2,851900	-0,846899	16,262	-0,057017	22,460000	56,310000
2,851963	-0,664670	16,362	-0,056941	22,460000	56,310000
2,851906	-1,067677	16,463	-0,057109	22,460000	56,310000
2,851874	-0,941518	16,563	-0,057057	22,460000	56,310000
2,851892	-0,672847	16,664	-0,056944	22,460000	56,310000
2,851876	-0,545520	16,764	-0,056891	22,460000	56,310000
2,851922	-1,027961	16,866	-0,057093	22,460000	56,310000
2,851866	-0,767466	16,966	-0,056984	22,460000	56,310000
2,851931	-0,751112	17,067	-0,056977	22,460000	56,310000
2,851863	-0,901802	17,168	-0,057040	22,460000	56,310000
2,851888	-0,909979	17,268	-0,057043	22,460000	56,310000
2,851871	-0,949695	17,368	-0,057060	22,460000	56,310000
2,851914	-0,735926	17,468	-0,056971	22,460000	56,310000
2,851951	-0,450901	17,568	-0,056852	22,460000	56,295000
2,851880	-0,782652	17,670	-0,056990	22,460000	56,295000
2,851882	-0,751112	17,770	-0,056977	22,460000	56,295000
2,851893	-0,633130	17,870	-0,056928	22,460000	56,295000
2,851898	-0,901802	17,972	-0,057040	22,460000	56,295000
2,851883	-0,735926	18,073	-0,056971	22,460000	56,295000
2,851903	-0,973058	18,173	-0,057070	22,460000	56,295000
2,851931	-0,918156	18,274	-0,057047	22,460000	56,295000
2,851928	-0,957872	18,374	-0,057063	22,460000	56,295000
2,851913	-0,846899	18,474	-0,057017	22,460000	56,295000
2,851924	-0,759289	18,574	-0,056980	22,460000	56,295000
2,851900	-0,799006	18,675	-0,056997	22,460000	56,295000
2,851892	-0,593414	18,775	-0,056911	22,460000	56,295000
2,851888	-0,957872	18,875	-0,057063	22,460000	56,295000
2,851928	-0,822368	18,975	-0,057007	22,460000	56,295000
2,851894	-0,648316	19,075	-0,056934	22,460000	56,295000
2,851881	-0,775643	19,176	-0,056987	22,460000	56,295000
2,851894	-0,988244	19,276	-0,057076	22,460000	56,295000
2,851923	-0,434547	19,376	-0,056845	22,460000	56,295000
2,851922	-0,601591	19,476	-0,056915	22,460000	56,295000
2,851932	-0,853908	19,577	-0,057020	22,460000	56,310000
2,851957	-0,648316	19,678	-0,056934	22,460000	56,310000
2,851888	-0,712564	19,778	-0,056961	22,460000	56,310000
2,851926	-0,608599	19,879	-0,056917	22,460000	56,310000
2,851872	-0,624953	19,979	-0,056924	22,460000	56,310000
2,851922	-0,522157	20,079	-0,056881	22,460000	56,310000
2,851892	-0,838722	20,180	-0,057014	22,460000	56,310000
2,851894	-0,553697	20,282	-0,056895	22,460000	56,310000
2,851936	-0,561874	20,384	-0,056898	22,460000	56,310000
2,851950	-0,656493	20,486	-0,056938	22,460000	56,310000
2,852398	-0,071256	20,573	-0,056693	22,460000	56,310000
2,852430	0,134336	20,673	-0,056607	22,460000	56,310000
2,852385	-0,253486	20,773	-0,056769	22,460000	56,310000
2,852419	-0,008177	20,874	-0,056667	22,460000	56,310000
2,852449	-0,063079	20,974	-0,056689	22,460000	56,310000
2,852478	-0,245309	21,074	-0,056766	22,460000	56,310000
2,852368	-0,260495	21,175	-0,056772	22,460000	56,310000
2,852411	0,063079	21,276	-0,056637	22,460000	56,310000
2,852453	-0,228955	21,376	-0,056759	22,460000	56,310000
2,852395	-0,308388	21,476	-0,056792	22,460000	56,310000
2,852417	0,570051	21,576	-0,056425	22,460000	56,295000
2,852411	-0,363291	21,677	-0,056815	22,460000	56,295000
2,852344	0,087610	21,778	-0,056626	22,460000	56,295000
2,852453	-0,387821	21,879	-0,056825	22,460000	56,295000
2,852367	0,095787	21,980	-0,056623	22,460000	56,295000
2,852452	-0,110973	22,081	-0,056709	22,460000	56,295000
2,852384	-0,205592	22,181	-0,056749	22,460000	56,295000
2,852429	-0,221946	22,282	-0,056756	22,460000	56,295000
2,852363	-0,245309	22,383	-0,056766	22,460000	56,295000
2,852468	-0,157698	22,485	-0,056729	22,460000	56,295000
2,852436	-0,189238	22,585	-0,056742	22,460000	56,295000
2,852442	0,063079	22,691	-0,056637	22,460000	56,295000
2,852403	-0,245309	22,793	-0,056766	22,460000	56,295000
2,852421	-0,474264	22,893	-0,056861	22,460000	56,295000
2,852414	0,056071	22,993	-0,056640	22,460000	56,295000
2,852438	-0,323574	23,093	-0,056798	22,460000	56,295000
2,852442	-0,371468	23,194	-0,056818	22,460000	56,295000
2,852412	-0,126159	23,295	-0,056716	22,460000	56,295000
2,852505	-0,323574	23,395	-0,056798	22,460000	56,295000
2,852422	-0,300211	23,518	-0,056789	22,460000	56,295000
2,852491	-0,221946	23,618	-0,056756	22,460000	56,295000
2,852486	-0,102796	23,718	-0,056706	22,460000	56,295000
2,852398	-0,047894	23,818	-0,056683	22,460000	56,295000
2,852414	-0,482441	23,920	-0,056865	22,460000	56,295000
2,852405	-0,545520	24,021	-0,056891	22,460000	56,295000
2,852394	0,158867	24,123	-0,056597	22,460000	56,295000
2,852419	-0,285025	24,223	-0,056782	22,460000	56,295000
2,852399	-0,253486	24,323	-0,056769	22,460000	56,295000
2,852396	-0,323574	24,424	-0,056798	22,460000	56,295000
2,852432	-0,276848	24,524	-0,056779	22,460000	56,295000
2,852452	-0,174052	24,625	-0,056736	22,460000	56,295000
2,852425	0,102796	24,725	-0,056620	22,460000	56,295000
2,852475	-0,237132	24,825	-0,056762	22,460000	56,295000
2,852405	-0,197415	24,925	-0,056746	22,460000	56,295000
2,852391	-0,285025	25,025	-0,056782	22,460000	56,295000
2,852413	-0,260495	25,125	-0,056772	22,460000	56,295000
2,852438	-0,008177	25,226	-0,056667	22,460000	56,295000
2,852452	-0,117982	25,326	-0,056712	22,460000	56,295000
2,852412	-0,308388	25,426	-0,056792	22,460000	56,295000
2,852425	-0,371468	25,527	-0,056818	22,460000	56,295000
2,852407	0,087610	25,627	-0,056626	22,460000	56,280000
2,852416	-0,537343	25,727	-0,056888	22,460000	56,280000
2,852423	-0,331751	25,827	-0,056802	22,460000	56,280000
2,852372	-0,300211	25,927	-0,056789	22,460000	56,280000
2,852408	0,024531	26,028	-0,056653	22,460000	56,280000
2,852393	-0,213769	26,130	-0,056752	22,460000	56,280000
2,852388	-0,117982	26,231	-0,056712	22,460000	56,280000
2,852389	-0,054902	26,332	-0,056686	22,460000	56,280000
2,852437	-0,142513	26,433	-0,056723	22,460000	56,280000
2,852400	0,119150	26,533	-0,056613	22,460000	56,280000
2,852415	-0,165875	26,636	-0,056732	22,460000	56,280000
2,852402	-0,260495	26,737	-0,056772	22,460000	56,280000
2,852415	-0,094619	26,838	-0,056703	22,460000	56,280000
2,852447	-0,079433	26,938	-0,056696	22,460000	56,280000
2,852415	-0,403007	27,038	-0,056832	22,460000	56,280000
2,852401	-0,276848	27,139	-0,056779	22,460000	56,280000
2,852414	0,395998	27,239	-0,056498	22,460000	56,280000
2,852411	-0,379645	27,340	-0,056822	22,460000	56,280000
2,852377	-0,008177	27,441	-0,056667	22,460000	56,280000
2,852461	-0,157698	27,541	-0,056729	22,460000	56,280000
2,852421	-0,079433	27,641	-0,056696	22,460000	56,280000
2,852379	-0,174052	27,741	-0,056736	22,460000	56,280000
2,852369	-0,331751	27,843	-0,056802	22,460000	56,280000
2,852393	-0,063079	27,944	-0,056689	22,460000	56,280000
2,852431	-0,031540	28,045	-0,056676	22,460000	56,280000
2,852427	-0,008177	28,147	-0,056667	22,460000	56,280000
2,852427	0,119150	28,247	-0,056613	22,460000	56,280000
2,852487	-0,260495	28,347	-0,056772	22,460000	56,280000
2,852407	-0,276848	28,447	-0,056779	22,460000	56,280000
2,852373	0,119150	28,548	-0,056613	22,460000	56,280000
2,852430	0,016354	28,648	-0,056656	22,460000	56,280000
2,852359	-0,054902	28,749	-0,056686	22,460000	56,280000
2,852345	0,008177	28,849	-0,056660	22,460000	56,280000
2,852446	0,071256	28,949	-0,056633	22,460000	56,280000
2,852411	0,079433	29,049	-0,056630	22,460000	56,280000
2,852485	0,142513	29,149	-0,056604	22,460000	56,280000
2,852447	0,182229	29,249	-0,056587	22,460000	56,280000
2,852447	-0,293202	29,350	-0,056786	22,460000	56,280000
2,852395	0,205592	29,451	-0,056577	22,460000	56,280000
2,852411	-0,102796	29,552	-0,056706	22,460000	56,280000
2,852405	0,356282	29,654	-0,056514	22,450000	56,295000
2,852506	-0,522157	29,754	-0,056881	22,450000	56,295000
2,852464	-0,221946	29,854	-0,056756	22,450000	56,295000
2,852477	-0,126159	29,954	-0,056716	22,450000	56,295000
2,852485	-0,054902	30,054	-0,056686	22,450000	56,295000
2,852423	-0,260495	30,154	-0,056772	22,450000	56,295000
2,852364	-0,182229	30,254	-0,056739	22,450000	56,295000
2,852364	0,031540	30,354	-0,056650	22,450000	56,295000
2,852454	-0,197415	30,454	-0,056746	22,450000	56,295000
2,852444	0,056071	30,554	-0,056640	22,450000	56,295000
2,852444	0,126159	30,654	-0,056610	22,450000	56,295000
2,851920	-0,799006	30,735	-0,056997	22,450000	56,295000
2,851944	-0,973058	30,835	-0,057070	22,450000	56,295000
2,851897	-0,285025	30,935	-0,056782	22,450000	56,295000
2,851950	-0,830545	31,035	-0,057010	22,450000	56,295000
2,851874	-0,308388	31,136	-0,056792	22,450000	56,295000
2,851874	-0,822368	31,237	-0,057007	22,450000	56,295000
2,851878	-0,411184	31,337	-0,056835	22,450000	56,295000
2,851918	-0,593414	31,437	-0,056911	22,450000	56,295000
2,851909	-0,767466	31,537	-0,056984	22,450000	56,295000
2,851889	-0,679856	31,638	-0,056947	22,450000	56,295000
2,851895	-0,751112	31,738	-0,056977	22,450000	56,295000
2,851948	-0,467255	31,838	-0,056858	22,450000	56,295000
2,851893	-0,513980	31,938	-0,056878	22,450000	56,295000
2,851900	-0,688033	32,038	-0,056951	22,450000	56,295000
2,851911	-0,545520	32,138	-0,056891	22,450000	56,295000
2,851892	-0,641307	32,239	-0,056931	22,450000	56,295000
2,851898	-0,513980	32,340	-0,056878	22,450000	56,295000
2,851906	-0,672847	32,440	-0,056944	22,450000	56,295000
2,851950	-0,727749	32,542	-0,056967	22,450000	56,295000
2,851872	-0,696210	32,642	-0,056954	22,450000	56,295000
2,851947	-0,759289	32,742	-0,056980	22,450000	56,295000
2,851907	-0,568883	32,844	-0,056901	22,450000	56,295000
2,851892	-0,537343	32,944	-0,056888	22,450000	56,295000
2,851937	-0,221946	33,047	-0,056756	22,450000	56,295000
2,851908	-0,427538	33,148	-0,056842	22,450000	56,295000
2,851940	-0,593414	33,248	-0,056911	22,450000	56,295000
2,851852	-0,601591	33,350	-0,056915	22,450000	56,295000
2,851886	-0,165875	33,453	-0,056732	22,450000	56,295000
2,851912	-0,616776	33,554	-0,056921	22,450000	56,295000
2,851921	-0,933341	33,654	-0,057053	22,460000	56,295000
2,851885	-0,434547	33,755	-0,056845	22,460000	56,295000
2,851871	-0,648316	33,856	-0,056934	22,460000	56,295000
2,851885	-0,427538	33,956	-0,056842	22,460000	56,295000
2,851926	-0,601591	34,058	-0,056915	22,460000	56,295000
2,851932	-0,846899	34,159	-0,057017	22,460000	56,295000
2,851938	-0,648316	34,261	-0,056934	22,460000	56,295000
2,851926	-0,474264	34,362	-0,056861	22,460000	56,295000
2,851904	-0,245309	34,462	-0,056766	22,460000	56,295000
2,851901	-0,901802	34,562	-0,057040	22,460000	56,295000
2,851894	0,031540	34,663	-0,056650	22,460000	56,295000
2,851877	-1,052491	34,763	-0,057103	22,460000	56,295000
2,851876	-0,656493	34,863	-0,056938	22,460000	56,295000
2,851899	-0,918156	34,964	-0,057047	22,460000	56,295000
2,851936	-0,221946	35,064	-0,056756	22,460000	56,295000
2,851927	-0,142513	35,164	-0,056723	22,460000	56,295000
2,851926	-0,506971	35,264	-0,056875	22,460000	56,295000
2,851945	-0,767466	35,364	-0,056984	22,460000	56,295000
2,851912	-0,568883	35,465	-0,056901	22,460000	56,295000
2,851876	-0,537343	35,565	-0,056888	22,460000	56,310000
2,851911	-0,363291	35,666	-0,056815	22,460000	56,310000
2,851920	-0,735926	35,767	-0,056971	22,460000	56,310000
2,851974	-0,403007	35,867	-0,056832	22,460000	56,310000
2,851914	-0,387821	35,968	-0,056825	22,460000	56,310000
2,851872	-0,568883	36,068	-0,056901	22,460000	56,310000
2,851932	-0,403007	36,168	-0,056832	22,460000	56,310000
2,851887	-0,593414	36,268	-0,056911	22,460000	56,310000
2,851860	-0,679856	36,370	-0,056947	22,460000	56,310000
2,851872	-0,442724	36,471	-0,056848	22,460000	56,310000
2,851862	-0,522157	36,571	-0,056881	22,460000	56,310000
2,851952	-0,323574	36,672	-0,056798	22,460000	56,310000
2,851899	-0,221946	36,772	-0,056756	22,460000	56,310000
2,851879	-0,545520	36,872	-0,056891	22,460000	56,310000
2,851939	-0,363291	36,973	-0,056815	22,460000	56,310000
2,851894	-0,712564	37,073	-0,056961	22,460000	56,310000
2,851924	-0,467255	37,173	-0,056858	22,460000	56,310000
2,851872	-0,363291	37,273	-0,056815	22,460000	56,310000
2,851914	-0,751112	37,373	-0,056977	22,460000	56,310000
2,851913	-0,782652	37,473	-0,056990	22,460000	56,310000
2,851951	-0,656493	37,573	-0,056938	22,460000	56,280000
2,851929	-0,545520	37,674	-0,056891	22,460000	56,280000
2,851903	-0,608599	37,775	-0,056917	22,460000	56,280000
2,851905	-0,442724	37,886	-0,056848	22,460000	56,280000
2,851935	-0,616776	37,986	-0,056921	22,460000	56,280000
2,851876	-0,522157	38,086	-0,056881	22,460000	56,280000
2,851944	-0,641307	38,188	-0,056931	22,460000	56,280000
2,851941	-0,696210	38,292	-0,056954	22,460000	56,280000
2,851889	-0,901802	38,392	-0,057040	22,460000	56,280000
2,851898	-0,363291	38,493	-0,056815	22,460000	56,280000
2,851881	-0,585237	38,593	-0,056908	22,460000	56,280000
2,851918	-0,371468	38,693	-0,056818	22,460000	56,280000
2,851968	-0,522157	38,793	-0,056881	22,460000	56,280000
2,851857	-0,539679	38,894	-0,056889	22,460000	56,280000
2,851961	-0,664670	38,994	-0,056941	22,460000	56,280000
2,851899	-0,537343	39,094	-0,056888	22,460000	56,280000
2,851884	-0,498794	39,195	-0,056872	22,460000	56,280000
2,851932	-0,553697	39,295	-0,056895	22,460000	56,280000
2,851877	-0,490618	39,395	-0,056868	22,460000	56,280000
2,851896	-0,941518	39,495	-0,057057	22,460000	56,280000
2,851854	-0,537343	39,595	-0,056888	22,460000	56,280000
2,851961	-0,830545	39,695	-0,057010	22,460000	56,280000
2,851896	-0,964881	39,796	-0,057066	22,460000	56,280000
2,851886	-0,387821	39,901	-0,056825	22,460000	56,280000
2,851925	-0,553697	40,002	-0,056895	22,460000	56,280000
2,851983	-0,688033	40,103	-0,056951	22,460000	56,280000
2,851993	-0,498794	40,205	-0,056872	22,460000	56,280000
2,851899	-0,775643	40,305	-0,056987	22,460000	56,280000
2,851908	-0,293202	40,405	-0,056786	22,460000	56,280000
2,851920	-0,616776	40,506	-0,056921	22,460000	56,280000
2,851913	-0,593414	40,606	-0,056911	22,460000	56,280000
2,851903	-0,561874	40,707	-0,056898	22,460000	56,280000
2,851952	-0,633130	40,808	-0,056928	22,460000	56,280000
2,852381	-0,102796	40,888	-0,056706	22,460000	56,280000
2,852420	-0,577060	40,988	-0,056904	22,460000	56,280000
2,852378	-0,363291	41,088	-0,056815	22,460000	56,280000
2,852352	-0,102796	41,188	-0,056706	22,460000	56,280000
2,852458	-0,245309	41,288	-0,056766	22,460000	56,280000
2,852472	-0,553697	41,388	-0,056895	22,460000	56,280000
2,852371	-0,134336	41,492	-0,056719	22,460000	56,280000
2,852387	-0,379645	41,592	-0,056822	22,460000	56,280000
2,852429	-0,197415	41,693	-0,056746	22,460000	56,280000
2,852415	-0,260495	41,793	-0,056772	22,460000	56,280000
2,852432	-0,157698	41,894	-0,056729	22,460000	56,280000
2,852404	-0,434547	41,994	-0,056845	22,460000	56,280000
2,852431	-0,323574	42,095	-0,056798	22,460000	56,280000
2,852491	-0,285025	42,196	-0,056782	22,460000	56,280000
2,852386	0,095787	42,298	-0,056623	22,460000	56,280000
2,852412	-0,182229	42,398	-0,056739	22,460000	56,280000
2,852422	-0,182229	42,498	-0,056739	22,460000	56,280000
2,852406	-0,110973	42,598	-0,056709	22,460000	56,280000
2,852382	0,031540	42,698	-0,056650	22,460000	56,280000
2,852390	-0,102796	42,798	-0,056706	22,460000	56,280000
2,852417	-0,513980	42,898	-0,056878	22,460000	56,280000
2,852382	-0,087610	42,998	-0,056700	22,460000	56,280000
2,852386	-0,071256	43,098	-0,056693	22,460000	56,280000
2,852471	0,309556	43,199	-0,056534	22,460000	56,280000
2,852410	-0,434547	43,300	-0,056845	22,460000	56,280000
2,852461	0,056071	43,401	-0,056640	22,460000	56,280000
2,852424	0,031540	43,502	-0,056650	22,460000	56,280000
2,852374	0,047894	43,603	-0,056643	22,460000	56,280000
2,852419	-0,063079	43,703	-0,056689	22,460000	56,280000
2,852384	-0,237132	43,804	-0,056762	22,460000	56,280000
2,852381	0,126159	43,904	-0,056610	22,460000	56,280000
2,852394	-0,245309	44,004	-0,056766	22,460000	56,280000
2,852425	-0,498794	44,104	-0,056872	22,460000	56,280000
2,852484	-0,403007	44,205	-0,056832	22,460000	56,280000
2,852463	-0,719572	44,309	-0,056964	22,460000	56,280000
2,852468	-0,149522	44,409	-0,056726	22,460000	56,280000
2,852452	-0,253486	44,509	-0,056769	22,460000	56,280000
2,852428	-0,102796	44,610	-0,056706	22,460000	56,280000
2,852435	-0,300211	44,711	-0,056789	22,460000	56,280000
2,852417	-0,031540	44,813	-0,056676	22,460000	56,280000
2,852403	-0,142513	44,913	-0,056723	22,460000	56,280000
2,852396	-0,221946	45,014	-0,056756	22,460000	56,280000
2,852428	0,221946	45,119	-0,056570	22,460000	56,280000
2,852393	-0,348105	45,219	-0,056809	22,460000	56,280000
2,852371	-0,087610	45,320	-0,056700	22,460000	56,280000
2,852435	-0,174052	45,421	-0,056736	22,460000	56,280000
2,852430	-0,197415	45,521	-0,056746	22,460000	56,280000
2,852462	-0,213769	45,622	-0,056752	22,460000	56,295000
2,852384	-0,245309	45,724	-0,056766	22,460000	56,295000
2,852433	-0,268672	45,825	-0,056775	22,460000	56,295000
2,852391	-0,189238	45,925	-0,056742	22,460000	56,295000
2,852347	-0,142513	46,025	-0,056723	22,460000	56,295000
2,852446	0,102796	46,125	-0,056620	22,460000	56,295000
2,852458	-0,063079	46,226	-0,056689	22,460000	56,295000
2,852449	-0,189238	46,326	-0,056742	22,460000	56,295000
2,852429	-0,394830	46,426	-0,056828	22,460000	56,295000
2,852448	-0,102796	46,527	-0,056706	22,460000	56,295000
2,852458	-0,323574	46,628	-0,056798	22,460000	56,295000
2,852412	0,008177	46,728	-0,056660	22,460000	56,295000
2,852386	-0,182229	46,829	-0,056739	22,460000	56,295000
2,852396	-0,117982	46,929	-0,056712	22,460000	56,295000
2,852435	0,126159	47,030	-0,056610	22,460000	56,295000
2,852449	-0,379645	47,135	-0,056822	22,460000	56,295000
2,852420	-0,008177	47,235	-0,056667	22,460000	56,295000
2,852447	-0,213769	47,337	-0,056752	22,460000	56,295000
2,852403	-0,189238	47,438	-0,056742	22,460000	56,295000
2,852384	-0,537343	47,549	-0,056888	22,460000	56,295000
2,852450	-0,221946	47,650	-0,056756	22,460000	56,295000
2,852445	-0,221946	47,751	-0,056756	22,460000	56,295000
2,852432	-0,553697	47,856	-0,056895	22,460000	56,295000
2,852440	-0,411184	47,958	-0,056835	22,460000	56,295000
2,852468	-0,331751	48,058	-0,056802	22,460000	56,295000
2,852341	-0,459078	48,158	-0,056855	22,460000	56,295000
2,852420	-0,339928	48,260	-0,056805	22,460000	56,295000
2,852369	-0,142513	48,361	-0,056723	22,460000	56,295000
2,852400	-0,561874	48,461	-0,056898	22,460000	56,295000
2,852413	-0,450901	48,562	-0,056852	22,460000	56,295000
2,852399	-0,782652	48,669	-0,056990	22,460000	56,295000
2,852449	-0,356282	48,769	-0,056812	22,460000	56,295000
2,852375	-0,379645	48,869	-0,056822	22,460000	56,295000
2,852396	-0,213769	48,969	-0,056752	22,460000	56,295000
2,852357	-0,308388	49,070	-0,056792	22,460000	56,295000
2,852414	-0,688033	49,172	-0,056951	22,460000	56,295000
2,852369	-0,577060	49,274	-0,056904	22,460000	56,295000
2,852409	-0,071256	49,374	-0,056693	22,460000	56,295000
2,852400	0,102796	49,475	-0,056620	22,460000	56,295000
2,852452	-0,363291	49,577	-0,056815	22,460000	56,295000
2,852451	-0,411184	49,677	-0,056835	22,460000	56,295000
2,852406	-0,411184	49,777	-0,056835	22,460000	56,295000
2,852333	-0,498794	49,879	-0,056872	22,460000	56,295000
2,852417	0,087610	49,980	-0,056626	22,460000	56,295000
2,852413	-0,300211	50,081	-0,056789	22,460000	56,295000
2,852429	-0,467255	50,182	-0,056858	22,460000	56,295000
2,852400	-0,427538	50,290	-0,056842	22,460000	56,295000
2,852411	-0,094619	50,391	-0,056703	22,460000	56,295000
2,852411	-0,063079	50,491	-0,056689	22,460000	56,295000
2,852415	-0,260495	50,591	-0,056772	22,460000	56,295000
2,852401	-0,213769	50,696	-0,056752	22,460000	56,295000
2,852410	-0,371468	50,796	-0,056818	22,460000	56,295000
2,852439	-0,339928	50,896	-0,056805	22,460000	56,295000
2,852402	-0,142513	50,997	-0,056723	22,460000	56,295000
2,851944	-0,506971	51,082	-0,056875	22,460000	56,295000
2,851957	-0,933341	51,183	-0,057053	22,460000	56,295000
2,851922	-0,846899	51,283	-0,057017	22,460000	56,295000
2,851888	-0,901802	51,383	-0,057040	22,460000	56,295000
2,851920	-0,679856	51,494	-0,056947	22,460000	56,295000
2,851921	-0,799006	51,595	-0,056997	22,460000	56,295000
2,851896	-0,339928	51,695	-0,056805	22,460000	56,295000
2,851917	-0,189238	51,795	-0,056742	22,460000	56,295000
2,851883	-0,933341	51,896	-0,057053	22,460000	56,295000
2,851900	-0,918156	51,997	-0,057047	22,460000	56,295000
2,851905	-0,909979	52,097	-0,057043	22,460000	56,295000
2,851962	-0,790829	52,197	-0,056994	22,460000	56,295000
2,851910	-0,641307	52,297	-0,056931	22,460000	56,295000
2,851894	-0,459078	52,398	-0,056855	22,460000	56,295000
2,851886	-0,886616	52,498	-0,057034	22,460000	56,295000
2,851888	-0,790829	52,598	-0,056994	22,460000	56,295000
2,851938	-0,957872	52,705	-0,057063	22,460000	56,295000
2,851938	-0,696210	52,805	-0,056954	22,460000	56,295000
2,851963	-0,727749	52,906	-0,056967	22,460000	56,295000
2,851890	-0,870262	53,006	-0,057027	22,460000	56,295000
2,851970	-0,933341	53,111	-0,057053	22,460000	56,295000
2,851897	-0,696210	53,211	-0,056954	22,460000	56,295000
2,851903	-0,918156	53,311	-0,057047	22,460000	56,295000
2,851909	-1,036137	53,412	-0,057096	22,460000	56,295000
2,851895	-1,044314	53,513	-0,057100	22,460000	56,295000
2,851938	-0,878439	53,613	-0,057030	22,460000	56,295000
2,851938	-0,933341	53,714	-0,057053	22,460000	56,295000
2,851902	-0,870262	53,814	-0,057027	22,460000	56,295000
2,851898	-0,918156	53,916	-0,057047	22,460000	56,295000
2,851950	-0,909979	54,017	-0,057043	22,460000	56,295000
2,851877	-0,807183	54,118	-0,057000	22,460000	56,295000
2,851913	-0,696210	54,218	-0,056954	22,460000	56,295000
2,851927	-0,830545	54,318	-0,057010	22,460000	56,295000
2,851910	-0,696210	54,419	-0,056954	22,460000	56,295000
2,851895	-0,878439	54,521	-0,057030	22,460000	56,295000
2,851913	-0,759289	54,622	-0,056980	22,460000	56,295000
2,851889	-0,790829	54,723	-0,056994	22,460000	56,295000
2,851911	-0,593414	54,823	-0,056911	22,460000	56,295000
2,851942	-0,568883	54,924	-0,056901	22,460000	56,295000
2,851841	-1,060668	55,025	-0,057106	22,460000	56,295000
2,851913	-1,138934	55,126	-0,057139	22,460000	56,295000
2,851918	-0,775643	55,227	-0,056987	22,460000	56,295000
2,851987	-0,799006	55,328	-0,056997	22,460000	56,295000
2,851968	-0,696210	55,428	-0,056954	22,460000	56,295000
2,851948	-0,624953	55,528	-0,056924	22,460000	56,295000
2,851916	-0,719572	55,628	-0,056964	22,460000	56,295000
2,851894	-0,513980	55,728	-0,056878	22,460000	56,295000
2,851963	-0,568883	55,828	-0,056901	22,460000	56,295000
2,851918	-0,467255	55,928	-0,056858	22,460000	56,295000
2,851937	-0,427538	56,028	-0,056842	22,460000	56,295000
2,851892	-0,513980	56,128	-0,056878	22,460000	56,295000
2,851945	-0,799006	56,228	-0,056997	22,460000	56,295000
2,851912	-0,442724	56,328	-0,056848	22,460000	56,295000
2,851977	-0,648316	56,428	-0,056934	22,460000	56,295000
2,851903	-0,260495	56,528	-0,056772	22,460000	56,295000
2,851896	-0,585237	56,629	-0,056908	22,460000	56,295000
2,851938	-0,513980	56,733	-0,056878	22,460000	56,295000
2,851914	-0,926333	56,833	-0,057050	22,460000	56,295000
2,851867	-0,727749	56,934	-0,056967	22,460000	56,295000
2,851897	-0,688033	57,035	-0,056951	22,460000	56,295000
2,851880	-0,585237	57,144	-0,056908	22,460000	56,295000
2,851864	-0,371468	57,245	-0,056818	22,460000	56,295000
2,851945	-0,624953	57,346	-0,056924	22,460000	56,295000
2,851919	-0,467255	57,446	-0,056858	22,460000	56,295000
2,851882	-0,450901	57,550	-0,056852	22,460000	56,295000
2,851939	-0,498794	57,652	-0,056872	22,460000	56,295000
2,851979	-0,799006	57,752	-0,056997	22,460000	56,295000
2,851926	-0,205592	57,853	-0,056749	22,460000	56,295000
2,851853	-0,846899	57,953	-0,057017	22,460000	56,295000
2,851935	-0,807183	58,053	-0,057000	22,460000	56,295000
2,851952	-0,601591	58,154	-0,056915	22,460000	56,295000
2,851855	-0,490618	58,255	-0,056868	22,460000	56,295000
2,851887	-0,545520	58,357	-0,056891	22,460000	56,295000
2,851870	-0,300211	58,458	-0,056789	22,460000	56,295000
2,851896	-0,568883	58,559	-0,056901	22,460000	56,295000
2,851923	-0,735926	58,667	-0,056971	22,460000	56,295000
2,851885	-0,553697	58,768	-0,056895	22,460000	56,295000
2,851889	-0,474264	58,868	-0,056861	22,460000	56,295000
2,851927	-0,537343	58,968	-0,056888	22,460000	56,295000
2,851893	-0,474264	59,069	-0,056861	22,460000	56,295000
2,851872	-0,403007	59,171	-0,056832	22,460000	56,295000
2,851911	-0,957872	59,271	-0,057063	22,460000	56,295000
2,851913	-0,949695	59,372	-0,057060	22,460000	56,295000
2,851943	-0,782652	59,474	-0,056990	22,460000	56,295000
2,851913	-0,498794	59,574	-0,056872	22,460000	56,280000
2,851935	-0,853908	59,674	-0,057020	22,460000	56,280000
2,851941	-0,316565	59,775	-0,056795	22,460000	56,280000
2,851932	-0,450901	59,875	-0,056852	22,460000	56,280000
2,851962	-0,918156	59,975	-0,057047	22,460000	56,280000
2,851898	-0,981235	60,076	-0,057073	22,460000	56,280000
2,851932	-0,624953	60,176	-0,056924	22,460000	56,280000
2,851932	-0,735926	60,277	-0,056971	22,460000	56,280000
2,851896	-0,949695	60,378	-0,057060	22,460000	56,280000
2,851932	-1,115571	60,478	-0,057129	22,460000	56,280000
2,851940	-0,316565	60,578	-0,056795	22,460000	56,280000
2,851877	-0,727749	60,678	-0,056967	22,460000	56,280000
2,851946	-0,846899	60,780	-0,057017	22,460000	56,280000
2,851927	-0,822368	60,880	-0,057007	22,460000	56,280000
2,851878	-0,751112	60,981	-0,056977	22,460000	56,280000
2,851890	-0,585237	61,082	-0,056908	22,460000	56,280000
310000
2,851891	-7,794978	61,224	-0,056415	22,460000	56,310000
2,851909	-7,952676	61,274	-0,056481	22,460000	56,310000