File: Nanoindentation Datenauswertung/data/MEMS Resolution Test/MEMS step test,1nm,10Hz-3
Quasi static measurement routine
Tip parameters (shape,radius, material...)
17.08.2022

Piezo position[nm]	MEMS displ.[nm]	Time[ms]	Cap [pf]	Temp [°C]	Rh [%]
eoh
2,783894	0,513980	0,207	-0,071418	22,460000	56,730000
2,784888	1,052491	2,209	-0,071193	22,460000	56,740000
2,784887	0,878439	2,309	-0,071266	22,460000	56,740000
2,784888	0,672847	2,409	-0,071352	22,460000	56,740000
2,784849	0,727749	2,509	-0,071329	22,460000	56,740000
2,784885	0,893625	2,609	-0,071260	22,460000	56,740000
2,784936	1,131925	2,710	-0,071160	22,460000	56,740000
2,784902	1,029129	2,810	-0,071203	22,460000	56,740000
2,784902	0,783820	2,911	-0,071306	22,460000	56,740000
2,784908	1,107394	3,011	-0,071170	22,460000	56,740000
2,784879	0,981235	3,111	-0,071223	22,460000	56,740000
2,784913	1,131925	3,211	-0,071160	22,460000	56,740000
2,784918	0,799006	3,311	-0,071299	22,460000	56,740000
2,784899	0,767466	3,411	-0,071313	22,460000	56,740000
2,784842	0,624953	3,511	-0,071372	22,460000	56,740000
2,784942	0,815360	3,611	-0,071292	22,460000	56,740000
2,784932	0,735926	3,711	-0,071326	22,460000	56,740000
2,784874	0,633130	3,811	-0,071369	22,460000	56,740000
2,784916	0,672847	3,911	-0,071352	22,460000	56,740000
2,784870	1,107394	4,011	-0,071170	22,460000	56,740000
2,784911	1,131925	4,111	-0,071160	22,460000	56,740000
2,784919	0,973058	4,212	-0,071227	22,460000	56,740000
2,784858	1,029129	4,312	-0,071203	22,460000	56,740000
2,784896	0,704387	4,413	-0,071339	22,460000	56,740000
2,784884	0,957872	4,513	-0,071233	22,460000	56,740000
2,784955	0,807183	4,613	-0,071296	22,460000	56,740000
2,784921	1,029129	4,713	-0,071203	22,460000	56,740000
2,784842	0,767466	4,813	-0,071313	22,460000	56,740000
2,784880	0,561874	4,913	-0,071398	22,460000	56,740000
2,784901	0,855076	5,014	-0,071276	22,460000	56,740000
2,784925	1,218367	5,114	-0,071124	22,460000	56,740000
2,784904	0,996421	5,215	-0,071217	22,460000	56,740000
2,784890	0,815360	5,315	-0,071292	22,460000	56,740000
2,784840	0,855076	5,417	-0,071276	22,460000	56,740000
2,784917	0,672847	5,519	-0,071352	22,460000	56,740000
2,784874	0,862085	5,620	-0,071273	22,460000	56,740000
2,784840	0,696210	5,721	-0,071342	22,460000	56,740000
2,784877	0,823537	5,821	-0,071289	22,460000	56,740000
2,784905	0,885448	5,921	-0,071263	22,460000	56,740000
2,784940	0,862085	6,022	-0,071273	22,460000	56,740000
2,784880	0,964881	6,123	-0,071230	22,460000	56,740000
2,784907	1,163464	6,223	-0,071147	22,460000	56,740000
2,784884	0,442724	6,323	-0,071448	22,460000	56,740000
2,784877	0,893625	6,423	-0,071260	22,460000	56,740000
2,784929	0,649484	6,524	-0,071362	22,460000	56,740000
2,784873	0,838722	6,624	-0,071283	22,460000	56,740000
2,784893	0,712564	6,726	-0,071335	22,460000	56,740000
2,784862	0,641307	6,826	-0,071365	22,460000	56,740000
2,784912	0,830545	6,927	-0,071286	22,460000	56,740000
2,784887	0,395998	7,027	-0,071468	22,460000	56,740000
2,784889	1,060668	7,128	-0,071190	22,460000	56,740000
2,784938	0,807183	7,229	-0,071296	22,460000	56,740000
2,784917	0,759289	7,330	-0,071316	22,460000	56,740000
2,784928	0,893625	7,430	-0,071260	22,460000	56,740000
2,784899	0,799006	7,530	-0,071299	22,460000	56,740000
2,784926	0,601591	7,630	-0,071382	22,460000	56,740000
2,784921	0,807183	7,730	-0,071296	22,470000	56,730000
2,784909	0,918156	7,830	-0,071250	22,470000	56,730000
2,784931	1,012775	7,930	-0,071210	22,470000	56,730000
2,784859	0,649484	8,031	-0,071362	22,470000	56,730000
2,784903	0,830545	8,132	-0,071286	22,470000	56,730000
2,784920	0,656493	8,232	-0,071359	22,470000	56,730000
2,784961	0,790829	8,332	-0,071303	22,470000	56,730000
2,784882	0,909979	8,433	-0,071253	22,470000	56,730000
2,784906	0,893625	8,533	-0,071260	22,470000	56,730000
2,784892	0,815360	8,633	-0,071292	22,470000	56,730000
2,784913	1,163464	8,733	-0,071147	22,470000	56,730000
2,784882	0,909979	8,833	-0,071253	22,470000	56,730000
2,784865	1,107394	8,933	-0,071170	22,470000	56,730000
2,784874	0,664670	9,033	-0,071355	22,470000	56,730000
2,784844	0,830545	9,135	-0,071286	22,470000	56,730000
2,784954	0,790829	9,235	-0,071303	22,470000	56,730000
2,784894	0,609767	9,335	-0,071378	22,470000	56,730000
2,784863	0,885448	9,436	-0,071263	22,470000	56,730000
2,784905	0,957872	9,538	-0,071233	22,470000	56,730000
2,784896	0,957872	9,638	-0,071233	22,470000	56,730000
2,784926	0,862085	9,738	-0,071273	22,470000	56,730000
2,784892	0,616776	9,839	-0,071375	22,470000	56,730000
2,784898	0,878439	9,939	-0,071266	22,470000	56,730000
2,784880	0,799006	10,039	-0,071299	22,470000	56,730000
2,784867	0,957872	10,140	-0,071233	22,470000	56,730000
2,784920	1,297800	10,241	-0,071091	22,470000	56,730000
2,784895	0,964881	10,342	-0,071230	22,470000	56,730000
2,784893	0,672847	10,442	-0,071352	22,470000	56,730000
2,784887	1,289623	10,543	-0,071094	22,470000	56,730000
2,784874	0,790829	10,643	-0,071303	22,470000	56,730000
2,784864	0,649484	10,743	-0,071362	22,470000	56,730000
2,784873	0,767466	10,843	-0,071313	22,470000	56,730000
2,784877	0,846899	10,944	-0,071279	22,470000	56,730000
2,784887	0,688033	11,044	-0,071346	22,470000	56,730000
2,784906	0,679856	11,145	-0,071349	22,470000	56,730000
2,784878	0,807183	11,245	-0,071296	22,470000	56,730000
2,784851	0,672847	11,346	-0,071352	22,470000	56,730000
2,784867	0,973058	11,447	-0,071227	22,470000	56,730000
2,784880	0,885448	11,547	-0,071263	22,470000	56,730000
2,784891	0,696210	11,647	-0,071342	22,460000	56,740000
2,784871	0,981235	11,747	-0,071223	22,460000	56,740000
2,784901	0,767466	11,848	-0,071313	22,460000	56,740000
2,784885	0,823537	11,948	-0,071289	22,460000	56,740000
2,784960	0,704387	12,049	-0,071339	22,460000	56,740000
2,784901	1,084031	12,149	-0,071180	22,460000	56,740000
2,784886	0,989412	12,249	-0,071220	22,460000	56,740000
2,783872	-0,205592	13,281	-0,071719	22,460000	56,740000
2,783918	-0,442724	13,382	-0,071818	22,460000	56,740000
2,783873	-0,182229	13,482	-0,071709	22,460000	56,740000
2,783926	-0,513980	13,582	-0,071848	22,460000	56,740000
2,783942	-0,221946	13,684	-0,071726	22,460000	56,740000
2,783902	-0,268672	13,784	-0,071746	22,460000	56,740000
2,783867	-0,356282	13,885	-0,071782	22,460000	56,740000
2,783919	-0,538511	13,986	-0,071858	22,460000	56,740000
2,783936	-0,245309	14,086	-0,071736	22,460000	56,740000
2,783893	-0,127327	14,188	-0,071687	22,460000	56,740000
2,783912	-0,253486	14,288	-0,071739	22,460000	56,740000
2,783886	-0,285025	14,388	-0,071752	22,460000	56,740000
2,783953	-0,276848	14,488	-0,071749	22,460000	56,740000
2,783906	-0,134336	14,588	-0,071689	22,460000	56,740000
2,783898	-0,308388	14,688	-0,071762	22,460000	56,740000
2,783850	-0,189238	14,788	-0,071712	22,460000	56,740000
2,783907	-0,332919	14,890	-0,071772	22,460000	56,740000
2,783863	-0,285025	14,991	-0,071752	22,460000	56,740000
2,783890	0,031540	15,091	-0,071620	22,460000	56,740000
2,783899	-0,442724	15,191	-0,071818	22,460000	56,740000
2,783875	-0,379645	15,291	-0,071792	22,460000	56,740000
2,783864	-0,490618	15,391	-0,071838	22,460000	56,740000
2,783906	-0,387821	15,491	-0,071795	22,460000	56,740000
2,783899	-0,506971	15,591	-0,071845	22,460000	56,740000
2,783954	-0,704387	15,692	-0,071928	22,460000	56,740000
2,783909	-0,498794	15,792	-0,071842	22,460000	56,740000
2,783914	-0,585237	15,893	-0,071878	22,460000	56,740000
2,783926	-0,411184	15,994	-0,071805	22,460000	56,740000
2,783869	-0,379645	16,096	-0,071792	22,460000	56,740000
2,783849	-0,609767	16,196	-0,071888	22,460000	56,740000
2,783898	-0,474264	16,296	-0,071832	22,460000	56,740000
2,783907	-0,379645	16,396	-0,071792	22,460000	56,740000
2,783871	-0,268672	16,497	-0,071746	22,460000	56,740000
2,783919	-0,237132	16,598	-0,071732	22,460000	56,740000
2,783930	-0,364459	16,699	-0,071786	22,460000	56,740000
2,783891	-0,316565	16,800	-0,071766	22,460000	56,740000
2,783953	-0,372636	16,900	-0,071789	22,460000	56,740000
2,783940	-0,285025	17,000	-0,071752	22,460000	56,740000
2,783911	-0,276848	17,100	-0,071749	22,460000	56,740000
2,783912	-0,427538	17,201	-0,071812	22,460000	56,740000
2,783889	-0,268672	17,301	-0,071746	22,460000	56,740000
2,783937	-0,197415	17,401	-0,071716	22,460000	56,740000
2,783906	-0,197415	17,501	-0,071716	22,460000	56,740000
2,783899	-0,735926	17,603	-0,071941	22,460000	56,740000
2,783873	-0,213769	17,703	-0,071723	22,460000	56,730000
2,783897	-0,237132	17,804	-0,071732	22,460000	56,730000
2,783966	-0,142513	17,905	-0,071693	22,460000	56,730000
2,783881	-0,182229	18,005	-0,071709	22,460000	56,730000
2,783886	-0,245309	18,106	-0,071736	22,460000	56,730000
2,783920	-0,015186	18,207	-0,071640	22,460000	56,730000
2,783903	-0,205592	18,309	-0,071719	22,460000	56,730000
2,783879	-0,522157	18,409	-0,071852	22,460000	56,730000
2,783866	-0,395998	18,509	-0,071799	22,460000	56,730000
2,783905	-0,339928	18,609	-0,071775	22,460000	56,730000
2,783968	-0,039717	18,709	-0,071650	22,460000	56,730000
2,783921	-0,127327	18,809	-0,071687	22,460000	56,730000
2,783927	0,086442	18,909	-0,071597	22,460000	56,730000
2,783905	-0,213769	19,009	-0,071723	22,460000	56,730000
2,783908	-0,189238	19,110	-0,071712	22,460000	56,730000
2,783887	-0,411184	19,211	-0,071805	22,460000	56,730000
2,783905	-0,127327	19,311	-0,071687	22,460000	56,730000
2,783873	-0,285025	19,412	-0,071752	22,460000	56,730000
2,783917	-0,063079	19,512	-0,071660	22,460000	56,730000
2,783931	-0,553697	19,612	-0,071865	22,460000	56,730000
2,783905	-0,379645	19,713	-0,071792	22,460000	56,740000
2,783855	-0,047894	19,813	-0,071653	22,460000	56,740000
2,783886	-0,213769	19,914	-0,071723	22,460000	56,740000
2,783888	-0,285025	20,014	-0,071752	22,460000	56,740000
2,783928	0,063079	20,114	-0,071607	22,460000	56,740000
2,783911	-0,372636	20,215	-0,071789	22,460000	56,740000
2,783895	0,000000	20,315	-0,071633	22,460000	56,740000
2,783907	-0,403007	20,415	-0,071802	22,460000	56,740000
2,783903	0,023363	20,515	-0,071624	22,460000	56,740000
2,783920	-0,094619	20,616	-0,071673	22,460000	56,740000
2,783846	-0,293202	20,716	-0,071756	22,460000	56,740000
2,783913	-0,403007	20,816	-0,071802	22,460000	56,740000
2,783899	-0,348105	20,916	-0,071779	22,460000	56,740000
2,783888	-0,127327	21,016	-0,071687	22,460000	56,740000
2,783930	-0,119150	21,117	-0,071683	22,460000	56,740000
2,783900	-0,364459	21,217	-0,071786	22,460000	56,740000
2,783855	-0,165875	21,317	-0,071703	22,460000	56,740000
2,783946	-0,228955	21,417	-0,071729	22,460000	56,740000
2,783927	-0,119150	21,517	-0,071683	22,460000	56,740000
2,783880	-0,189238	21,617	-0,071712	22,460000	56,740000
2,783929	-0,261663	21,718	-0,071743	22,460000	56,730000
2,783878	-0,403007	21,818	-0,071802	22,460000	56,730000
2,783902	-0,276848	21,920	-0,071749	22,460000	56,730000
2,783907	-0,356282	22,020	-0,071782	22,460000	56,730000
2,783964	-0,221946	22,121	-0,071726	22,460000	56,730000
2,783914	-0,395998	22,221	-0,071799	22,460000	56,730000
2,783902	-0,459078	22,321	-0,071825	22,460000	56,730000
2,783944	-0,474264	22,421	-0,071832	22,460000	56,730000
2,783919	0,000000	22,521	-0,071633	22,460000	56,730000
2,783870	-0,490618	22,621	-0,071838	22,460000	56,730000
2,783899	-0,474264	22,722	-0,071832	22,460000	56,730000
2,783860	-0,609767	22,822	-0,071888	22,460000	56,730000
2,783927	-0,419361	22,922	-0,071809	22,460000	56,730000
2,783859	-0,450901	23,023	-0,071822	22,460000	56,730000
2,783908	-0,285025	23,126	-0,071752	22,460000	56,730000
2,783895	-0,419361	23,226	-0,071809	22,460000	56,730000
2,783941	-0,570051	23,327	-0,071872	22,460000	56,730000
2,784861	0,522157	24,360	-0,071415	22,460000	56,730000
2,784889	0,815360	24,461	-0,071292	22,460000	56,730000
2,784885	0,624953	24,561	-0,071372	22,460000	56,730000
2,784926	0,989412	24,662	-0,071220	22,460000	56,730000
2,784924	0,624953	24,763	-0,071372	22,460000	56,730000
2,784911	0,664670	24,864	-0,071355	22,460000	56,730000
2,784893	0,688033	24,964	-0,071346	22,460000	56,730000
2,784920	0,799006	25,065	-0,071299	22,460000	56,730000
2,784899	0,609767	25,166	-0,071378	22,460000	56,730000
2,784915	0,807183	25,267	-0,071296	22,460000	56,730000
2,784903	0,577060	25,367	-0,071392	22,460000	56,730000
2,784897	0,601591	25,469	-0,071382	22,460000	56,730000
2,784881	0,308388	25,569	-0,071504	22,460000	56,730000
2,784907	0,435715	25,670	-0,071451	22,460000	56,730000
2,784879	0,664670	25,770	-0,071355	22,460000	56,730000
2,784926	0,624953	25,872	-0,071372	22,460000	56,730000
2,784923	0,672847	25,973	-0,071352	22,460000	56,730000
2,784919	0,450901	26,073	-0,071445	22,460000	56,730000
2,784922	0,308388	26,174	-0,071504	22,460000	56,730000
2,784910	0,633130	26,274	-0,071369	22,460000	56,730000
2,784904	0,498794	26,374	-0,071425	22,460000	56,730000
2,784892	0,719572	26,476	-0,071333	22,460000	56,730000
2,784890	0,641307	26,576	-0,071365	22,460000	56,730000
2,784889	0,727749	26,679	-0,071329	22,460000	56,730000
2,784901	0,459078	26,779	-0,071441	22,460000	56,730000
2,784886	0,522157	26,879	-0,071415	22,460000	56,730000
2,784881	0,601591	26,980	-0,071382	22,460000	56,730000
2,784893	0,482441	27,080	-0,071432	22,460000	56,730000
2,784915	0,696210	27,181	-0,071342	22,460000	56,730000
2,784871	0,482441	27,281	-0,071432	22,460000	56,730000
2,784921	0,712564	27,383	-0,071335	22,460000	56,730000
2,784938	0,237132	27,483	-0,071534	22,460000	56,730000
2,784944	0,704387	27,583	-0,071339	22,460000	56,730000
2,784860	0,735926	27,684	-0,071326	22,460000	56,715000
2,784921	0,570051	27,784	-0,071395	22,460000	56,715000
2,784915	0,522157	27,884	-0,071415	22,460000	56,715000
2,784913	0,649484	27,986	-0,071362	22,460000	56,715000
2,784887	0,775643	28,087	-0,071309	22,460000	56,715000
2,784904	0,348105	28,189	-0,071488	22,460000	56,715000
2,784873	0,727749	28,289	-0,071329	22,460000	56,715000
2,784876	0,395998	28,389	-0,071468	22,460000	56,715000
2,784879	0,260495	28,490	-0,071524	22,460000	56,715000
2,784907	0,079433	28,590	-0,071600	22,460000	56,715000
2,784852	0,435715	28,691	-0,071451	22,460000	56,715000
2,784931	0,459078	28,792	-0,071441	22,460000	56,715000
2,784887	0,570051	28,893	-0,071395	22,460000	56,715000
2,784925	0,727749	28,994	-0,071329	22,460000	56,715000
2,784856	0,490618	29,094	-0,071428	22,460000	56,715000
2,784915	0,285025	29,194	-0,071514	22,460000	56,715000
2,784925	0,505803	29,295	-0,071422	22,460000	56,715000
2,784906	0,427538	29,395	-0,071455	22,460000	56,715000
2,784847	0,364459	29,495	-0,071481	22,460000	56,715000
2,784855	0,545520	29,595	-0,071405	22,460000	56,715000
2,784928	0,609767	29,695	-0,071378	22,460000	56,740000
2,784883	0,364459	29,795	-0,071481	22,460000	56,740000
2,784951	0,656493	29,895	-0,071359	22,460000	56,740000
2,784880	0,316565	29,995	-0,071501	22,460000	56,740000
2,784934	0,593414	30,095	-0,071385	22,460000	56,740000
2,784931	0,561874	30,196	-0,071398	22,460000	56,740000
2,784973	0,545520	30,296	-0,071405	22,460000	56,740000
2,784937	0,466087	30,396	-0,071438	22,460000	56,740000
2,784949	0,268672	30,497	-0,071521	22,460000	56,740000
2,784884	0,545520	30,598	-0,071405	22,460000	56,740000
2,784863	0,450901	30,698	-0,071445	22,460000	56,740000
2,784957	0,324742	30,798	-0,071498	22,460000	56,740000
2,784921	0,696210	30,899	-0,071342	22,460000	56,740000
2,784901	0,696210	30,999	-0,071342	22,460000	56,740000
2,784924	0,142513	31,099	-0,071574	22,460000	56,740000
2,784948	0,601591	31,200	-0,071382	22,460000	56,740000
2,784917	0,649484	31,300	-0,071362	22,460000	56,740000
2,784961	0,530334	31,400	-0,071412	22,460000	56,740000
2,784884	0,735926	31,500	-0,071326	22,460000	56,740000
2,784949	0,339928	31,600	-0,071491	22,460000	56,740000
2,784911	0,276848	31,700	-0,071518	22,460000	56,755000
2,784904	0,672847	31,800	-0,071352	22,460000	56,755000
2,784918	0,846899	31,900	-0,071279	22,460000	56,755000
2,784878	0,846899	32,000	-0,071279	22,460000	56,755000
2,784892	0,450901	32,101	-0,071445	22,460000	56,755000
2,784863	0,364459	32,201	-0,071481	22,460000	56,755000
2,784912	0,601591	32,302	-0,071382	22,460000	56,755000
2,784833	0,442724	32,402	-0,071448	22,460000	56,755000
2,784884	0,609767	32,503	-0,071378	22,460000	56,755000
2,784885	0,450901	32,603	-0,071445	22,460000	56,755000
2,784858	0,530334	32,703	-0,071412	22,460000	56,755000
2,784970	0,197415	32,803	-0,071551	22,460000	56,755000
2,784884	0,119150	32,904	-0,071583	22,460000	56,755000
2,784899	0,268672	33,005	-0,071521	22,460000	56,755000
2,784918	0,253486	33,107	-0,071527	22,460000	56,755000
2,784937	0,356282	33,207	-0,071484	22,460000	56,755000
2,784943	0,530334	33,307	-0,071412	22,460000	56,755000
2,784911	0,356282	33,409	-0,071484	22,460000	56,755000
2,784881	0,316565	33,509	-0,071501	22,460000	56,755000
2,784874	0,300211	33,610	-0,071508	22,460000	56,755000
2,784927	0,268672	33,711	-0,071521	22,460000	56,755000
2,784922	0,079433	33,811	-0,071600	22,460000	56,755000
2,784892	0,324742	33,912	-0,071498	22,460000	56,755000
2,784927	0,119150	34,012	-0,071583	22,460000	56,755000
2,784914	0,427538	34,113	-0,071455	22,460000	56,755000
2,784911	0,230123	34,213	-0,071537	22,460000	56,755000
2,784889	0,237132	34,313	-0,071534	22,460000	56,755000
2,784867	0,046725	34,414	-0,071614	22,460000	56,755000
2,783885	-0,656493	35,447	-0,071908	22,460000	56,755000
2,783882	-0,989412	35,547	-0,072047	22,460000	56,755000
2,783870	-0,966049	35,647	-0,072037	22,460000	56,755000
2,783905	-1,195004	35,748	-0,072133	22,460000	56,740000
2,783887	-0,775643	35,849	-0,071958	22,460000	56,740000
2,783917	-0,799006	35,950	-0,071967	22,460000	56,740000
2,783884	-0,862085	36,051	-0,071994	22,460000	56,740000
2,783936	-0,609767	36,152	-0,071888	22,460000	56,740000
2,783892	-0,767466	36,252	-0,071954	22,460000	56,740000
2,783926	-0,878439	36,352	-0,072000	22,460000	56,740000
2,783948	-0,561874	36,453	-0,071868	22,460000	56,740000
2,783893	-0,933341	36,553	-0,072023	22,460000	56,740000
2,783906	-0,909979	36,654	-0,072014	22,460000	56,740000
2,783921	-1,092208	36,757	-0,072090	22,460000	56,740000
2,783901	-0,759289	36,857	-0,071951	22,460000	56,740000
2,783912	-0,878439	36,957	-0,072000	22,460000	56,740000
2,783903	-0,641307	37,058	-0,071901	22,460000	56,740000
2,783879	-0,838722	37,159	-0,071984	22,460000	56,740000
2,783890	-0,799006	37,260	-0,071967	22,460000	56,740000
2,784002	-0,696210	37,360	-0,071924	22,460000	56,740000
2,783921	-0,735926	37,460	-0,071941	22,460000	56,740000
2,783832	-0,633130	37,564	-0,071898	22,460000	56,740000
2,783951	-1,004598	37,665	-0,072053	22,460000	56,740000
2,783927	-1,312986	37,766	-0,072182	22,460000	56,740000
2,783922	-0,609767	37,866	-0,071888	22,460000	56,740000
2,783902	-1,131925	37,967	-0,072106	22,460000	56,740000
2,783900	-1,163464	38,069	-0,072120	22,460000	56,740000
2,783914	-0,609767	38,169	-0,071888	22,460000	56,740000
2,783898	-0,981235	38,269	-0,072043	22,460000	56,740000
2,783920	-1,147110	38,369	-0,072113	22,460000	56,740000
2,783945	-0,601591	38,469	-0,071885	22,460000	56,740000
2,783938	-0,981235	38,569	-0,072043	22,460000	56,740000
2,783903	-0,727749	38,669	-0,071938	22,460000	56,740000
2,783908	-1,012775	38,769	-0,072057	22,460000	56,740000
2,783918	-0,799006	38,869	-0,071967	22,460000	56,740000
2,783901	-1,178650	38,969	-0,072126	22,460000	56,740000
2,783946	-0,957872	39,070	-0,072034	22,460000	56,740000
2,783978	-0,909979	39,173	-0,072014	22,460000	56,740000
2,783944	-0,893625	39,274	-0,072007	22,460000	56,740000
2,783962	-1,107394	39,375	-0,072096	22,460000	56,740000
2,783903	-1,004598	39,475	-0,072053	22,460000	56,740000
2,783918	-1,012775	39,575	-0,072057	22,460000	56,740000
2,783902	-0,862085	39,676	-0,071994	22,460000	56,730000
2,783916	-1,044314	39,778	-0,072070	22,460000	56,730000
2,783908	-1,084031	39,879	-0,072086	22,460000	56,730000
2,783933	-0,553697	39,980	-0,071865	22,460000	56,730000
2,783930	-0,656493	40,081	-0,071908	22,460000	56,730000
2,783886	-0,807183	40,181	-0,071971	22,460000	56,730000
2,783884	-0,752280	40,281	-0,071948	22,460000	56,730000
2,783951	-0,909979	40,381	-0,072014	22,460000	56,730000
2,783945	-0,791997	40,482	-0,071964	22,460000	56,730000
2,783921	-0,893625	40,583	-0,072007	22,460000	56,730000
2,783845	-0,570051	40,683	-0,071872	22,460000	56,730000
2,783964	-0,830545	40,784	-0,071980	22,460000	56,730000
2,783838	-1,218367	40,884	-0,072143	22,460000	56,730000
2,783920	-0,775643	40,985	-0,071958	22,460000	56,730000
2,783902	-1,029129	41,094	-0,072063	22,460000	56,730000
2,783905	-0,981235	41,194	-0,072043	22,460000	56,730000
2,783905	-0,506971	41,294	-0,071845	22,460000	56,730000
2,783907	-0,830545	41,395	-0,071980	22,460000	56,730000
2,783940	-1,020952	41,496	-0,072060	22,460000	56,730000
2,783915	-0,997589	41,598	-0,072050	22,460000	56,730000
2,783984	-1,067677	41,698	-0,072080	22,460000	56,755000
2,783908	-0,997589	41,799	-0,072050	22,460000	56,755000
2,783953	-0,578228	41,900	-0,071875	22,460000	56,755000
2,783879	-1,186827	42,001	-0,072129	22,460000	56,755000
2,783904	-1,107394	42,101	-0,072096	22,460000	56,755000
2,783950	-0,886616	42,201	-0,072004	22,460000	56,755000
2,783900	-0,538511	42,303	-0,071858	22,460000	56,755000
2,783925	-0,759289	42,404	-0,071951	22,460000	56,755000
2,783889	-0,973058	42,505	-0,072040	22,460000	56,755000
2,783890	-0,862085	42,606	-0,071994	22,460000	56,755000
2,783952	-0,901802	42,707	-0,072010	22,460000	56,755000
2,783900	-0,823537	42,807	-0,071978	22,460000	56,755000
2,783956	-1,115571	42,907	-0,072100	22,460000	56,755000
2,783893	-0,799006	43,009	-0,071967	22,460000	56,755000
2,783926	-0,767466	43,109	-0,071954	22,460000	56,755000
2,783944	-0,719572	43,211	-0,071934	22,460000	56,755000
2,783899	-0,681024	43,311	-0,071918	22,460000	56,755000
2,783936	-0,656493	43,411	-0,071908	22,460000	56,755000
2,783878	-1,012775	43,511	-0,072057	22,460000	56,755000
2,783956	-0,926333	43,611	-0,072021	22,460000	56,755000
2,783815	-0,981235	43,711	-0,072043	22,460000	56,755000
2,783917	-0,862085	43,811	-0,071994	22,460000	56,755000
2,783924	-1,092208	43,912	-0,072090	22,460000	56,755000
2,783944	-0,909979	44,013	-0,072014	22,460000	56,755000
2,783941	-0,901802	44,114	-0,072010	22,460000	56,755000
2,783913	-0,672847	44,215	-0,071915	22,460000	56,755000
2,783895	-1,218367	44,322	-0,072143	22,460000	56,755000
2,783946	-0,918156	44,422	-0,072017	22,460000	56,755000
2,783926	-0,855076	44,522	-0,071991	22,460000	56,755000
2,783870	-1,147110	44,622	-0,072113	22,460000	56,755000
2,783879	-0,862085	44,726	-0,071994	22,460000	56,755000
2,783887	-0,901802	44,826	-0,072010	22,460000	56,755000
2,783920	-0,966049	44,927	-0,072037	22,460000	56,755000
2,783921	-0,783820	45,028	-0,071961	22,460000	56,755000
2,783959	-0,949695	45,128	-0,072030	22,460000	56,755000
2,783911	-0,893625	45,228	-0,072007	22,460000	56,755000
2,783929	-1,075854	45,328	-0,072083	22,460000	56,755000
2,783933	-0,846899	45,429	-0,071987	22,460000	56,755000
2,783927	-1,258084	45,537	-0,072159	22,460000	56,755000
2,784964	-0,008177	46,568	-0,071637	22,460000	56,740000
2,784943	-0,008177	46,668	-0,071637	22,460000	56,740000
2,784924	0,102796	46,769	-0,071590	22,460000	56,740000
2,784923	-0,285025	46,869	-0,071752	22,460000	56,740000
2,784911	0,031540	46,969	-0,071620	22,460000	56,740000
2,784960	0,221946	47,069	-0,071541	22,460000	56,740000
2,784891	-0,119150	47,175	-0,071683	22,460000	56,740000
2,784910	0,079433	47,275	-0,071600	22,460000	56,740000
2,784892	0,245309	47,376	-0,071531	22,460000	56,740000
2,784914	0,008177	47,478	-0,071630	22,460000	56,740000
2,784934	-0,228955	47,581	-0,071729	22,460000	56,740000
2,784904	-0,285025	47,681	-0,071752	22,460000	56,730000
2,784861	-0,189238	47,782	-0,071712	22,460000	56,730000
2,784906	-0,087610	47,882	-0,071670	22,460000	56,730000
2,784926	0,134336	47,984	-0,071577	22,460000	56,730000
2,784875	-0,253486	48,084	-0,071739	22,460000	56,730000
2,784913	-0,119150	48,186	-0,071683	22,460000	56,730000
2,784919	-0,387821	48,286	-0,071795	22,460000	56,730000
2,784888	-0,387821	48,386	-0,071795	22,460000	56,730000
2,784899	-0,221946	48,487	-0,071726	22,460000	56,730000
2,784908	0,046725	48,589	-0,071614	22,460000	56,730000
2,784916	-0,063079	48,689	-0,071660	22,460000	56,730000
2,784877	0,000000	48,790	-0,071633	22,460000	56,730000
2,784910	-0,087610	48,890	-0,071670	22,460000	56,730000
2,784913	-0,158867	48,991	-0,071700	22,460000	56,730000
2,784893	-0,158867	49,092	-0,071700	22,460000	56,730000
2,784920	0,000000	49,193	-0,071633	22,460000	56,730000
2,784930	0,031540	49,294	-0,071620	22,460000	56,730000
2,784884	-0,127327	49,395	-0,071687	22,460000	56,730000
2,784909	-0,348105	49,500	-0,071779	22,460000	56,730000
2,784916	-0,047894	49,601	-0,071653	22,460000	56,730000
2,784961	-0,165875	49,701	-0,071703	22,460000	56,740000
2,784940	-0,450901	49,801	-0,071822	22,460000	56,740000
2,784842	-0,174052	49,901	-0,071706	22,460000	56,740000
2,784874	-0,293202	50,002	-0,071756	22,460000	56,740000
2,784878	-0,490618	50,103	-0,071838	22,460000	56,740000
2,784893	-0,253486	50,204	-0,071739	22,460000	56,740000
2,784925	-0,023363	50,304	-0,071643	22,460000	56,740000
2,784899	-0,197415	50,404	-0,071716	22,460000	56,740000
2,784879	-0,134336	50,504	-0,071689	22,460000	56,740000
2,784931	-0,332919	50,604	-0,071772	22,460000	56,740000
2,784931	-0,134336	50,705	-0,071689	22,460000	56,740000
2,784839	-0,213769	50,806	-0,071723	22,460000	56,740000
2,784904	0,023363	50,906	-0,071624	22,460000	56,740000
2,784916	-0,110973	51,007	-0,071680	22,460000	56,740000
2,784885	-0,174052	51,108	-0,071706	22,460000	56,740000
2,784904	-0,079433	51,208	-0,071667	22,460000	56,740000
2,784957	-0,221946	51,309	-0,071726	22,460000	56,740000
2,784878	-0,174052	51,409	-0,071706	22,460000	56,740000
2,784869	-0,142513	51,509	-0,071693	22,460000	56,740000
2,784884	-0,189238	51,609	-0,071712	22,460000	56,740000
2,784905	-0,150690	51,709	-0,071696	22,460000	56,740000
2,784882	-0,379645	51,810	-0,071792	22,460000	56,740000
2,784855	-0,079433	51,910	-0,071667	22,460000	56,740000
2,784923	-0,268672	52,011	-0,071746	22,460000	56,740000
2,784911	-0,324742	52,111	-0,071769	22,460000	56,740000
2,784864	-0,197415	52,211	-0,071716	22,460000	56,740000
2,784930	-0,300211	52,311	-0,071759	22,460000	56,740000
2,784944	-0,237132	52,411	-0,071732	22,460000	56,740000
2,784901	-0,253486	52,511	-0,071739	22,460000	56,740000
2,784940	-0,047894	52,611	-0,071653	22,460000	56,740000
2,784903	-0,047894	52,713	-0,071653	22,460000	56,740000
2,784921	-0,197415	52,813	-0,071716	22,460000	56,740000
2,784959	-0,142513	52,914	-0,071693	22,460000	56,740000
2,784926	-0,142513	53,014	-0,071693	22,460000	56,740000
2,784948	-0,087610	53,114	-0,071670	22,460000	56,740000
2,784896	-0,221946	53,214	-0,071726	22,460000	56,740000
2,784934	-0,522157	53,314	-0,071852	22,460000	56,740000
2,784912	-0,015186	53,414	-0,071640	22,460000	56,740000
2,784888	-0,356282	53,516	-0,071782	22,460000	56,740000
2,784896	-0,165875	53,616	-0,071703	22,460000	56,740000
2,784854	-0,071256	53,716	-0,071663	22,470000	56,730000
2,784964	-0,411184	53,817	-0,071805	22,470000	56,730000
2,784926	-0,039717	53,918	-0,071650	22,470000	56,730000
2,784964	-0,253486	54,018	-0,071739	22,470000	56,730000
2,784926	-0,348105	54,118	-0,071779	22,470000	56,730000
2,784885	-0,189238	54,218	-0,071712	22,470000	56,730000
2,784901	-0,364459	54,319	-0,071786	22,470000	56,730000
2,784911	-0,054902	54,420	-0,071656	22,470000	56,730000
2,784921	-0,268672	54,522	-0,071746	22,470000	56,730000
2,784879	-0,094619	54,623	-0,071673	22,470000	56,730000
2,784906	0,110973	54,729	-0,071587	22,470000	56,730000
2,784917	-0,308388	54,830	-0,071762	22,470000	56,730000
2,784894	0,054902	54,930	-0,071610	22,470000	56,730000
2,784931	-0,142513	55,031	-0,071693	22,470000	56,730000
2,784948	-0,094619	55,141	-0,071673	22,470000	56,730000
2,784842	-0,450901	55,241	-0,071822	22,470000	56,730000
2,784897	-0,213769	55,341	-0,071723	22,470000	56,730000
2,784901	0,126159	55,441	-0,071581	22,470000	56,730000
2,784875	-0,411184	55,541	-0,071805	22,470000	56,730000
2,784942	-0,094619	55,641	-0,071673	22,470000	56,730000
2,784924	-0,094619	55,742	-0,071673	22,460000	56,700000
2,784946	-0,498794	55,842	-0,071842	22,460000	56,700000
2,784934	-0,039717	55,956	-0,071650	22,460000	56,700000
2,784885	-0,467255	56,057	-0,071829	22,460000	56,700000
2,784923	-0,245309	56,158	-0,071736	22,460000	56,700000
2,784948	-0,102796	56,260	-0,071676	22,460000	56,700000
2,784935	-0,268672	56,361	-0,071746	22,460000	56,700000
2,784930	-0,285025	56,461	-0,071752	22,460000	56,700000
2,784944	-0,205592	56,562	-0,071719	22,460000	56,700000
2,784894	-0,759289	56,663	-0,071951	22,460000	56,700000
2,783886	-1,503392	57,711	-0,072262	22,450000	56,730000
2,783924	-1,423959	57,811	-0,072229	22,450000	56,730000
2,783958	-1,369057	57,912	-0,072206	22,450000	56,730000
2,783966	-1,178650	58,019	-0,072126	22,450000	56,730000
2,783953	-1,448490	58,121	-0,072239	22,450000	56,730000
2,783894	-1,448490	58,222	-0,072239	22,450000	56,730000
2,783912	-1,591003	58,322	-0,072298	22,450000	56,730000
2,783876	-0,759289	58,422	-0,071951	22,450000	56,730000
2,783931	-1,574649	58,523	-0,072292	22,450000	56,730000
2,783933	-1,408773	58,623	-0,072222	22,450000	56,730000
2,783936	-1,519746	58,723	-0,072269	22,450000	56,730000
2,783881	-1,487038	58,823	-0,072255	22,450000	56,730000
2,783948	-1,487038	58,924	-0,072255	22,450000	56,730000
2,783928	-1,598011	59,024	-0,072301	22,450000	56,730000
2,783876	-1,574649	59,127	-0,072292	22,450000	56,730000
2,783921	-1,717161	59,228	-0,072351	22,450000	56,730000
2,783907	-1,985833	59,328	-0,072463	22,450000	56,730000
2,783944	-1,804772	59,429	-0,072388	22,450000	56,730000
2,783893	-1,440313	59,539	-0,072235	22,450000	56,730000
2,783899	-1,788418	59,639	-0,072381	22,450000	56,730000
2,783921	-1,526755	59,739	-0,072271	22,460000	56,740000
2,783914	-1,392419	59,839	-0,072215	22,460000	56,740000
2,783888	-1,725338	59,942	-0,072354	22,460000	56,740000
2,783919	-1,155287	60,042	-0,072116	22,460000	56,740000
2,783932	-1,503392	60,142	-0,072262	22,460000	56,740000
2,783902	-1,645905	60,242	-0,072321	22,460000	56,740000
2,783912	-1,811780	60,346	-0,072391	22,460000	56,740000
2,783924	-1,423959	60,446	-0,072229	22,460000	56,740000
2,783930	-1,614365	60,547	-0,072308	22,460000	56,740000
2,783904	-1,226544	60,649	-0,072146	22,460000	56,740000
2,783915	-1,717161	60,757	-0,072351	22,460000	56,740000
2,783909	-1,558295	60,857	-0,072285	22,460000	56,740000
2,783878	-1,495215	60,958	-0,072258	22,460000	56,740000
2,783914	-1,456667	61,059	-0,072242	22,460000	56,740000
2,783888	-1,566472	61,167	-0,072288	22,460000	56,740000
2,783895	-1,487038	61,267	-0,072255	22,460000	56,740000
2,783924	-1,614365	61,367	-0,072308	22,460000	56,740000
2,783964	-1,772064	61,467	-0,072374	22,460000	56,740000
2,783880	-1,487038	61,567	-0,072255	22,460000	56,740000
2,783879	-1,526755	61,668	-0,072271	22,460000	56,755000
2,783909	-1,526755	61,768	-0,072271	22,460000	56,755000
2,783874	-1,526755	61,868	-0,072271	22,460000	56,755000
2,783934	-1,242898	61,970	-0,072153	22,460000	56,755000
2,783926	-1,740524	62,070	-0,072361	22,460000	56,755000
2,783996	-1,281446	62,170	-0,072169	22,460000	56,755000
2,783944	-1,463676	62,271	-0,072245	22,460000	56,755000
2,783898	-1,511569	62,371	-0,072265	22,460000	56,755000
2,783952	-1,416950	62,471	-0,072226	22,460000	56,755000
2,783852	-1,337517	62,571	-0,072192	22,460000	56,755000
2,783901	-1,305977	62,671	-0,072179	22,460000	56,755000
2,783899	-1,408773	62,771	-0,072222	22,460000	56,755000
2,783900	-1,274437	62,871	-0,072166	22,460000	56,755000
2,783890	-1,392419	62,972	-0,072215	22,460000	56,755000
2,783947	-1,519746	63,073	-0,072269	22,460000	56,755000
2,783900	-1,440313	63,173	-0,072235	22,460000	56,755000
2,783941	-1,377233	63,273	-0,072209	22,460000	56,755000
2,783910	-1,440313	63,373	-0,072235	22,460000	56,755000
2,784006	-1,732347	63,473	-0,072357	22,460000	56,755000
2,783904	-1,487038	63,576	-0,072255	22,460000	56,755000
2,783977	-1,843320	63,676	-0,072404	22,460000	56,755000
2,783874	-1,574649	63,776	-0,072292	22,460000	56,755000
2,783961	-1,765055	63,877	-0,072371	22,460000	56,755000
2,783917	-1,251075	63,985	-0,072156	22,460000	56,755000
2,783895	-1,614365	64,085	-0,072308	22,460000	56,755000
2,783910	-1,495215	64,185	-0,072258	22,460000	56,755000
2,783866	-1,456667	64,287	-0,072242	22,460000	56,755000
2,783896	-1,662259	64,406	-0,072328	22,460000	56,755000
2,783958	-1,614365	64,507	-0,072308	22,460000	56,755000
2,783873	-1,717161	64,608	-0,072351	22,460000	56,755000
2,783913	-1,503392	64,708	-0,072262	22,460000	56,755000
2,783945	-1,796595	64,809	-0,072384	22,460000	56,755000
2,783934	-1,717161	64,909	-0,072351	22,460000	56,755000
2,783928	-1,526755	65,009	-0,072271	22,460000	56,755000
2,783946	-1,606188	65,117	-0,072305	22,460000	56,755000
2,783936	-1,614365	65,218	-0,072308	22,460000	56,755000
2,783864	-1,591003	65,319	-0,072298	22,460000	56,755000
2,783937	-1,859674	65,419	-0,072411	22,460000	56,755000
2,783944	-1,534932	65,520	-0,072275	22,460000	56,755000
2,783924	-1,946116	65,620	-0,072447	22,460000	56,755000
2,783944	-1,440313	65,720	-0,072235	22,450000	56,730000
2,783962	-1,662259	65,821	-0,072328	22,450000	56,730000
2,783886	-1,416950	65,921	-0,072226	22,450000	56,730000
2,783927	-1,408773	66,023	-0,072222	22,450000	56,730000
2,783869	-1,385410	66,123	-0,072212	22,450000	56,730000
2,783842	-1,946116	66,224	-0,072447	22,450000	56,730000
2,783899	-1,526755	66,326	-0,072271	22,450000	56,730000
2,783909	-1,463676	66,427	-0,072245	22,450000	56,730000
2,783937	-1,337517	66,528	-0,072192	22,450000	56,730000
2,783915	-1,534932	66,629	-0,072275	22,450000	56,730000
2,783897	-1,899391	66,747	-0,072427	22,450000	56,730000
2,783898	-1,804772	66,848	-0,072388	22,450000	56,730000
2,783874	-1,543109	66,948	-0,072278	22,450000	56,730000
2,783884	-1,511569	67,048	-0,072265	22,450000	56,730000
2,783957	-1,772064	67,167	-0,072374	22,450000	56,730000
2,783907	-1,448490	67,268	-0,072239	22,450000	56,730000
2,783908	-1,566472	67,368	-0,072288	22,450000	56,730000
2,783946	-1,582826	67,468	-0,072295	22,450000	56,730000
2,783912	-1,914576	67,571	-0,072434	22,450000	56,730000
2,783890	-1,693799	67,672	-0,072341	22,460000	56,715000
2,783928	-1,614365	67,773	-0,072308	22,460000	56,715000
2,783912	-1,591003	67,874	-0,072298	22,460000	56,715000
2,784909	-0,490618	68,907	-0,071838	22,460000	56,715000
2,784924	-0,957872	69,007	-0,072034	22,460000	56,715000
2,784876	-0,830545	69,114	-0,071980	22,460000	56,715000
2,784913	-1,092208	69,215	-0,072090	22,460000	56,715000
2,784887	-0,506971	69,315	-0,071845	22,460000	56,715000
2,784936	-1,004598	69,415	-0,072053	22,460000	56,715000
2,784910	-0,973058	69,524	-0,072040	22,460000	56,715000
2,784930	-0,862085	69,625	-0,071994	22,460000	56,715000
2,784896	-0,901802	69,725	-0,072010	22,460000	56,740000
2,784925	-0,855076	69,827	-0,071991	22,460000	56,740000
2,784918	-0,624953	69,938	-0,071895	22,460000	56,740000
2,784917	-0,997589	70,038	-0,072050	22,460000	56,740000
2,784935	-1,020952	70,139	-0,072060	22,460000	56,740000
2,784933	-0,633130	70,240	-0,071898	22,460000	56,740000
2,784943	-0,696210	70,354	-0,071924	22,460000	56,740000
2,784944	-0,688033	70,454	-0,071921	22,460000	56,740000
2,784898	-0,767466	70,555	-0,071954	22,460000	56,740000
2,784919	-0,775643	70,656	-0,071958	22,460000	56,740000
2,784886	-0,648316	70,761	-0,071904	22,460000	56,740000
2,784898	-0,379645	70,861	-0,071792	22,460000	56,740000
2,784902	-0,633130	70,963	-0,071898	22,460000	56,740000
2,784935	-0,585237	71,063	-0,071878	22,460000	56,740000
2,784895	-0,759289	71,165	-0,071951	22,460000	56,740000
2,784903	-0,719572	71,266	-0,071934	22,460000	56,740000
2,784918	-0,324742	71,367	-0,071769	22,460000	56,740000
2,784924	-0,870262	71,467	-0,071997	22,460000	56,740000
2,784943	-0,830545	71,567	-0,071980	22,460000	56,740000
2,784947	-0,791997	71,667	-0,071964	22,450000	56,730000
2,784925	-0,862085	71,767	-0,071994	22,450000	56,730000
2,784915	-0,474264	71,867	-0,071832	22,450000	56,730000
2,784936	-0,530334	71,972	-0,071855	22,450000	56,730000
2,784918	-0,681024	72,072	-0,071918	22,450000	56,730000
2,784897	-0,624953	72,173	-0,071895	22,450000	56,730000
2,784872	-0,616776	72,273	-0,071891	22,450000	56,730000
2,784901	-0,538511	72,373	-0,071858	22,450000	56,730000
2,784897	-0,474264	72,473	-0,071832	22,450000	56,730000
2,784888	-0,909979	72,573	-0,072014	22,450000	56,730000
2,784850	-0,696210	72,675	-0,071924	22,450000	56,730000
2,784870	-0,744103	72,776	-0,071944	22,450000	56,730000
2,784915	-0,696210	72,877	-0,071924	22,450000	56,730000
2,784923	-0,688033	72,978	-0,071921	22,450000	56,730000
2,784901	-0,585237	73,080	-0,071878	22,450000	56,730000
2,784910	-0,735926	73,181	-0,071941	22,450000	56,730000
2,784917	-0,862085	73,281	-0,071994	22,450000	56,730000
2,784905	-0,506971	73,383	-0,071845	22,450000	56,730000
2,784910	-0,672847	73,483	-0,071915	22,450000	56,730000
2,784938	-0,886616	73,597	-0,072004	22,450000	56,730000
2,784879	-0,807183	73,700	-0,071971	22,450000	56,730000
2,784912	-0,744103	73,801	-0,071944	22,450000	56,730000
2,784948	-0,530334	73,902	-0,071855	22,450000	56,730000
2,784858	-0,664670	74,003	-0,071911	22,450000	56,730000
2,784997	-0,791997	74,105	-0,071964	22,450000	56,730000
2,784916	-0,664670	74,205	-0,071911	22,450000	56,730000
2,784873	-0,490618	74,305	-0,071838	22,450000	56,730000
2,784911	-1,029129	74,405	-0,072063	22,450000	56,730000
2,784914	-0,553697	74,506	-0,071865	22,450000	56,730000
2,784949	-0,870262	74,606	-0,071997	22,450000	56,730000
2,784880	-0,918156	74,721	-0,072017	22,450000	56,730000
2,784901	-0,949695	74,822	-0,072030	22,450000	56,730000
2,784911	-0,681024	74,923	-0,071918	22,450000	56,730000
2,784950	-0,624953	75,023	-0,071895	22,450000	56,730000
2,784906	-0,364459	75,124	-0,071786	22,450000	56,730000
2,784902	-0,807183	75,225	-0,071971	22,450000	56,730000
2,784896	-0,712564	75,326	-0,071931	22,450000	56,730000
2,784956	-0,838722	75,428	-0,071984	22,450000	56,730000
2,784887	-0,530334	75,532	-0,071855	22,450000	56,730000
2,784892	-0,616776	75,632	-0,071891	22,450000	56,730000
2,784914	-0,648316	75,733	-0,071904	22,460000	56,730000
2,784859	-0,688033	75,833	-0,071921	22,460000	56,730000
2,784906	-0,696210	75,934	-0,071924	22,460000	56,730000
2,784894	-0,356282	76,034	-0,071782	22,460000	56,730000
2,784884	-0,719572	76,135	-0,071934	22,460000	56,730000
2,784912	-0,395998	76,235	-0,071799	22,460000	56,730000
2,784922	-0,719572	76,336	-0,071934	22,460000	56,730000
2,784954	-0,752280	76,437	-0,071948	22,460000	56,730000
2,784871	-0,759289	76,537	-0,071951	22,460000	56,730000
2,784914	-0,467255	76,637	-0,071829	22,460000	56,730000
2,784924	-0,759289	76,737	-0,071951	22,460000	56,730000
2,784880	-0,261663	76,837	-0,071743	22,460000	56,730000
2,784904	-0,506971	76,939	-0,071845	22,460000	56,730000
2,784938	-0,712564	77,039	-0,071931	22,460000	56,730000
2,784929	-0,791997	77,139	-0,071964	22,460000	56,730000
2,784942	-0,712564	77,240	-0,071931	22,460000	56,730000
2,784828	-0,395998	77,340	-0,071799	22,460000	56,730000
2,784931	-0,561874	77,440	-0,071868	22,460000	56,730000
2,784894	-0,735926	77,547	-0,071941	22,460000	56,730000
2,784902	-0,752280	77,647	-0,071948	22,460000	56,730000
2,784965	-0,878439	77,747	-0,072000	22,460000	56,730000
2,784932	-1,012775	77,848	-0,072057	22,460000	56,730000
2,784957	-0,941518	77,957	-0,072027	22,460000	56,730000
2,784889	-0,791997	78,057	-0,071964	22,460000	56,730000
2,784899	-0,727749	78,158	-0,071938	22,460000	56,730000
2,784914	-0,570051	78,258	-0,071872	22,460000	56,730000
2,784855	-0,767466	78,367	-0,071954	22,460000	56,730000
2,784944	-0,966049	78,468	-0,072037	22,460000	56,730000
2,784916	-0,530334	78,568	-0,071855	22,460000	56,730000
2,784903	-0,744103	78,668	-0,071944	22,460000	56,730000
2,784923	-0,941518	78,773	-0,072027	22,460000	56,730000
2,784881	-0,522157	78,875	-0,071852	22,460000	56,730000
2,784909	-0,783820	78,975	-0,071961	22,460000	56,730000
2,784901	-1,203181	79,075	-0,072136	22,460000	56,730000
2,783888	-1,345694	80,130	-0,072196	22,450000	56,715000
2,783886	-1,788418	80,231	-0,072381	22,450000	56,715000
2,783920	-1,811780	80,333	-0,072391	22,450000	56,715000
2,783920	-1,939107	80,433	-0,072444	22,450000	56,715000
2,784001	-1,828134	80,533	-0,072397	22,450000	56,715000
2,783895	-2,025549	80,634	-0,072480	22,450000	56,715000
2,783919	-1,946116	80,750	-0,072447	22,450000	56,715000
2,783910	-1,954293	80,850	-0,072450	22,450000	56,715000
2,783949	-2,096806	80,950	-0,072510	22,450000	56,715000
2,783939	-1,637728	81,051	-0,072318	22,450000	56,715000
2,783925	-1,994010	81,157	-0,072467	22,450000	56,715000
2,783958	-2,270858	81,258	-0,072583	22,450000	56,715000
2,783941	-2,128346	81,358	-0,072523	22,450000	56,715000
2,783938	-2,096806	81,458	-0,072510	22,450000	56,715000
2,783965	-2,224133	81,562	-0,072563	22,450000	56,715000
2,783917	-1,843320	81,663	-0,072404	22,450000	56,715000
2,783934	-1,876028	81,763	-0,072417	22,450000	56,715000
2,783958	-1,685622	81,864	-0,072338	22,450000	56,715000
2,783914	-2,010364	81,978	-0,072474	22,450000	56,715000
2,783860	-2,041903	82,078	-0,072487	22,450000	56,715000
2,783932	-1,906400	82,178	-0,072430	22,450000	56,715000
2,783896	-2,065266	82,278	-0,072497	22,450000	56,715000
2,783916	-2,057089	82,383	-0,072493	22,450000	56,715000
2,783937	-1,985833	82,484	-0,072463	22,450000	56,715000
2,783931	-1,970647	82,584	-0,072457	22,450000	56,715000
2,783903	-1,859674	82,686	-0,072411	22,450000	56,715000
2,783873	-1,985833	82,800	-0,072463	22,450000	56,715000
2,783893	-1,930930	82,900	-0,072440	22,450000	56,715000
2,783901	-2,073443	83,000	-0,072500	22,450000	56,715000
2,783898	-2,358469	83,101	-0,072619	22,450000	56,715000
2,783916	-2,184416	83,213	-0,072546	22,450000	56,715000
2,783911	-2,010364	83,313	-0,072474	22,450000	56,715000
2,783958	-2,184416	83,413	-0,072546	22,450000	56,715000
2,783897	-1,843320	83,513	-0,072404	22,450000	56,715000
2,783913	-1,876028	83,614	-0,072417	22,450000	56,715000
2,783938	-1,883037	83,714	-0,072420	22,460000	56,730000
2,783914	-1,796595	83,816	-0,072384	22,460000	56,730000
2,783869	-2,279035	83,924	-0,072586	22,460000	56,730000
2,783913	-1,740524	84,024	-0,072361	22,460000	56,730000
2,783938	-1,772064	84,124	-0,072374	22,460000	56,730000
2,783885	-2,270858	84,226	-0,072583	22,460000	56,730000
2,783918	-1,906400	84,330	-0,072430	22,460000	56,730000
2,783971	-1,883037	84,430	-0,072420	22,460000	56,730000
2,783933	-1,780241	84,531	-0,072377	22,460000	56,730000
2,783871	-2,089797	84,632	-0,072507	22,460000	56,730000
2,783934	-2,128346	84,738	-0,072523	22,460000	56,730000
2,783924	-1,930930	84,839	-0,072440	22,460000	56,730000
2,783970	-1,985833	84,939	-0,072463	22,460000	56,730000
2,783896	-2,159885	85,040	-0,072536	22,460000	56,730000
2,783933	-2,239319	85,140	-0,072569	22,460000	56,730000
2,783887	-1,851497	85,242	-0,072407	22,460000	56,730000
2,783900	-2,089797	85,342	-0,072507	22,460000	56,730000
2,783904	-2,025549	85,442	-0,072480	22,460000	56,730000
2,783921	-2,096806	85,555	-0,072510	22,460000	56,730000
2,783930	-1,914576	85,655	-0,072434	22,460000	56,730000
2,783894	-2,050080	85,757	-0,072490	22,460000	56,730000
2,783855	-1,748701	85,857	-0,072364	22,460000	56,730000
2,783939	-2,033726	85,963	-0,072483	22,460000	56,730000
2,783943	-2,199602	86,063	-0,072553	22,460000	56,730000
2,783945	-2,113160	86,165	-0,072517	22,460000	56,730000
2,783886	-1,883037	86,266	-0,072420	22,460000	56,730000
2,783926	-2,176239	86,383	-0,072543	22,460000	56,730000
2,783927	-2,295389	86,483	-0,072593	22,460000	56,730000
2,783938	-1,946116	86,583	-0,072447	22,460000	56,730000
2,783961	-1,551286	86,683	-0,072282	22,460000	56,730000
2,783912	-1,717161	86,786	-0,072351	22,460000	56,730000
2,783902	-2,270858	86,886	-0,072583	22,460000	56,730000
2,783901	-1,985833	86,987	-0,072463	22,460000	56,730000
2,783884	-2,073443	87,087	-0,072500	22,460000	56,730000
2,783932	-2,184416	87,187	-0,072546	22,460000	56,730000
2,783990	-1,828134	87,287	-0,072397	22,460000	56,730000
2,783936	-1,939107	87,387	-0,072444	22,460000	56,730000
2,783922	-2,033726	87,488	-0,072483	22,460000	56,730000
2,783936	-2,113160	87,598	-0,072517	22,460000	56,730000
2,783968	-2,120169	87,699	-0,072520	22,470000	56,730000
2,783912	-2,159885	87,799	-0,072536	22,470000	56,730000
2,783937	-2,081620	87,899	-0,072503	22,470000	56,730000
2,783839	-2,025549	87,999	-0,072480	22,470000	56,730000
2,783957	-2,089797	88,099	-0,072507	22,470000	56,730000
2,783930	-1,519746	88,199	-0,072269	22,470000	56,730000
2,783937	-2,113160	88,300	-0,072517	22,470000	56,730000
2,783891	-1,994010	88,416	-0,072467	22,470000	56,730000
2,783929	-1,867851	88,516	-0,072414	22,470000	56,730000
2,783894	-1,819957	88,617	-0,072394	22,470000	56,730000
2,783952	-1,962470	88,740	-0,072454	22,470000	56,730000
2,783887	-1,899391	88,840	-0,072427	22,470000	56,730000
2,783926	-1,685622	88,941	-0,072338	22,470000	56,730000
2,783952	-2,002187	89,042	-0,072470	22,470000	56,730000
2,783929	-2,089797	89,142	-0,072507	22,470000	56,730000
2,783922	-1,732347	89,243	-0,072357	22,470000	56,730000
2,783887	-2,041903	89,343	-0,072487	22,470000	56,730000
2,783885	-1,804772	89,443	-0,072388	22,470000	56,730000
2,783879	-1,637728	89,565	-0,072318	22,470000	56,730000
2,783851	-1,859674	89,666	-0,072411	22,470000	56,730000
2,783898	-1,914576	89,767	-0,072434	22,470000	56,730000
2,783929	-2,128346	89,867	-0,072523	22,470000	56,730000
2,783879	-1,867851	89,971	-0,072414	22,470000	56,730000
2,783916	-2,096806	90,071	-0,072510	22,470000	56,730000
2,783898	-1,717161	90,171	-0,072351	22,470000	56,730000
2,783887	-1,883037	90,271	-0,072420	22,470000	56,730000
2,783919	-2,120169	90,336	-0,072520	22,470000	56,730000