File: Nanoindentation Datenauswertung/data/MEMS Resolution Test/MEMS step test,1nm,10Hz-5
Quasi static measurement routine
Tip parameters (shape,radius, material...)
17.08.2022

Piezo position[nm]	MEMS displ.[nm]	Time[ms]	Cap [pf]	Temp [°C]	Rh [%]
eoh
2,783955	-0,308388	0,181	-0,077987	22,460000	56,495000
2,785000	0,411184	2,183	-0,077687	22,460000	56,495000
2,785003	0,616776	2,283	-0,077601	22,460000	56,495000
2,784981	0,341096	2,384	-0,077716	22,460000	56,495000
2,785001	0,886616	2,485	-0,077488	22,460000	56,495000
2,785002	0,293202	2,588	-0,077736	22,460000	56,495000
2,785038	0,230123	2,689	-0,077762	22,460000	56,495000
2,784919	-0,149522	2,789	-0,077921	22,460000	56,495000
2,784983	0,624953	2,889	-0,077597	22,460000	56,495000
2,785010	0,316565	2,990	-0,077726	22,460000	56,495000
2,785035	0,727749	3,091	-0,077554	22,460000	56,495000
2,784983	0,395998	3,191	-0,077693	22,460000	56,495000
2,784969	0,301379	3,292	-0,077732	22,460000	56,495000
2,784971	0,276848	3,393	-0,077743	22,460000	56,495000
2,784974	0,221946	3,494	-0,077766	22,460000	56,495000
2,784940	0,475432	3,595	-0,077660	22,460000	56,495000
2,784958	0,356282	3,695	-0,077709	22,460000	56,495000
2,784990	0,475432	3,796	-0,077660	22,460000	56,525000
2,784945	0,190406	3,896	-0,077779	22,460000	56,525000
2,785006	0,546688	3,997	-0,077630	22,460000	56,525000
2,784964	0,712564	4,097	-0,077561	22,460000	56,525000
2,784995	0,174052	4,197	-0,077786	22,460000	56,525000
2,784965	0,554865	4,298	-0,077626	22,460000	56,525000
2,784997	0,301379	4,398	-0,077732	22,460000	56,525000
2,785009	0,316565	4,499	-0,077726	22,460000	56,525000
2,784985	0,230123	4,599	-0,077762	22,460000	56,525000
2,784932	0,427538	4,700	-0,077680	22,460000	56,525000
2,785011	0,316565	4,801	-0,077726	22,460000	56,525000
2,785005	0,341096	4,902	-0,077716	22,460000	56,525000
2,785049	0,269840	5,002	-0,077746	22,460000	56,525000
2,785004	0,293202	5,103	-0,077736	22,460000	56,525000
2,784971	0,681024	5,203	-0,077574	22,460000	56,525000
2,784993	0,269840	5,303	-0,077746	22,460000	56,525000
2,784978	0,071256	5,403	-0,077829	22,460000	56,525000
2,784964	0,450901	5,503	-0,077670	22,460000	56,525000
2,784971	0,380813	5,605	-0,077699	22,460000	56,525000
2,784987	0,387821	5,706	-0,077696	22,460000	56,525000
2,784980	0,530334	5,806	-0,077637	22,460000	56,510000
2,785043	0,482441	5,906	-0,077657	22,460000	56,510000
2,784982	0,459078	6,007	-0,077667	22,460000	56,510000
2,784940	0,110973	6,107	-0,077812	22,460000	56,510000
2,784979	0,276848	6,207	-0,077743	22,460000	56,510000
2,785051	0,119150	6,308	-0,077809	22,460000	56,510000
2,784999	0,641307	6,409	-0,077590	22,460000	56,510000
2,784961	0,387821	6,509	-0,077696	22,460000	56,510000
2,785014	0,150690	6,610	-0,077795	22,460000	56,510000
2,784970	0,135504	6,710	-0,077802	22,460000	56,510000
2,784977	0,475432	6,811	-0,077660	22,460000	56,510000
2,784959	0,387821	6,911	-0,077696	22,460000	56,510000
2,785008	0,443892	7,011	-0,077673	22,460000	56,510000
2,784913	0,197415	7,112	-0,077776	22,460000	56,510000
2,784978	0,245309	7,213	-0,077756	22,460000	56,510000
2,784997	0,712564	7,313	-0,077561	22,460000	56,510000
2,784989	0,253486	7,415	-0,077752	22,460000	56,510000
2,785012	0,593414	7,515	-0,077610	22,460000	56,510000
2,784987	0,276848	7,615	-0,077743	22,460000	56,510000
2,784991	0,253486	7,716	-0,077752	22,460000	56,510000
2,784994	0,221946	7,817	-0,077766	22,460000	56,510000
2,784938	0,664670	7,917	-0,077581	22,460000	56,510000
2,784950	0,387821	8,018	-0,077696	22,460000	56,510000
2,784986	0,245309	8,119	-0,077756	22,460000	56,510000
2,784936	0,324742	8,219	-0,077723	22,460000	56,510000
2,784992	0,356282	8,319	-0,077709	22,460000	56,510000
2,784967	0,609767	8,419	-0,077604	22,460000	56,510000
2,784973	0,182229	8,521	-0,077782	22,460000	56,510000
2,785015	0,324742	8,622	-0,077723	22,460000	56,510000
2,784999	0,372636	8,724	-0,077703	22,460000	56,510000
2,784961	0,783820	8,824	-0,077531	22,460000	56,510000
2,784973	0,404175	8,925	-0,077689	22,460000	56,510000
2,784981	0,815360	9,025	-0,077518	22,460000	56,510000
2,784972	0,450901	9,125	-0,077670	22,460000	56,510000
2,784965	0,459078	9,225	-0,077667	22,460000	56,510000
2,784962	0,681024	9,325	-0,077574	22,460000	56,510000
2,785037	0,570051	9,425	-0,077620	22,460000	56,510000
2,784997	0,308388	9,525	-0,077729	22,460000	56,510000
2,784953	0,387821	9,625	-0,077696	22,460000	56,510000
2,784962	0,538511	9,725	-0,077633	22,460000	56,510000
2,784987	0,245309	9,825	-0,077756	22,460000	56,495000
2,784992	0,467255	9,925	-0,077663	22,460000	56,495000
2,784956	0,364459	10,025	-0,077706	22,460000	56,495000
2,784951	0,427538	10,126	-0,077680	22,460000	56,495000
2,784987	0,102796	10,226	-0,077815	22,460000	56,495000
2,784977	0,459078	10,327	-0,077667	22,460000	56,495000
2,784969	0,387821	10,427	-0,077696	22,460000	56,495000
2,785022	0,276848	10,527	-0,077743	22,460000	56,495000
2,784955	0,450901	10,627	-0,077670	22,460000	56,495000
2,784966	0,538511	10,727	-0,077633	22,460000	56,495000
2,784971	0,197415	10,827	-0,077776	22,460000	56,495000
2,785003	0,205592	10,929	-0,077772	22,460000	56,495000
2,784987	0,301379	11,030	-0,077732	22,460000	56,495000
2,784948	0,135504	11,130	-0,077802	22,460000	56,495000
2,784995	0,744103	11,230	-0,077547	22,460000	56,495000
2,784976	0,522157	11,332	-0,077640	22,460000	56,495000
2,784998	0,506971	11,433	-0,077646	22,460000	56,495000
2,784932	0,601591	11,534	-0,077607	22,460000	56,495000
2,784893	0,364459	11,634	-0,077706	22,460000	56,495000
2,785013	0,221946	11,734	-0,077766	22,460000	56,495000
2,784929	0,522157	11,834	-0,077640	22,460000	56,495000
2,785026	0,427538	11,934	-0,077680	22,460000	56,495000
2,784971	0,269840	12,034	-0,077746	22,460000	56,495000
2,785015	0,435715	12,134	-0,077676	22,460000	56,495000
2,784982	0,341096	12,234	-0,077716	22,460000	56,495000
2,783968	-0,616776	13,266	-0,078116	22,460000	56,495000
2,783967	-0,719572	13,367	-0,078159	22,460000	56,495000
2,783965	-0,348105	13,467	-0,078004	22,460000	56,495000
2,783971	-0,608599	13,567	-0,078113	22,460000	56,495000
2,784040	-0,363291	13,667	-0,078010	22,460000	56,495000
2,783927	-0,775643	13,767	-0,078183	22,460000	56,495000
2,783970	-0,363291	13,867	-0,078010	22,460000	56,540000
2,783976	-0,593414	13,967	-0,078106	22,460000	56,540000
2,783942	-0,497626	14,068	-0,078066	22,460000	56,540000
2,783936	-0,696210	14,170	-0,078149	22,460000	56,540000
2,783983	-0,853908	14,270	-0,078215	22,460000	56,540000
2,783955	-0,775643	14,371	-0,078183	22,460000	56,540000
2,783960	-0,450901	14,472	-0,078047	22,460000	56,540000
2,783934	-0,893625	14,572	-0,078232	22,460000	56,540000
2,783947	-0,656493	14,673	-0,078133	22,460000	56,540000
2,783988	-1,099217	14,773	-0,078318	22,460000	56,540000
2,783919	-0,648316	14,874	-0,078129	22,460000	56,540000
2,783978	-0,568883	14,974	-0,078096	22,460000	56,540000
2,784002	-0,601591	15,074	-0,078110	22,460000	56,540000
2,783960	-1,067677	15,175	-0,078305	22,460000	56,540000
2,783992	-0,300211	15,275	-0,077984	22,460000	56,540000
2,783980	-1,052491	15,375	-0,078298	22,460000	56,540000
2,783954	-0,759289	15,475	-0,078176	22,460000	56,540000
2,784018	-0,561874	15,576	-0,078093	22,460000	56,540000
2,783947	-0,537343	15,677	-0,078083	22,460000	56,540000
2,783970	-0,719572	15,777	-0,078159	22,460000	56,540000
2,784032	-0,434547	15,877	-0,078040	22,460000	56,495000
2,783982	-0,878439	15,978	-0,078226	22,460000	56,495000
2,783927	-0,553697	16,079	-0,078090	22,460000	56,495000
2,783992	-0,679856	16,181	-0,078143	22,460000	56,495000
2,783931	-0,616776	16,281	-0,078116	22,460000	56,495000
2,783970	-0,331751	16,381	-0,077997	22,460000	56,495000
2,783977	-0,641307	16,481	-0,078126	22,460000	56,495000
2,784017	-0,893625	16,581	-0,078232	22,460000	56,495000
2,783966	-0,782652	16,681	-0,078186	22,460000	56,495000
2,783967	-0,790829	16,782	-0,078189	22,460000	56,495000
2,783948	-1,004598	16,883	-0,078278	22,460000	56,495000
2,783942	-0,593414	16,984	-0,078106	22,460000	56,495000
2,783980	-0,901802	17,086	-0,078235	22,460000	56,495000
2,783984	-1,186827	17,186	-0,078354	22,460000	56,495000
2,783991	-0,427538	17,287	-0,078037	22,460000	56,495000
2,784002	-0,799006	17,387	-0,078192	22,460000	56,495000
2,783978	-0,925164	17,487	-0,078245	22,460000	56,495000
2,783934	-0,561874	17,588	-0,078093	22,460000	56,495000
2,784021	-0,616776	17,688	-0,078116	22,460000	56,495000
2,783974	-0,759289	17,788	-0,078176	22,460000	56,525000
2,783962	-0,459078	17,888	-0,078050	22,460000	56,525000
2,783911	-0,862085	17,988	-0,078219	22,460000	56,525000
2,783971	-0,933341	18,093	-0,078249	22,460000	56,525000
2,783954	-0,442724	18,194	-0,078043	22,460000	56,525000
2,783979	-0,497626	18,295	-0,078066	22,460000	56,525000
2,783964	-0,513980	18,395	-0,078073	22,460000	56,525000
2,783990	-0,807183	18,496	-0,078196	22,460000	56,525000
2,783965	-0,735926	18,596	-0,078166	22,460000	56,525000
2,783969	-0,751112	18,696	-0,078172	22,460000	56,525000
2,784056	-0,925164	18,796	-0,078245	22,460000	56,525000
2,783981	-1,027961	18,900	-0,078288	22,460000	56,525000
2,783965	-0,735926	19,000	-0,078166	22,460000	56,525000
2,783963	-1,130757	19,102	-0,078331	22,460000	56,525000
2,783908	-1,202013	19,203	-0,078361	22,460000	56,525000
2,784020	-0,679856	19,304	-0,078143	22,460000	56,525000
2,783966	-0,815360	19,404	-0,078199	22,460000	56,525000
2,783989	-1,020952	19,504	-0,078285	22,460000	56,525000
2,784040	-0,925164	19,605	-0,078245	22,460000	56,525000
2,783981	-0,696210	19,705	-0,078149	22,460000	56,525000
2,784033	-0,775643	19,805	-0,078183	22,460000	56,525000
2,783966	-0,742935	19,906	-0,078169	22,460000	56,525000
2,784028	-0,893625	20,007	-0,078232	22,460000	56,525000
2,783982	-0,830545	20,107	-0,078206	22,460000	56,525000
2,783958	-1,020952	20,207	-0,078285	22,460000	56,525000
2,783993	-0,672847	20,307	-0,078140	22,460000	56,525000
2,783979	-1,012775	20,408	-0,078282	22,460000	56,525000
2,783995	-1,052491	20,509	-0,078298	22,460000	56,525000
2,783967	-0,941518	20,610	-0,078252	22,460000	56,525000
2,783985	-0,933341	20,710	-0,078249	22,460000	56,525000
2,783932	-0,822368	20,811	-0,078202	22,460000	56,525000
2,783948	-0,513980	20,912	-0,078073	22,460000	56,525000
2,783964	-0,799006	21,013	-0,078192	22,460000	56,525000
2,784021	-0,909979	21,114	-0,078239	22,460000	56,525000
2,783965	-0,530334	21,214	-0,078080	22,460000	56,525000
2,784002	-0,711395	21,314	-0,078156	22,460000	56,525000
2,783947	-1,044314	21,414	-0,078295	22,460000	56,525000
2,784007	-0,956704	21,514	-0,078258	22,460000	56,525000
2,783972	-0,711395	21,616	-0,078156	22,460000	56,525000
2,783939	-0,688033	21,722	-0,078146	22,460000	56,525000
2,784030	-0,641307	21,823	-0,078126	22,460000	56,495000
2,783977	-0,901802	21,923	-0,078235	22,460000	56,495000
2,783975	-0,530334	22,025	-0,078080	22,460000	56,495000
2,784010	-0,807183	22,130	-0,078196	22,460000	56,495000
2,783968	-0,522157	22,230	-0,078077	22,460000	56,495000
2,783994	-0,742935	22,330	-0,078169	22,460000	56,495000
2,783942	-0,759289	22,430	-0,078176	22,460000	56,495000
2,783986	-0,719572	22,540	-0,078159	22,460000	56,495000
2,783961	-0,497626	22,642	-0,078066	22,460000	56,495000
2,783956	-0,973058	22,742	-0,078265	22,460000	56,495000
2,783934	-1,020952	22,842	-0,078285	22,460000	56,495000
2,783958	-0,815360	22,945	-0,078199	22,460000	56,495000
2,783929	-1,186827	23,045	-0,078354	22,460000	56,495000
2,784023	-0,790829	23,146	-0,078189	22,460000	56,495000
2,783992	-0,641307	23,246	-0,078126	22,460000	56,495000
2,783989	-1,012775	23,353	-0,078282	22,460000	56,495000
2,784960	0,269840	24,384	-0,077746	22,470000	56,525000
2,784934	-0,008177	24,484	-0,077862	22,470000	56,525000
2,784971	0,190406	24,584	-0,077779	22,470000	56,525000
2,784959	0,095787	24,684	-0,077818	22,470000	56,525000
2,784985	0,253486	24,785	-0,077752	22,470000	56,525000
2,784958	0,435715	24,889	-0,077676	22,470000	56,525000
2,784926	-0,038549	24,989	-0,077875	22,470000	56,525000
2,784953	-0,071256	25,090	-0,077888	22,470000	56,525000
2,784920	-0,054902	25,191	-0,077881	22,470000	56,525000
2,784977	0,237132	25,291	-0,077759	22,470000	56,525000
2,784974	0,167044	25,393	-0,077789	22,470000	56,525000
2,784967	-0,086442	25,493	-0,077895	22,470000	56,525000
2,785036	0,261663	25,593	-0,077749	22,470000	56,525000
2,784987	0,127327	25,697	-0,077805	22,470000	56,525000
2,784978	0,419361	25,797	-0,077683	22,470000	56,525000
2,784940	0,039717	25,898	-0,077842	22,470000	56,525000
2,784991	-0,023363	25,998	-0,077868	22,470000	56,525000
2,785024	0,245309	26,100	-0,077756	22,470000	56,525000
2,784926	0,102796	26,200	-0,077815	22,470000	56,525000
2,784940	0,016354	26,301	-0,077852	22,470000	56,525000
2,784978	0,150690	26,401	-0,077795	22,470000	56,525000
2,784894	0,174052	26,502	-0,077786	22,470000	56,525000
2,784955	0,182229	26,602	-0,077782	22,470000	56,525000
2,784989	0,293202	26,702	-0,077736	22,470000	56,525000
2,784990	0,119150	26,802	-0,077809	22,470000	56,525000
2,784959	0,031540	26,903	-0,077845	22,470000	56,525000
2,784950	0,150690	27,004	-0,077795	22,470000	56,525000
2,784960	0,031540	27,104	-0,077845	22,470000	56,525000
2,785031	0,253486	27,205	-0,077752	22,470000	56,525000
2,784937	-0,094619	27,306	-0,077898	22,470000	56,525000
2,784975	0,293202	27,407	-0,077736	22,470000	56,525000
2,784953	0,253486	27,509	-0,077752	22,470000	56,525000
2,784953	0,372636	27,609	-0,077703	22,470000	56,525000
2,784960	0,395998	27,734	-0,077693	22,470000	56,525000
2,784971	0,372636	27,835	-0,077703	22,460000	56,525000
2,785004	0,387821	27,936	-0,077696	22,460000	56,525000
2,784933	0,467255	28,036	-0,077663	22,460000	56,525000
2,785018	-0,071256	28,136	-0,077888	22,460000	56,525000
2,784986	0,142513	28,237	-0,077799	22,460000	56,525000
2,784947	0,024531	28,337	-0,077848	22,460000	56,525000
2,784940	-0,205592	28,437	-0,077944	22,460000	56,525000
2,784979	0,150690	28,543	-0,077795	22,460000	56,525000
2,785015	0,341096	28,643	-0,077716	22,460000	56,525000
2,784952	0,024531	28,743	-0,077848	22,460000	56,525000
2,785006	0,095787	28,843	-0,077818	22,460000	56,525000
2,784948	0,324742	28,952	-0,077723	22,460000	56,525000
2,784930	0,387821	29,053	-0,077696	22,460000	56,525000
2,785014	-0,078265	29,154	-0,077891	22,460000	56,525000
2,785016	-0,205592	29,254	-0,077944	22,460000	56,525000
2,784985	-0,015186	29,357	-0,077865	22,460000	56,525000
2,784991	-0,023363	29,458	-0,077868	22,460000	56,525000
2,784932	0,079433	29,558	-0,077825	22,460000	56,525000
2,785036	-0,157698	29,660	-0,077924	22,460000	56,525000
2,784941	-0,102796	29,760	-0,077901	22,460000	56,525000
2,784967	-0,078265	29,860	-0,077891	22,460000	56,525000
2,785016	0,182229	29,962	-0,077782	22,460000	56,525000
2,784987	0,467255	30,063	-0,077663	22,460000	56,525000
2,784958	-0,086442	30,163	-0,077895	22,460000	56,525000
2,784950	0,039717	30,263	-0,077842	22,460000	56,525000
2,784974	0,167044	30,363	-0,077789	22,460000	56,525000
2,784985	0,341096	30,463	-0,077716	22,460000	56,525000
2,784984	0,182229	30,564	-0,077782	22,460000	56,525000
2,784951	0,372636	30,664	-0,077703	22,460000	56,525000
2,784967	0,142513	30,765	-0,077799	22,460000	56,525000
2,784948	-0,142513	30,866	-0,077918	22,460000	56,525000
2,784994	-0,189238	30,967	-0,077938	22,460000	56,525000
2,784921	0,031540	31,067	-0,077845	22,460000	56,525000
2,785002	-0,015186	31,168	-0,077865	22,460000	56,525000
2,785003	0,056071	31,269	-0,077835	22,460000	56,525000
2,784980	0,119150	31,370	-0,077809	22,460000	56,525000
2,784973	0,197415	31,470	-0,077776	22,460000	56,525000
2,784946	-0,117982	31,572	-0,077908	22,460000	56,525000
2,785027	0,063079	31,674	-0,077832	22,460000	56,525000
2,784986	-0,038549	31,786	-0,077875	22,460000	56,525000
2,784962	0,276848	31,886	-0,077743	22,460000	56,525000
2,784946	0,119150	31,986	-0,077809	22,460000	56,525000
2,784957	-0,046725	32,087	-0,077878	22,460000	56,525000
2,784959	0,142513	32,188	-0,077799	22,460000	56,525000
2,784954	0,024531	32,288	-0,077848	22,460000	56,525000
2,784986	0,205592	32,388	-0,077772	22,460000	56,525000
2,784987	0,063079	32,489	-0,077832	22,460000	56,525000
2,784980	-0,221946	32,593	-0,077951	22,460000	56,525000
2,784963	-0,063079	32,694	-0,077885	22,460000	56,525000
2,784972	-0,078265	32,794	-0,077891	22,460000	56,525000
2,784993	0,230123	32,904	-0,077762	22,460000	56,525000
2,784979	0,135504	33,004	-0,077802	22,460000	56,525000
2,785018	0,538511	33,106	-0,077633	22,460000	56,525000
2,784931	-0,174052	33,207	-0,077931	22,460000	56,525000
2,784979	0,110973	33,310	-0,077812	22,460000	56,525000
2,784975	-0,117982	33,410	-0,077908	22,460000	56,525000
2,785041	-0,078265	33,511	-0,077891	22,460000	56,525000
2,784982	-0,221946	33,611	-0,077951	22,460000	56,525000
2,784966	-0,142513	33,713	-0,077918	22,460000	56,525000
2,785001	-0,165875	33,813	-0,077928	22,460000	56,510000
2,784958	0,047894	33,914	-0,077838	22,460000	56,510000
2,784932	-0,197415	34,014	-0,077941	22,460000	56,510000
2,784905	-0,117982	34,114	-0,077908	22,460000	56,510000
2,784950	-0,197415	34,214	-0,077941	22,460000	56,510000
2,784955	-0,071256	34,315	-0,077888	22,460000	56,510000
2,784986	-0,213769	34,417	-0,077948	22,460000	56,510000
2,784975	-0,308388	34,517	-0,077987	22,460000	56,510000
2,783911	-1,092208	35,554	-0,078315	22,460000	56,510000
2,783974	-0,933341	35,654	-0,078249	22,460000	56,510000
2,784003	-1,226544	35,759	-0,078371	22,460000	56,510000
2,783970	-1,195004	35,859	-0,078358	22,460000	56,495000
2,783980	-1,130757	35,959	-0,078331	22,460000	56,495000
2,783959	-0,933341	36,059	-0,078249	22,460000	56,495000
2,784028	-0,925164	36,161	-0,078245	22,460000	56,495000
2,783996	-0,742935	36,262	-0,078169	22,460000	56,495000
2,783938	-0,925164	36,362	-0,078245	22,460000	56,495000
2,784003	-1,107394	36,462	-0,078321	22,460000	56,495000
2,783982	-0,703218	36,563	-0,078152	22,460000	56,495000
2,783977	-0,933341	36,664	-0,078249	22,460000	56,495000
2,783991	-1,044314	36,765	-0,078295	22,460000	56,495000
2,783958	-0,870262	36,865	-0,078222	22,460000	56,495000
2,783958	-1,281446	36,965	-0,078394	22,460000	56,495000
2,783988	-0,838722	37,065	-0,078209	22,460000	56,495000
2,784009	-1,392419	37,166	-0,078440	22,460000	56,495000
2,783952	-1,044314	37,266	-0,078295	22,460000	56,495000
2,784015	-1,067677	37,366	-0,078305	22,460000	56,495000
2,783954	-0,790829	37,467	-0,078189	22,460000	56,495000
2,783933	-0,909979	37,567	-0,078239	22,460000	56,495000
2,783973	-1,084031	37,667	-0,078312	22,460000	56,495000
2,783997	-0,775643	37,767	-0,078183	22,460000	56,495000
2,783909	-1,099217	37,867	-0,078318	22,460000	56,510000
2,783966	-0,949695	37,967	-0,078255	22,460000	56,510000
2,784014	-0,870262	38,068	-0,078222	22,460000	56,510000
2,783958	-1,075854	38,168	-0,078308	22,460000	56,510000
2,783992	-0,767466	38,268	-0,078179	22,460000	56,510000
2,783942	-1,036137	38,368	-0,078292	22,460000	56,510000
2,784021	-0,916988	38,469	-0,078242	22,460000	56,510000
2,783914	-0,941518	38,569	-0,078252	22,460000	56,510000
2,784035	-0,601591	38,670	-0,078110	22,460000	56,510000
2,783993	-1,052491	38,772	-0,078298	22,460000	56,510000
2,783987	-0,956704	38,873	-0,078258	22,460000	56,510000
2,783983	-0,996421	38,973	-0,078275	22,460000	56,510000
2,783998	-0,981235	39,074	-0,078269	22,460000	56,510000
2,783987	-0,909979	39,174	-0,078239	22,460000	56,510000
2,783993	-1,234721	39,274	-0,078375	22,460000	56,510000
2,783962	-0,909979	39,375	-0,078239	22,460000	56,510000
2,783971	-1,075854	39,475	-0,078308	22,460000	56,510000
2,783985	-1,067677	39,576	-0,078305	22,460000	56,510000
2,783985	-1,115571	39,676	-0,078325	22,460000	56,510000
2,783993	-1,312986	39,777	-0,078407	22,460000	56,510000
2,783942	-1,036137	39,878	-0,078292	22,450000	56,525000
2,783976	-1,067677	39,978	-0,078305	22,450000	56,525000
2,783935	-1,336349	40,078	-0,078417	22,450000	56,525000
2,783990	-1,147110	40,192	-0,078338	22,450000	56,525000
2,783945	-1,281446	40,292	-0,078394	22,450000	56,525000
2,783957	-1,067677	40,393	-0,078305	22,450000	56,525000
2,783953	-0,846899	40,504	-0,078212	22,450000	56,525000
2,783982	-1,004598	40,605	-0,078278	22,450000	56,525000
2,783940	-0,601591	40,706	-0,078110	22,450000	56,525000
2,783986	-0,916988	40,806	-0,078242	22,450000	56,525000
2,784011	-1,099217	40,915	-0,078318	22,450000	56,525000
2,783948	-1,012775	41,016	-0,078282	22,450000	56,525000
2,784007	-1,115571	41,116	-0,078325	22,450000	56,525000
2,783937	-1,312986	41,216	-0,078407	22,450000	56,525000
2,783985	-0,719572	41,321	-0,078159	22,450000	56,525000
2,783916	-1,115571	41,422	-0,078325	22,450000	56,525000
2,783964	-0,964881	41,523	-0,078262	22,450000	56,525000
2,784015	-1,155287	41,624	-0,078341	22,450000	56,525000
2,783946	-1,099217	41,724	-0,078318	22,450000	56,525000
2,783982	-0,916988	41,825	-0,078242	22,460000	56,510000
2,783999	-1,186827	41,926	-0,078354	22,460000	56,510000
2,783945	-0,949695	42,027	-0,078255	22,460000	56,510000
2,783937	-0,893625	42,144	-0,078232	22,460000	56,510000
2,783930	-1,027961	42,244	-0,078288	22,460000	56,510000
2,783966	-0,870262	42,345	-0,078222	22,460000	56,510000
2,783958	-1,004598	42,445	-0,078278	22,460000	56,510000
2,783983	-1,060668	42,560	-0,078302	22,460000	56,510000
2,784016	-0,973058	42,660	-0,078265	22,460000	56,510000
2,783940	-1,020952	42,762	-0,078285	22,460000	56,510000
2,784058	-1,249907	42,863	-0,078381	22,460000	56,510000
2,783986	-0,893625	42,972	-0,078232	22,460000	56,510000
2,783972	-1,138934	43,073	-0,078334	22,460000	56,510000
2,783965	-1,107394	43,175	-0,078321	22,460000	56,510000
2,783946	-0,371468	43,276	-0,078014	22,460000	56,510000
2,783956	-0,981235	43,376	-0,078269	22,460000	56,510000
2,783998	-0,767466	43,476	-0,078179	22,460000	56,510000
2,783973	-0,672847	43,577	-0,078140	22,460000	56,510000
2,783991	-0,973058	43,677	-0,078265	22,460000	56,510000
2,784000	-0,981235	43,777	-0,078269	22,460000	56,510000
2,783923	-0,608599	43,877	-0,078113	22,460000	56,510000
2,783989	-0,996421	43,977	-0,078275	22,460000	56,510000
2,783927	-0,901802	44,077	-0,078235	22,460000	56,510000
2,784017	-1,092208	44,178	-0,078315	22,460000	56,510000
2,784011	-1,210190	44,280	-0,078364	22,460000	56,510000
2,783966	-0,853908	44,381	-0,078215	22,460000	56,510000
2,783977	-1,360880	44,481	-0,078427	22,460000	56,510000
2,783953	-1,178650	44,588	-0,078351	22,460000	56,510000
2,783994	-1,004598	44,690	-0,078278	22,460000	56,510000
2,783963	-1,099217	44,791	-0,078318	22,460000	56,510000
2,783947	-0,815360	44,891	-0,078199	22,460000	56,510000
2,783933	-0,973058	45,002	-0,078265	22,460000	56,510000
2,783994	-0,799006	45,102	-0,078192	22,460000	56,510000
2,783945	-1,178650	45,202	-0,078351	22,460000	56,510000
2,783916	-1,312986	45,311	-0,078407	22,460000	56,510000
2,783973	-0,933341	45,411	-0,078249	22,460000	56,510000
2,783946	-1,044314	45,512	-0,078295	22,460000	56,510000
2,783962	-1,336349	45,612	-0,078417	22,460000	56,510000
2,784021	-1,004598	45,717	-0,078278	22,460000	56,510000
2,784950	-0,237132	46,755	-0,077958	22,460000	56,495000
2,784958	-0,245309	46,856	-0,077961	22,460000	56,495000
2,784969	-0,078265	46,962	-0,077891	22,460000	56,495000
2,784969	0,056071	47,062	-0,077835	22,460000	56,495000
2,784917	0,119150	47,163	-0,077809	22,460000	56,495000
2,784974	-0,205592	47,264	-0,077944	22,460000	56,495000
2,785035	-0,126159	47,368	-0,077911	22,460000	56,495000
2,784946	0,031540	47,468	-0,077845	22,460000	56,495000
2,784944	-0,078265	47,568	-0,077891	22,460000	56,495000
2,784988	-0,292034	47,668	-0,077980	22,460000	56,495000
2,784950	0,213769	47,777	-0,077769	22,460000	56,495000
2,784953	0,127327	47,877	-0,077805	22,460000	56,510000
2,784960	0,127327	47,977	-0,077805	22,460000	56,510000
2,784959	-0,054902	48,077	-0,077881	22,460000	56,510000
2,784962	-0,086442	48,177	-0,077895	22,460000	56,510000
2,784958	-0,537343	48,277	-0,078083	22,460000	56,510000
2,784940	-0,442724	48,377	-0,078043	22,460000	56,510000
2,784941	-0,110973	48,477	-0,077905	22,460000	56,510000
2,784997	-0,553697	48,577	-0,078090	22,460000	56,510000
2,784956	-0,395998	48,678	-0,078024	22,460000	56,510000
2,784934	-0,356282	48,778	-0,078007	22,460000	56,510000
2,784932	0,016354	48,878	-0,077852	22,460000	56,510000
2,784962	-0,078265	48,978	-0,077891	22,460000	56,510000
2,784970	-0,283857	49,078	-0,077977	22,460000	56,510000
2,784962	0,341096	49,178	-0,077716	22,460000	56,510000
2,784959	0,039717	49,278	-0,077842	22,460000	56,510000
2,784957	-0,142513	49,384	-0,077918	22,460000	56,510000
2,784974	-0,071256	49,484	-0,077888	22,460000	56,510000
2,784982	-0,063079	49,584	-0,077885	22,460000	56,510000
2,784967	0,071256	49,684	-0,077829	22,460000	56,510000
2,784999	-0,142513	49,786	-0,077918	22,460000	56,485000
2,784991	0,000000	49,886	-0,077858	22,460000	56,485000
2,784963	-0,276848	49,987	-0,077974	22,460000	56,485000
2,784972	0,269840	50,087	-0,077746	22,460000	56,485000
2,784974	0,039717	50,197	-0,077842	22,460000	56,485000
2,784967	-0,149522	50,297	-0,077921	22,460000	56,485000
2,784980	-0,561874	50,397	-0,078093	22,460000	56,485000
2,785049	-0,252318	50,514	-0,077964	22,460000	56,485000
2,784923	-0,300211	50,614	-0,077984	22,460000	56,485000
2,784948	-0,442724	50,715	-0,078043	22,460000	56,485000
2,785010	0,119150	50,817	-0,077809	22,460000	56,485000
2,784945	-0,182229	50,918	-0,077935	22,460000	56,485000
2,784955	-0,157698	51,019	-0,077924	22,460000	56,485000
2,784948	-0,363291	51,120	-0,078010	22,460000	56,485000
2,785004	-0,442724	51,220	-0,078043	22,460000	56,485000
2,784983	-0,078265	51,331	-0,077891	22,460000	56,485000
2,785013	-0,283857	51,431	-0,077977	22,460000	56,485000
2,784990	-0,149522	51,532	-0,077921	22,460000	56,485000
2,785019	-0,157698	51,634	-0,077924	22,460000	56,485000
2,784923	-0,276848	51,750	-0,077974	22,460000	56,485000
2,784977	0,039717	51,850	-0,077842	22,460000	56,485000
2,784988	-0,427538	51,950	-0,078037	22,460000	56,485000
2,784968	-0,102796	52,050	-0,077901	22,460000	56,485000
2,784922	-0,260495	52,160	-0,077967	22,460000	56,485000
2,784975	-0,094619	52,261	-0,077898	22,460000	56,485000
2,784990	-0,031540	52,361	-0,077872	22,460000	56,485000
2,785026	-0,023363	52,461	-0,077868	22,460000	56,485000
2,784966	-0,063079	52,577	-0,077885	22,460000	56,485000
2,784963	-0,038549	52,679	-0,077875	22,460000	56,485000
2,784977	-0,063079	52,780	-0,077885	22,460000	56,485000
2,784983	0,102796	52,881	-0,077815	22,460000	56,485000
2,785006	-0,078265	52,982	-0,077891	22,460000	56,485000
2,784936	0,182229	53,083	-0,077782	22,460000	56,485000
2,784957	0,039717	53,183	-0,077842	22,460000	56,485000
2,785007	-0,031540	53,284	-0,077872	22,460000	56,485000
2,784985	-0,038549	53,384	-0,077875	22,460000	56,485000
2,784998	-0,157698	53,484	-0,077924	22,460000	56,485000
2,785006	-0,165875	53,585	-0,077928	22,460000	56,485000
2,784959	-0,252318	53,686	-0,077964	22,460000	56,485000
2,785021	-0,323574	53,803	-0,077994	22,460000	56,510000
2,784979	-0,205592	53,904	-0,077944	22,460000	56,510000
2,784989	-0,054902	54,006	-0,077881	22,460000	56,510000
2,784960	-0,071256	54,107	-0,077888	22,460000	56,510000
2,784989	-0,260495	54,216	-0,077967	22,460000	56,510000
2,784946	0,024531	54,316	-0,077848	22,460000	56,510000
2,784951	-0,086442	54,417	-0,077895	22,460000	56,510000
2,784915	-0,117982	54,535	-0,077908	22,460000	56,510000
2,784978	-0,134336	54,636	-0,077915	22,460000	56,510000
2,784911	-0,174052	54,736	-0,077931	22,460000	56,510000
2,785024	0,031540	54,836	-0,077845	22,460000	56,510000
2,784916	-0,189238	54,945	-0,077938	22,460000	56,510000
2,784973	-0,008177	55,045	-0,077862	22,460000	56,510000
2,784960	0,063079	55,145	-0,077832	22,460000	56,510000
2,785036	-0,323574	55,245	-0,077994	22,460000	56,510000
2,784939	-0,142513	55,361	-0,077918	22,460000	56,510000
2,784952	-0,245309	55,462	-0,077961	22,460000	56,510000
2,784976	-0,245309	55,562	-0,077961	22,460000	56,510000
2,784968	-0,102796	55,662	-0,077901	22,460000	56,510000
2,784977	-0,331751	55,768	-0,077997	22,460000	56,510000
2,784986	0,087610	55,869	-0,077822	22,460000	56,510000
2,784976	-0,078265	55,969	-0,077891	22,460000	56,510000
2,784943	-0,466087	56,070	-0,078053	22,460000	56,510000
2,784951	-0,331751	56,179	-0,077997	22,460000	56,510000
2,784972	-0,411184	56,279	-0,078030	22,460000	56,510000
2,784945	-0,046725	56,379	-0,077878	22,460000	56,510000
2,785006	-0,245309	56,480	-0,077961	22,460000	56,510000
2,784948	-0,245309	56,587	-0,077961	22,460000	56,510000
2,784943	0,039717	56,688	-0,077842	22,460000	56,510000
2,784961	-0,442724	56,789	-0,078043	22,460000	56,510000
2,784948	-0,411184	56,890	-0,078030	22,460000	56,510000
2,784995	-0,205592	56,990	-0,077944	22,460000	56,510000
2,783983	-1,178650	58,022	-0,078351	22,460000	56,525000
2,783953	-1,162296	58,123	-0,078344	22,460000	56,525000
2,784023	-1,471853	58,223	-0,078474	22,460000	56,525000
2,784001	-1,447322	58,324	-0,078463	22,460000	56,525000
2,783967	-1,281446	58,424	-0,078394	22,460000	56,525000
2,784007	-1,226544	58,526	-0,078371	22,460000	56,525000
2,783999	-1,075854	58,626	-0,078308	22,460000	56,525000
2,783988	-1,075854	58,726	-0,078308	22,460000	56,525000
2,783983	-1,266260	58,826	-0,078388	22,460000	56,525000
2,783946	-1,352703	58,927	-0,078424	22,460000	56,525000
2,783973	-1,376065	59,028	-0,078434	22,460000	56,525000
2,784010	-0,941518	59,129	-0,078252	22,460000	56,525000
2,784022	-1,162296	59,229	-0,078344	22,460000	56,525000
2,783981	-1,376065	59,330	-0,078434	22,460000	56,525000
2,784038	-1,020952	59,430	-0,078285	22,460000	56,525000
2,783942	-0,893625	59,530	-0,078232	22,460000	56,525000
2,784010	-1,384242	59,630	-0,078437	22,460000	56,525000
2,784001	-1,487038	59,736	-0,078480	22,460000	56,525000
2,784045	-1,321163	59,836	-0,078411	22,460000	56,525000
2,783986	-1,550118	59,936	-0,078506	22,460000	56,525000
2,783934	-1,407605	60,036	-0,078447	22,460000	56,525000
2,784002	-1,447322	60,139	-0,078463	22,460000	56,525000
2,783983	-1,241730	60,241	-0,078377	22,460000	56,525000
2,783963	-1,241730	60,342	-0,078377	22,460000	56,525000
2,783965	-1,336349	60,444	-0,078417	22,460000	56,525000
2,783960	-0,996421	60,565	-0,078275	22,460000	56,525000
2,784005	-1,321163	60,665	-0,078411	22,460000	56,525000
2,783969	-1,107394	60,765	-0,078321	22,460000	56,525000
2,783978	-1,099217	60,865	-0,078318	22,460000	56,525000
2,783982	-1,400596	60,983	-0,078444	22,460000	56,525000
2,784010	-1,084031	61,084	-0,078312	22,460000	56,525000
2,783935	-1,067677	61,184	-0,078305	22,460000	56,525000
2,783961	-1,258084	61,286	-0,078384	22,460000	56,525000
2,784028	-1,202013	61,387	-0,078361	22,460000	56,525000
2,784001	-0,886616	61,487	-0,078229	22,460000	56,525000
2,784004	-1,195004	61,587	-0,078358	22,460000	56,525000
2,783974	-1,297800	61,688	-0,078401	22,460000	56,525000
2,783989	-1,202013	61,790	-0,078361	22,460000	56,495000
2,783924	-1,312986	61,892	-0,078407	22,460000	56,495000
2,783962	-0,964881	61,992	-0,078262	22,460000	56,495000
2,783926	-1,012775	62,093	-0,078282	22,460000	56,495000
2,783970	-1,281446	62,193	-0,078394	22,460000	56,495000
2,783980	-1,289623	62,293	-0,078397	22,460000	56,495000
2,783985	-1,369057	62,394	-0,078431	22,460000	56,495000
2,784020	-1,312986	62,494	-0,078407	22,460000	56,495000
2,783991	-1,210190	62,594	-0,078364	22,460000	56,495000
2,783952	-1,321163	62,696	-0,078411	22,460000	56,495000
2,783997	-1,241730	62,796	-0,078377	22,460000	56,495000
2,783979	-1,147110	62,896	-0,078338	22,460000	56,495000
2,783981	-1,503392	63,018	-0,078487	22,460000	56,495000
2,783972	-1,360880	63,119	-0,078427	22,460000	56,495000
2,783992	-1,155287	63,219	-0,078341	22,460000	56,495000
2,784021	-1,305977	63,331	-0,078404	22,460000	56,495000
2,783986	-1,415782	63,433	-0,078450	22,460000	56,495000
2,783981	-1,273269	63,533	-0,078391	22,460000	56,495000
2,783971	-1,487038	63,634	-0,078480	22,460000	56,495000
2,783972	-1,550118	63,738	-0,078506	22,460000	56,495000
2,783961	-1,400596	63,838	-0,078444	22,460000	56,510000
2,783975	-1,369057	63,940	-0,078431	22,460000	56,510000
2,784003	-1,060668	64,041	-0,078302	22,460000	56,510000
2,783972	-1,550118	64,142	-0,078506	22,460000	56,510000
2,783958	-1,352703	64,244	-0,078424	22,460000	56,510000
2,783937	-1,423959	64,344	-0,078454	22,460000	56,510000
2,783955	-1,369057	64,444	-0,078431	22,460000	56,510000
2,783967	-1,621374	64,558	-0,078536	22,460000	56,510000
2,783993	-1,534932	64,659	-0,078500	22,460000	56,510000
2,783954	-1,084031	64,759	-0,078312	22,460000	56,510000
2,783961	-1,186827	64,871	-0,078354	22,460000	56,510000
2,783963	-1,400596	65,005	-0,078444	22,460000	56,510000
2,783955	-1,407605	65,106	-0,078447	22,460000	56,510000
2,784017	-1,258084	65,206	-0,078384	22,460000	56,510000
2,783954	-1,321163	65,306	-0,078411	22,460000	56,510000
2,783928	-1,440313	65,422	-0,078460	22,460000	56,510000
2,783988	-1,210190	65,523	-0,078364	22,460000	56,510000
2,783947	-1,654082	65,625	-0,078550	22,460000	56,510000
2,783934	-1,503392	65,745	-0,078487	22,460000	56,510000
2,784002	-1,621374	65,845	-0,078536	22,460000	56,525000
2,784013	-1,480030	65,945	-0,078477	22,460000	56,525000
2,783963	-1,297800	66,045	-0,078401	22,460000	56,525000
2,783944	-1,685622	66,162	-0,078563	22,460000	56,525000
2,783998	-1,036137	66,263	-0,078292	22,460000	56,525000
2,783997	-1,740524	66,364	-0,078586	22,460000	56,525000
2,783996	-1,044314	66,465	-0,078295	22,460000	56,525000
2,783996	-1,661091	66,584	-0,078553	22,460000	56,525000
2,783996	-1,598011	66,684	-0,078526	22,460000	56,525000
2,783975	-1,258084	66,784	-0,078384	22,460000	56,525000
2,783994	-1,195004	66,885	-0,078358	22,460000	56,525000
2,783941	-1,534932	66,985	-0,078500	22,460000	56,525000
2,783946	-1,297800	67,085	-0,078401	22,460000	56,525000
2,784008	-1,218367	67,185	-0,078368	22,460000	56,525000
2,783997	-1,511569	67,285	-0,078490	22,460000	56,525000
2,783903	-1,281446	67,393	-0,078394	22,460000	56,525000
2,784031	-1,297800	67,494	-0,078401	22,460000	56,525000
2,783964	-1,495215	67,594	-0,078483	22,460000	56,525000
2,783938	-1,566472	67,694	-0,078513	22,460000	56,525000
2,783984	-1,558295	67,816	-0,078510	22,460000	56,485000
2,784021	-1,195004	67,916	-0,078358	22,460000	56,485000
2,783887	-1,369057	68,017	-0,078431	22,460000	56,485000
2,783960	-1,415782	68,133	-0,078450	22,460000	56,485000
2,783928	-1,297800	68,233	-0,078401	22,460000	56,485000
2,784003	-1,360880	68,333	-0,078427	22,460000	56,485000
2,784956	-0,696210	69,365	-0,078149	22,460000	56,485000
2,784989	-0,624953	69,465	-0,078120	22,460000	56,485000
2,784945	-0,505803	69,566	-0,078070	22,460000	56,485000
2,784994	-0,561874	69,666	-0,078093	22,460000	56,485000
2,784959	-0,742935	69,791	-0,078169	22,460000	56,485000
2,784968	-0,822368	69,892	-0,078202	22,460000	56,485000
2,784901	-0,466087	69,992	-0,078053	22,460000	56,485000
2,785012	-0,530334	70,093	-0,078080	22,460000	56,485000
2,785029	-0,260495	70,193	-0,077967	22,460000	56,485000
2,784988	-0,466087	70,293	-0,078053	22,460000	56,485000
2,784944	-0,419361	70,395	-0,078034	22,460000	56,485000
2,784957	-0,616776	70,495	-0,078116	22,460000	56,485000
2,785002	-0,956704	70,600	-0,078258	22,460000	56,485000
2,784945	-0,751112	70,700	-0,078172	22,460000	56,485000
2,784959	-0,782652	70,801	-0,078186	22,460000	56,485000
2,785020	-0,545520	70,901	-0,078086	22,460000	56,485000
2,784999	-0,411184	71,028	-0,078030	22,460000	56,485000
2,785006	-0,577060	71,129	-0,078100	22,460000	56,485000
2,784970	-0,221946	71,229	-0,077951	22,460000	56,485000
2,784994	-0,522157	71,341	-0,078077	22,460000	56,485000
2,784995	-0,505803	71,442	-0,078070	22,460000	56,485000
2,785006	-0,601591	71,542	-0,078110	22,460000	56,485000
2,784946	-0,513980	71,642	-0,078073	22,460000	56,485000
2,784976	-0,742935	71,743	-0,078169	22,460000	56,485000
2,784965	-0,822368	71,843	-0,078202	22,460000	56,495000
2,784957	-0,759289	71,943	-0,078176	22,460000	56,495000
2,784984	-0,782652	72,045	-0,078186	22,460000	56,495000
2,784945	-0,775643	72,146	-0,078183	22,460000	56,495000
2,785007	-0,593414	72,246	-0,078106	22,460000	56,495000
2,784985	-0,981235	72,347	-0,078269	22,460000	56,495000
2,784970	-0,799006	72,447	-0,078192	22,460000	56,495000
2,784949	-0,893625	72,551	-0,078232	22,460000	56,495000
2,784983	-0,870262	72,653	-0,078222	22,460000	56,495000
2,784902	-0,735926	72,753	-0,078166	22,460000	56,495000
2,784948	-0,870262	72,854	-0,078222	22,460000	56,495000
2,784980	-0,782652	72,975	-0,078186	22,460000	56,495000
2,784943	-1,092208	73,075	-0,078315	22,460000	56,495000
2,784972	-0,886616	73,175	-0,078229	22,460000	56,495000
2,784918	-1,123748	73,276	-0,078328	22,460000	56,495000
2,784938	-0,870262	73,396	-0,078222	22,460000	56,495000
2,784978	-1,123748	73,496	-0,078328	22,460000	56,495000
2,785011	-0,775643	73,598	-0,078183	22,460000	56,495000
2,784988	-0,782652	73,698	-0,078186	22,460000	56,495000
2,784961	-1,012775	73,798	-0,078282	22,460000	56,525000
2,784962	-0,941518	73,898	-0,078252	22,460000	56,525000
2,784969	-0,862085	73,998	-0,078219	22,460000	56,525000
2,784969	-0,925164	74,099	-0,078245	22,460000	56,525000
2,784956	-1,115571	74,223	-0,078325	22,460000	56,525000
2,784982	-1,044314	74,324	-0,078295	22,460000	56,525000
2,784963	-0,988244	74,424	-0,078271	22,460000	56,525000
2,784995	-0,751112	74,550	-0,078172	22,460000	56,525000
2,785002	-0,727749	74,650	-0,078163	22,460000	56,525000
2,784978	-0,790829	74,750	-0,078189	22,460000	56,525000
2,784994	-0,853908	74,852	-0,078215	22,460000	56,525000
2,784954	-0,601591	74,972	-0,078110	22,460000	56,525000
2,784952	-0,616776	75,074	-0,078116	22,460000	56,525000
2,784973	-0,585237	75,174	-0,078103	22,460000	56,525000
2,784971	-0,497626	75,275	-0,078066	22,460000	56,525000
2,784964	-0,973058	75,395	-0,078265	22,460000	56,525000
2,784938	-0,775643	75,495	-0,078183	22,460000	56,525000
2,784941	-1,123748	75,595	-0,078328	22,460000	56,525000
2,784949	-0,916988	75,696	-0,078242	22,460000	56,525000
2,784989	-0,933341	75,803	-0,078249	22,460000	56,495000
2,784992	-0,973058	75,904	-0,078265	22,460000	56,495000
2,784952	-0,719572	76,004	-0,078159	22,460000	56,495000
2,784934	-0,790829	76,104	-0,078189	22,460000	56,495000
2,784983	-0,822368	76,204	-0,078202	22,460000	56,495000
2,784969	-0,703218	76,304	-0,078152	22,460000	56,495000
2,784974	-0,585237	76,404	-0,078103	22,460000	56,495000
2,784955	-1,036137	76,505	-0,078292	22,460000	56,495000
2,784925	-0,901802	76,630	-0,078235	22,460000	56,495000
2,784969	-0,964881	76,730	-0,078262	22,460000	56,495000
2,784991	-0,973058	76,830	-0,078265	22,460000	56,495000
2,784950	-1,226544	76,947	-0,078371	22,460000	56,495000
2,784969	-0,909979	77,047	-0,078239	22,460000	56,495000
2,784903	-0,949695	77,147	-0,078255	22,460000	56,495000
2,784945	-0,988244	77,247	-0,078271	22,460000	56,495000
2,784914	-1,107394	77,355	-0,078321	22,460000	56,495000
2,784947	-0,862085	77,455	-0,078219	22,460000	56,495000
2,784993	-0,981235	77,555	-0,078269	22,460000	56,495000
2,784937	-1,004598	77,656	-0,078278	22,460000	56,495000
2,784984	-0,973058	77,781	-0,078265	22,460000	56,495000
2,784917	-0,878439	77,881	-0,078226	22,460000	56,495000
2,784987	-0,973058	77,982	-0,078265	22,460000	56,495000
2,784917	-0,656493	78,082	-0,078133	22,460000	56,495000
2,784959	-0,624953	78,197	-0,078120	22,460000	56,495000
2,784946	-0,585237	78,297	-0,078103	22,460000	56,495000
2,785008	-0,356282	78,398	-0,078007	22,460000	56,495000
2,784970	-0,608599	78,499	-0,078113	22,460000	56,495000
2,785001	-0,679856	78,625	-0,078143	22,460000	56,495000
2,784943	-0,846899	78,726	-0,078212	22,460000	56,495000
2,784987	-0,568883	78,826	-0,078096	22,460000	56,495000
2,784960	-0,513980	78,933	-0,078073	22,460000	56,495000
2,784966	-1,075854	79,034	-0,078308	22,460000	56,495000
2,784985	-0,568883	79,135	-0,078096	22,460000	56,495000
2,784972	-0,641307	79,236	-0,078126	22,460000	56,495000
2,784974	-0,782652	79,357	-0,078186	22,460000	56,495000
2,784981	-1,020952	79,457	-0,078285	22,460000	56,495000
2,784958	-0,822368	79,558	-0,078202	22,460000	56,495000
2,784990	-0,490618	79,658	-0,078063	22,460000	56,495000
2,784990	-0,656493	79,785	-0,078133	22,460000	56,495000
2,783999	-1,581657	80,820	-0,078520	22,460000	56,510000
2,783961	-1,566472	80,920	-0,078513	22,460000	56,510000
2,784035	-1,939107	81,038	-0,078669	22,460000	56,510000
2,783928	-1,138934	81,138	-0,078334	22,460000	56,510000
2,783954	-2,175071	81,238	-0,078768	22,460000	56,510000
2,783994	-1,946116	81,353	-0,078672	22,460000	56,510000
2,783990	-1,740524	81,453	-0,078586	22,460000	56,510000
2,784007	-1,946116	81,554	-0,078672	22,460000	56,510000
2,783976	-1,447322	81,655	-0,078463	22,460000	56,510000
2,783990	-1,407605	81,757	-0,078447	22,460000	56,510000
2,783967	-1,795427	81,857	-0,078609	22,460000	56,510000
2,784000	-1,685622	81,958	-0,078563	22,460000	56,510000
2,783995	-1,606188	82,058	-0,078530	22,460000	56,510000
2,784011	-1,447322	82,181	-0,078463	22,460000	56,510000
2,783933	-1,574649	82,282	-0,078517	22,460000	56,510000
2,783985	-1,700807	82,382	-0,078569	22,460000	56,510000
2,783976	-1,423959	82,483	-0,078454	22,460000	56,510000
2,783917	-1,598011	82,602	-0,078526	22,460000	56,510000
2,784024	-1,859674	82,703	-0,078636	22,460000	56,510000
2,784020	-1,463676	82,804	-0,078470	22,460000	56,510000
2,784021	-1,566472	82,904	-0,078513	22,460000	56,510000
2,783987	-1,447322	83,011	-0,078463	22,460000	56,510000
2,784010	-1,883037	83,112	-0,078646	22,460000	56,510000
2,783987	-1,305977	83,214	-0,078404	22,460000	56,510000
2,783965	-1,384242	83,314	-0,078437	22,460000	56,510000
2,783954	-1,614365	83,437	-0,078533	22,460000	56,510000
2,783944	-1,843320	83,537	-0,078629	22,460000	56,510000
2,783950	-1,558295	83,637	-0,078510	22,460000	56,510000
2,783996	-1,725338	83,753	-0,078580	22,460000	56,510000
2,783993	-1,939107	83,854	-0,078669	22,460000	56,510000
2,784046	-1,360880	83,954	-0,078427	22,460000	56,510000
2,783943	-1,407605	84,055	-0,078447	22,460000	56,510000
2,783975	-1,614365	84,164	-0,078533	22,460000	56,510000
2,783971	-1,677445	84,264	-0,078560	22,460000	56,510000
2,784025	-1,685622	84,365	-0,078563	22,460000	56,510000
2,783965	-2,057089	84,465	-0,078718	22,460000	56,510000
2,783966	-1,692630	84,584	-0,078566	22,460000	56,510000
2,783999	-1,543109	84,684	-0,078503	22,460000	56,510000
2,784011	-1,700807	84,784	-0,078569	22,460000	56,510000
2,783954	-1,376065	84,884	-0,078434	22,460000	56,510000
2,783994	-1,558295	84,999	-0,078510	22,460000	56,510000
2,784012	-1,423959	85,099	-0,078454	22,460000	56,510000
2,783981	-1,637728	85,200	-0,078543	22,460000	56,510000
2,783988	-1,534932	85,300	-0,078500	22,460000	56,510000
2,783969	-1,637728	85,407	-0,078543	22,460000	56,510000
2,783987	-1,661091	85,508	-0,078553	22,460000	56,510000
2,783996	-1,891214	85,608	-0,078649	22,460000	56,510000
2,783932	-1,407605	85,709	-0,078447	22,460000	56,510000
2,783999	-1,558295	85,810	-0,078510	22,450000	56,525000
2,783972	-1,748701	85,911	-0,078589	22,450000	56,525000
2,783991	-1,772064	86,012	-0,078599	22,450000	56,525000
2,783990	-1,550118	86,112	-0,078506	22,450000	56,525000
2,784001	-1,725338	86,241	-0,078580	22,450000	56,525000
2,784054	-1,700807	86,342	-0,078569	22,450000	56,525000
2,783939	-1,669268	86,443	-0,078556	22,450000	56,525000
2,783984	-1,226544	86,557	-0,078371	22,450000	56,525000
2,783979	-1,748701	86,657	-0,078589	22,450000	56,525000
2,783923	-1,780241	86,757	-0,078603	22,450000	56,525000
2,783990	-1,819957	86,857	-0,078619	22,450000	56,525000
2,783921	-1,780241	86,991	-0,078603	22,450000	56,525000
2,784009	-1,826966	87,091	-0,078622	22,450000	56,525000
2,784015	-1,708984	87,191	-0,078573	22,450000	56,525000
2,783944	-1,922753	87,291	-0,078662	22,450000	56,525000
2,783933	-1,511569	87,404	-0,078490	22,450000	56,525000
2,783979	-1,930930	87,504	-0,078666	22,450000	56,525000
2,783984	-1,400596	87,604	-0,078444	22,450000	56,525000
2,783987	-1,677445	87,705	-0,078560	22,450000	56,525000
2,783938	-1,480030	87,814	-0,078477	22,450000	56,525000
2,783988	-1,407605	87,914	-0,078447	22,450000	56,525000
2,783957	-1,851497	88,014	-0,078632	22,450000	56,525000
2,784002	-1,543109	88,114	-0,078503	22,450000	56,525000
2,783977	-1,708984	88,243	-0,078573	22,450000	56,525000
2,783981	-1,763887	88,343	-0,078596	22,450000	56,525000
2,783962	-1,685622	88,443	-0,078563	22,450000	56,525000
2,783980	-1,511569	88,557	-0,078490	22,450000	56,525000
2,783955	-1,748701	88,657	-0,078589	22,450000	56,525000
2,783978	-1,455499	88,757	-0,078467	22,450000	56,525000
2,783934	-1,692630	88,858	-0,078566	22,450000	56,525000
2,783983	-1,700807	88,962	-0,078569	22,450000	56,525000
2,784017	-1,566472	89,064	-0,078513	22,450000	56,525000
2,783948	-1,954293	89,165	-0,078675	22,450000	56,525000
2,783979	-1,795427	89,266	-0,078609	22,450000	56,525000
2,783999	-1,866683	89,393	-0,078639	22,450000	56,525000
2,783971	-1,874860	89,494	-0,078642	22,450000	56,525000
2,783965	-1,946116	89,594	-0,078672	22,450000	56,525000
2,783966	-1,606188	89,695	-0,078530	22,450000	56,525000
2,783984	-2,191425	89,808	-0,078774	22,460000	56,485000
2,783976	-1,534932	89,908	-0,078500	22,460000	56,485000
2,784056	-1,866683	90,008	-0,078639	22,460000	56,485000
2,783991	-1,969479	90,108	-0,078682	22,460000	56,485000
2,784023	-1,819957	90,214	-0,078619	22,460000	56,485000
2,783996	-2,159885	90,315	-0,078761	22,460000	56,485000
2,784015	-1,669268	90,416	-0,078556	22,460000	56,485000
2,783918	-1,772064	90,516	-0,078599	22,460000	56,485000
2,783966	-1,930930	90,634	-0,078666	22,460000	56,485000
2,783979	-1,614365	90,734	-0,078533	22,460000	56,485000
2,783926	-1,455499	90,834	-0,078467	22,460000	56,485000
2,783977	-1,258084	90,964	-0,078384	22,460000	56,485000
2,783964	-2,009196	91,065	-0,078698	22,460000	56,485000
2,783992	-1,717161	91,165	-0,078576	22,460000	56,485000
2,784036	-1,811780	91,216	-0,078616	22,460000	56,485000