File: Nanoindentation Datenauswertung/data/MEMS Resolution Test/MEMS step test,1nm,10Hz-1
Quasi static measurement routine
Tip parameters (shape,radius, material...)
17.08.2022

Piezo position[nm]	MEMS displ.[nm]	Time[ms]	Cap [pf]	Temp [°C]	Rh [%]
eoh
2,784103	0,000000	0,171	-0,066440	22,460000	56,865000
2,785048	-0,054902	2,171	-0,066463	22,450000	56,865000
2,785027	-0,015186	2,271	-0,066447	22,450000	56,865000
2,785086	-0,126159	2,371	-0,066493	22,450000	56,865000
2,785051	-0,205592	2,471	-0,066526	22,450000	56,865000
2,785030	-0,744103	2,574	-0,066751	22,450000	56,865000
2,785056	-0,007009	2,691	-0,066443	22,450000	56,865000
2,785051	-0,252318	2,792	-0,066546	22,450000	56,865000
2,784998	-0,157698	2,892	-0,066506	22,450000	56,865000
2,785034	-0,419361	2,993	-0,066616	22,450000	56,865000
2,784990	-0,419361	3,093	-0,066616	22,450000	56,865000
2,785072	-0,126159	3,194	-0,066493	22,450000	56,865000
2,785084	-0,150690	3,294	-0,066503	22,450000	56,865000
2,785062	-0,459078	3,394	-0,066632	22,450000	56,865000
2,785039	-0,308388	3,495	-0,066569	22,450000	56,865000
2,784999	-0,220778	3,595	-0,066533	22,450000	56,865000
2,785038	-0,364459	3,695	-0,066593	22,450000	56,865000
2,785060	-0,220778	3,796	-0,066533	22,450000	56,865000
2,785034	-0,474264	3,897	-0,066639	22,450000	56,865000
2,785041	-0,379645	3,997	-0,066599	22,460000	56,865000
2,785009	-0,641307	4,097	-0,066708	22,460000	56,865000
2,785014	-0,387821	4,199	-0,066603	22,460000	56,865000
2,785078	-0,442724	4,299	-0,066625	22,460000	56,865000
2,785063	-0,356282	4,400	-0,066589	22,460000	56,865000
2,785035	-0,498794	4,502	-0,066649	22,460000	56,865000
2,785029	-0,609767	4,602	-0,066695	22,460000	56,865000
2,785096	-0,331751	4,703	-0,066579	22,460000	56,865000
2,785023	-0,474264	4,805	-0,066639	22,460000	56,865000
2,785051	-0,110973	4,905	-0,066487	22,460000	56,865000
2,785064	-0,838722	5,005	-0,066791	22,460000	56,865000
2,785119	-0,577060	5,105	-0,066682	22,460000	56,865000
2,785109	-0,292034	5,206	-0,066562	22,460000	56,865000
2,785015	-0,094619	5,306	-0,066480	22,460000	56,865000
2,785055	-0,157698	5,407	-0,066506	22,460000	56,865000
2,785029	-0,252318	5,507	-0,066546	22,460000	56,865000
2,785063	-0,513980	5,608	-0,066655	22,460000	56,865000
2,785117	-0,213769	5,708	-0,066530	22,460000	56,865000
2,785055	-0,530334	5,808	-0,066662	22,460000	56,865000
2,785026	-0,664670	5,909	-0,066718	22,460000	56,865000
2,785068	-0,679856	6,010	-0,066725	22,460000	56,865000
2,785041	-0,505803	6,111	-0,066652	22,460000	56,865000
2,785086	-0,142513	6,212	-0,066500	22,460000	56,865000
2,785055	-0,434547	6,312	-0,066622	22,460000	56,865000
2,785081	-0,063079	6,412	-0,066467	22,460000	56,865000
2,785040	-0,260495	6,512	-0,066549	22,460000	56,865000
2,785041	-0,553697	6,612	-0,066672	22,460000	56,865000
2,785047	-0,490618	6,712	-0,066646	22,460000	56,865000
2,785014	-0,585237	6,813	-0,066685	22,460000	56,865000
2,785082	-0,751112	6,915	-0,066754	22,460000	56,865000
2,785076	-0,688033	7,015	-0,066728	22,460000	56,865000
2,784978	-0,577060	7,115	-0,066682	22,460000	56,865000
2,785037	-0,466087	7,216	-0,066635	22,460000	56,865000
2,785061	-0,276848	7,317	-0,066556	22,460000	56,865000
2,785043	-0,878439	7,429	-0,066808	22,460000	56,865000
2,785116	-0,696210	7,542	-0,066731	22,460000	56,865000
2,785047	-0,395998	7,642	-0,066606	22,460000	56,865000
2,785021	-0,688033	7,743	-0,066728	22,460000	56,865000
2,785005	-0,641307	7,843	-0,066708	22,460000	56,865000
2,785100	-0,593414	7,943	-0,066688	22,460000	56,865000
2,785070	-0,744103	8,044	-0,066751	22,470000	56,850000
2,785064	-0,593414	8,144	-0,066688	22,470000	56,850000
2,785033	-0,704387	8,245	-0,066735	22,470000	56,850000
2,785094	-0,799006	8,345	-0,066774	22,470000	56,850000
2,785144	-0,696210	8,445	-0,066731	22,470000	56,850000
2,785081	-0,656493	8,545	-0,066715	22,470000	56,850000
2,785010	-0,790829	8,645	-0,066771	22,470000	56,850000
2,785036	-0,744103	8,745	-0,066751	22,470000	56,850000
2,784994	-0,949695	8,846	-0,066837	22,470000	56,850000
2,785059	-0,601591	8,947	-0,066692	22,470000	56,850000
2,785032	-0,585237	9,047	-0,066685	22,470000	56,850000
2,785022	-0,885448	9,147	-0,066811	22,470000	56,850000
2,785016	-0,577060	9,247	-0,066682	22,470000	56,850000
2,785084	-0,482441	9,347	-0,066642	22,470000	56,850000
2,785050	-0,577060	9,448	-0,066682	22,470000	56,850000
2,785074	-0,744103	9,549	-0,066751	22,470000	56,850000
2,785075	-0,601591	9,651	-0,066692	22,470000	56,850000
2,785074	-0,767466	9,753	-0,066761	22,470000	56,850000
2,785006	-0,561874	9,853	-0,066675	22,470000	56,850000
2,784991	-0,704387	9,953	-0,066735	22,470000	56,850000
2,785064	-0,996421	10,053	-0,066857	22,470000	56,850000
2,785025	-0,855076	10,153	-0,066798	22,470000	56,850000
2,785096	-0,855076	10,261	-0,066798	22,470000	56,850000
2,785131	-0,822368	10,363	-0,066784	22,470000	56,850000
2,785047	-0,633130	10,464	-0,066705	22,470000	56,850000
2,785010	-0,815360	10,565	-0,066781	22,470000	56,850000
2,785065	-0,688033	10,666	-0,066728	22,470000	56,850000
2,785018	-0,925164	10,767	-0,066827	22,470000	56,850000
2,785079	-0,719572	10,868	-0,066741	22,470000	56,850000
2,785063	-0,807183	10,968	-0,066778	22,470000	56,850000
2,785095	-0,973058	11,068	-0,066847	22,470000	56,850000
2,785088	-0,656493	11,168	-0,066715	22,470000	56,850000
2,785054	-0,671679	11,268	-0,066721	22,470000	56,850000
2,785030	-0,878439	11,368	-0,066808	22,470000	56,850000
2,785051	-0,561874	11,468	-0,066675	22,470000	56,850000
2,785025	-0,648316	11,568	-0,066711	22,470000	56,850000
2,785058	-0,744103	11,669	-0,066751	22,470000	56,850000
2,785036	-0,767466	11,770	-0,066761	22,470000	56,850000
2,785070	-0,719572	11,871	-0,066741	22,470000	56,850000
2,785014	-0,664670	11,972	-0,066718	22,470000	56,850000
2,785044	-0,601591	12,074	-0,066692	22,460000	56,865000
2,785059	-0,885448	12,175	-0,066811	22,460000	56,865000
2,785074	-0,870262	12,276	-0,066804	22,460000	56,865000
2,784044	-1,811780	13,310	-0,067198	22,460000	56,865000
2,784042	-1,930930	13,412	-0,067248	22,460000	56,865000
2,784100	-1,851497	13,516	-0,067214	22,460000	56,865000
2,784105	-1,677445	13,617	-0,067142	22,460000	56,865000
2,784012	-1,851497	13,717	-0,067214	22,460000	56,865000
2,784028	-1,930930	13,817	-0,067248	22,460000	56,865000
2,784042	-2,017373	13,921	-0,067284	22,460000	56,865000
2,784089	-1,803603	14,022	-0,067194	22,460000	56,840000
2,784021	-1,937939	14,122	-0,067250	22,460000	56,840000
2,784035	-1,937939	14,222	-0,067250	22,460000	56,840000
2,784052	-2,017373	14,322	-0,067284	22,460000	56,840000
2,784018	-1,637728	14,422	-0,067125	22,460000	56,840000
2,784101	-1,899391	14,523	-0,067234	22,460000	56,840000
2,784057	-2,057089	14,623	-0,067300	22,460000	56,840000
2,784084	-1,914576	14,724	-0,067241	22,460000	56,840000
2,784001	-1,819957	14,824	-0,067201	22,460000	56,840000
2,784042	-2,279035	14,926	-0,067393	22,460000	56,840000
2,784067	-2,025549	15,026	-0,067287	22,460000	56,840000
2,784073	-2,476450	15,126	-0,067476	22,460000	56,840000
2,784104	-1,994010	15,226	-0,067274	22,460000	56,840000
2,784091	-1,994010	15,326	-0,067274	22,460000	56,840000
2,784043	-2,183248	15,426	-0,067353	22,460000	56,840000
2,784039	-2,247496	15,526	-0,067380	22,460000	56,840000
2,784048	-1,700807	15,626	-0,067151	22,460000	56,840000
2,784021	-2,318752	15,727	-0,067410	22,460000	56,840000
2,784063	-2,357300	15,827	-0,067426	22,460000	56,840000
2,784105	-1,763887	15,928	-0,067178	22,460000	56,840000
2,784060	-2,104983	16,028	-0,067320	22,460000	56,840000
2,784025	-1,788418	16,128	-0,067188	22,460000	56,840000
2,784040	-1,994010	16,228	-0,067274	22,460000	56,840000
2,784036	-1,732347	16,328	-0,067165	22,460000	56,840000
2,783999	-1,914576	16,428	-0,067241	22,460000	56,840000
2,784110	-2,128346	16,529	-0,067330	22,460000	56,840000
2,784026	-1,891214	16,630	-0,067231	22,460000	56,840000
2,784077	-1,835143	16,731	-0,067208	22,460000	56,840000
2,784065	-1,629551	16,832	-0,067122	22,460000	56,840000
2,784065	-1,748701	16,933	-0,067171	22,460000	56,840000
2,784034	-1,994010	17,034	-0,067274	22,460000	56,840000
2,784028	-2,199602	17,135	-0,067360	22,460000	56,840000
2,784044	-1,922753	17,235	-0,067244	22,460000	56,840000
2,784034	-1,994010	17,336	-0,067274	22,460000	56,840000
2,784061	-1,922753	17,436	-0,067244	22,460000	56,840000
2,784028	-1,922753	17,536	-0,067244	22,460000	56,840000
2,784058	-2,104983	17,636	-0,067320	22,460000	56,840000
2,784044	-2,191425	17,737	-0,067356	22,460000	56,840000
2,784075	-2,222965	17,837	-0,067370	22,460000	56,840000
2,784073	-2,136523	17,938	-0,067333	22,460000	56,840000
2,784044	-2,247496	18,038	-0,067380	22,460000	56,825000
2,784032	-2,183248	18,139	-0,067353	22,460000	56,825000
2,784013	-2,357300	18,241	-0,067426	22,460000	56,825000
2,784005	-2,507990	18,343	-0,067489	22,460000	56,825000
2,784017	-2,381831	18,444	-0,067436	22,460000	56,825000
2,784045	-2,326929	18,544	-0,067413	22,460000	56,825000
2,784074	-2,041903	18,644	-0,067294	22,460000	56,825000
2,784038	-2,365477	18,745	-0,067429	22,460000	56,825000
2,784093	-2,239319	18,845	-0,067376	22,460000	56,825000
2,783986	-1,874860	18,947	-0,067224	22,460000	56,825000
2,784003	-2,333938	19,048	-0,067416	22,460000	56,825000
2,784084	-2,397017	19,150	-0,067442	22,460000	56,825000
2,784079	-2,310575	19,252	-0,067406	22,460000	56,825000
2,784035	-2,682042	19,352	-0,067562	22,460000	56,825000
2,784002	-2,279035	19,452	-0,067393	22,460000	56,825000
2,784094	-2,468273	19,553	-0,067472	22,460000	56,825000
2,784081	-2,516167	19,653	-0,067492	22,460000	56,825000
2,784067	-2,357300	19,753	-0,067426	22,460000	56,825000
2,784025	-2,254504	19,854	-0,067383	22,460000	56,825000
2,784061	-2,428557	19,955	-0,067456	22,460000	56,825000
2,784077	-2,602609	20,056	-0,067528	22,450000	56,850000
2,784054	-2,183248	20,156	-0,067353	22,450000	56,850000
2,784074	-2,247496	20,256	-0,067380	22,450000	56,850000
2,784009	-2,627140	20,357	-0,067539	22,450000	56,850000
2,784066	-2,310575	20,457	-0,067406	22,450000	56,850000
2,784111	-2,365477	20,557	-0,067429	22,450000	56,850000
2,784037	-2,405194	20,657	-0,067446	22,450000	56,850000
2,784026	-2,524344	20,758	-0,067496	22,450000	56,850000
2,783986	-2,618963	20,858	-0,067535	22,450000	56,850000
2,784019	-2,516167	20,958	-0,067492	22,450000	56,850000
2,784089	-2,294221	21,058	-0,067399	22,450000	56,850000
2,784073	-2,499813	21,158	-0,067485	22,450000	56,850000
2,784051	-2,484627	21,258	-0,067479	22,450000	56,850000
2,784018	-2,247496	21,358	-0,067380	22,450000	56,850000
2,784091	-2,041903	21,458	-0,067294	22,450000	56,850000
2,784056	-2,516167	21,559	-0,067492	22,450000	56,850000
2,784029	-2,136523	21,659	-0,067333	22,450000	56,850000
2,784050	-2,310575	21,759	-0,067406	22,450000	56,850000
2,784021	-2,254504	21,860	-0,067383	22,450000	56,850000
2,784034	-2,262681	21,961	-0,067386	22,450000	56,850000
2,784124	-2,262681	22,061	-0,067386	22,460000	56,865000
2,784069	-2,461265	22,161	-0,067469	22,460000	56,865000
2,784107	-2,318752	22,262	-0,067410	22,460000	56,865000
2,784047	-2,279035	22,362	-0,067393	22,460000	56,865000
2,784039	-2,294221	22,463	-0,067399	22,460000	56,865000
2,784022	-2,270858	22,564	-0,067390	22,460000	56,865000
2,784058	-2,199602	22,665	-0,067360	22,460000	56,865000
2,784082	-2,690219	22,765	-0,067565	22,460000	56,865000
2,784024	-2,453088	22,865	-0,067466	22,460000	56,865000
2,784031	-2,532521	22,965	-0,067499	22,460000	56,865000
2,784036	-2,436734	23,065	-0,067459	22,460000	56,865000
2,784046	-2,381831	23,166	-0,067436	22,460000	56,865000
2,784045	-2,461265	23,267	-0,067469	22,460000	56,865000
2,784055	-2,507990	23,367	-0,067489	22,460000	56,865000
2,785040	-1,811780	24,399	-0,067198	22,450000	56,865000
2,785063	-1,566472	24,499	-0,067095	22,450000	56,865000
2,785084	-1,518578	24,601	-0,067075	22,450000	56,865000
2,785080	-1,661091	24,702	-0,067135	22,450000	56,865000
2,785061	-1,289623	24,802	-0,066979	22,450000	56,865000
2,785043	-0,996421	24,902	-0,066857	22,450000	56,865000
2,785076	-1,582826	25,003	-0,067102	22,450000	56,865000
2,785028	-1,004598	25,103	-0,066860	22,450000	56,865000
2,785056	-1,448490	25,205	-0,067046	22,450000	56,865000
2,785039	-1,550118	25,305	-0,067088	22,450000	56,865000
2,785032	-1,550118	25,407	-0,067088	22,450000	56,865000
2,785084	-1,606188	25,507	-0,067112	22,450000	56,865000
2,785055	-1,645905	25,609	-0,067128	22,450000	56,865000
2,785006	-1,598011	25,709	-0,067108	22,450000	56,865000
2,785048	-1,748701	25,809	-0,067171	22,450000	56,865000
2,785018	-1,312986	25,909	-0,066989	22,450000	56,865000
2,785044	-1,155287	26,010	-0,066923	22,450000	56,865000
2,785035	-0,949695	26,111	-0,066837	22,450000	56,865000
2,785089	-1,329340	26,212	-0,066996	22,450000	56,865000
2,785037	-1,432136	26,313	-0,067039	22,450000	56,865000
2,785019	-1,495215	26,413	-0,067065	22,450000	56,865000
2,785035	-1,598011	26,514	-0,067108	22,450000	56,865000
2,785038	-1,344526	26,614	-0,067002	22,450000	56,865000
2,785060	-1,511569	26,715	-0,067072	22,450000	56,865000
2,785075	-1,685622	26,815	-0,067145	22,450000	56,865000
2,785061	-1,614365	26,915	-0,067115	22,450000	56,865000
2,785097	-1,724170	27,015	-0,067161	22,450000	56,865000
2,785007	-1,226544	27,115	-0,066953	22,450000	56,865000
2,785037	-1,170473	27,216	-0,066930	22,450000	56,865000
2,785111	-1,289623	27,318	-0,066979	22,450000	56,865000
2,785078	-1,534932	27,418	-0,067082	22,450000	56,865000
2,785027	-1,471853	27,520	-0,067056	22,450000	56,865000
2,785009	-1,654082	27,621	-0,067132	22,450000	56,865000
2,785073	-1,700807	27,722	-0,067151	22,450000	56,865000
2,785055	-1,495215	27,822	-0,067065	22,450000	56,865000
2,785027	-1,589834	27,924	-0,067105	22,450000	56,865000
2,785039	-1,574649	28,024	-0,067099	22,460000	56,850000
2,785025	-1,654082	28,125	-0,067132	22,460000	56,850000
2,785089	-1,708984	28,225	-0,067155	22,460000	56,850000
2,785052	-1,526755	28,326	-0,067079	22,460000	56,850000
2,785036	-1,550118	28,427	-0,067088	22,460000	56,850000
2,785056	-1,352703	28,527	-0,067006	22,460000	56,850000
2,785059	-1,740524	28,627	-0,067168	22,460000	56,850000
2,785053	-1,669268	28,727	-0,067138	22,460000	56,850000
2,785056	-1,455499	28,827	-0,067049	22,460000	56,850000
2,785042	-1,511569	28,928	-0,067072	22,460000	56,850000
2,785073	-1,574649	29,028	-0,067099	22,460000	56,850000
2,785022	-1,423959	29,128	-0,067036	22,460000	56,850000
2,785023	-1,598011	29,228	-0,067108	22,460000	56,850000
2,784995	-1,471853	29,329	-0,067056	22,460000	56,850000
2,785093	-1,717161	29,429	-0,067158	22,460000	56,850000
2,785061	-1,543109	29,530	-0,067085	22,460000	56,850000
2,785031	-1,811780	29,630	-0,067198	22,460000	56,850000
2,785027	-1,543109	29,731	-0,067085	22,460000	56,850000
2,784990	-1,954293	29,831	-0,067257	22,460000	56,850000
2,785011	-1,899391	29,933	-0,067234	22,460000	56,850000
2,785053	-1,819957	30,033	-0,067201	22,460000	56,850000
2,785039	-1,795427	30,133	-0,067191	22,460000	56,850000
2,785091	-1,645905	30,234	-0,067128	22,460000	56,850000
2,785029	-1,606188	30,334	-0,067112	22,460000	56,850000
2,785034	-1,780241	30,434	-0,067185	22,460000	56,850000
2,785059	-1,756878	30,534	-0,067175	22,460000	56,850000
2,785114	-1,859674	30,634	-0,067218	22,460000	56,850000
2,785075	-1,874860	30,734	-0,067224	22,460000	56,850000
2,785001	-1,803603	30,834	-0,067194	22,460000	56,850000
2,785059	-1,589834	30,934	-0,067105	22,460000	56,850000
2,785019	-1,907568	31,034	-0,067238	22,460000	56,850000
2,785059	-1,748701	31,134	-0,067171	22,460000	56,850000
2,785071	-1,669268	31,235	-0,067138	22,460000	56,850000
2,785068	-1,756878	31,336	-0,067175	22,460000	56,850000
2,785043	-1,874860	31,437	-0,067224	22,460000	56,850000
2,785096	-1,566472	31,537	-0,067095	22,460000	56,850000
2,785027	-2,176239	31,637	-0,067350	22,460000	56,850000
2,784990	-1,732347	31,738	-0,067165	22,460000	56,850000
2,785030	-1,708984	31,839	-0,067155	22,460000	56,850000
2,785039	-1,740524	31,939	-0,067168	22,460000	56,850000
2,785038	-1,724170	32,039	-0,067161	22,450000	56,850000
2,785023	-1,685622	32,141	-0,067145	22,450000	56,850000
2,785101	-1,795427	32,242	-0,067191	22,450000	56,850000
2,785061	-1,899391	32,342	-0,067234	22,450000	56,850000
2,785049	-1,637728	32,442	-0,067125	22,450000	56,850000
2,785102	-1,669268	32,542	-0,067138	22,450000	56,850000
2,785038	-1,614365	32,642	-0,067115	22,450000	56,850000
2,785000	-1,828134	32,742	-0,067205	22,450000	56,850000
2,785071	-1,717161	32,842	-0,067158	22,450000	56,850000
2,785053	-1,851497	32,943	-0,067214	22,450000	56,850000
2,785006	-1,732347	33,044	-0,067165	22,450000	56,850000
2,785058	-1,534932	33,144	-0,067082	22,450000	56,850000
2,785004	-1,724170	33,244	-0,067161	22,450000	56,850000
2,785029	-0,973058	33,344	-0,066847	22,450000	56,850000
2,785011	-1,828134	33,444	-0,067205	22,450000	56,850000
2,785066	-1,724170	33,546	-0,067161	22,450000	56,850000
2,785007	-1,946116	33,647	-0,067254	22,450000	56,850000
2,785074	-1,867851	33,747	-0,067221	22,450000	56,850000
2,785025	-1,700807	33,848	-0,067151	22,450000	56,850000
2,785041	-1,946116	33,948	-0,067254	22,450000	56,850000
2,785075	-1,724170	34,049	-0,067161	22,460000	56,825000
2,785020	-1,693799	34,149	-0,067148	22,460000	56,825000
2,785080	-1,740524	34,249	-0,067168	22,460000	56,825000
2,785041	-1,835143	34,356	-0,067208	22,460000	56,825000
2,785063	-1,867851	34,456	-0,067221	22,460000	56,825000
2,784088	-2,832732	35,488	-0,067625	22,460000	56,825000
2,784050	-2,943705	35,588	-0,067671	22,460000	56,825000
2,784061	-2,840909	35,689	-0,067628	22,460000	56,825000
2,784041	-2,872449	35,790	-0,067641	22,460000	56,825000
2,784015	-2,808201	35,891	-0,067614	22,460000	56,825000
2,784069	-2,746290	35,992	-0,067588	22,460000	56,825000
2,784028	-2,532521	36,093	-0,067499	22,460000	56,825000
2,784026	-2,847918	36,194	-0,067631	22,460000	56,825000
2,784101	-2,832732	36,296	-0,067625	22,460000	56,825000
2,784063	-3,006785	36,397	-0,067697	22,460000	56,825000
2,784079	-2,943705	36,497	-0,067671	22,460000	56,825000
2,784009	-3,061687	36,599	-0,067720	22,460000	56,825000
2,784060	-2,793015	36,701	-0,067608	22,460000	56,825000
2,784073	-2,713582	36,801	-0,067575	22,460000	56,825000
2,784015	-3,078041	36,902	-0,067727	22,460000	56,825000
2,784062	-3,014961	37,003	-0,067701	22,460000	56,825000
2,784048	-2,635317	37,104	-0,067542	22,460000	56,825000
2,783984	-3,117758	37,204	-0,067744	22,460000	56,825000
2,784031	-2,880626	37,304	-0,067645	22,460000	56,825000
2,784031	-2,801192	37,405	-0,067611	22,460000	56,825000
2,784016	-2,967068	37,506	-0,067681	22,460000	56,825000
2,784057	-3,061687	37,606	-0,067720	22,460000	56,825000
2,784061	-2,943705	37,706	-0,067671	22,460000	56,825000
2,784025	-3,054678	37,807	-0,067717	22,460000	56,825000
2,784023	-3,149297	37,907	-0,067757	22,460000	56,825000
2,784039	-3,054678	38,007	-0,067717	22,460000	56,825000
2,784040	-2,880626	38,108	-0,067645	22,460000	56,825000
2,784074	-2,927351	38,209	-0,067664	22,460000	56,825000
2,784055	-3,132943	38,316	-0,067750	22,460000	56,825000
2,784087	-2,721759	38,418	-0,067578	22,460000	56,825000
2,783988	-2,903988	38,518	-0,067654	22,460000	56,825000
2,784069	-2,690219	38,619	-0,067565	22,460000	56,825000
2,784044	-2,706573	38,719	-0,067572	22,460000	56,825000
2,784113	-3,038324	38,820	-0,067710	22,460000	56,825000
2,784053	-3,125935	38,921	-0,067747	22,460000	56,825000
2,784019	-2,912165	39,021	-0,067658	22,460000	56,825000
2,784112	-3,054678	39,124	-0,067717	22,460000	56,825000
2,784100	-2,769653	39,224	-0,067598	22,460000	56,825000
2,784083	-3,252093	39,324	-0,067800	22,460000	56,825000
2,784054	-2,847918	39,424	-0,067631	22,460000	56,825000
2,784019	-2,721759	39,526	-0,067578	22,460000	56,825000
2,784060	-2,753299	39,627	-0,067591	22,460000	56,825000
2,784031	-2,912165	39,728	-0,067658	22,460000	56,825000
2,784093	-2,777830	39,828	-0,067602	22,460000	56,825000
2,784054	-2,895812	39,928	-0,067651	22,460000	56,825000
2,784078	-3,030147	40,029	-0,067707	22,460000	56,865000
2,784078	-2,840909	40,130	-0,067628	22,460000	56,865000
2,784038	-2,738113	40,230	-0,067585	22,460000	56,865000
2,784058	-2,856095	40,330	-0,067634	22,460000	56,865000
2,784036	-2,539530	40,431	-0,067502	22,460000	56,865000
2,784009	-2,951882	40,532	-0,067674	22,460000	56,865000
2,784073	-3,172660	40,639	-0,067767	22,460000	56,865000
2,784032	-2,998608	40,740	-0,067694	22,460000	56,865000
2,784063	-2,943705	40,840	-0,067671	22,460000	56,865000
2,784030	-3,061687	40,940	-0,067720	22,460000	56,865000
2,784026	-2,958891	41,041	-0,067677	22,460000	56,865000
2,784093	-2,975245	41,143	-0,067684	22,460000	56,865000
2,784016	-2,777830	41,243	-0,067602	22,460000	56,865000
2,783992	-2,761476	41,343	-0,067595	22,460000	56,865000
2,784065	-2,912165	41,443	-0,067658	22,460000	56,865000
2,784063	-2,777830	41,544	-0,067602	22,460000	56,865000
2,784054	-2,793015	41,644	-0,067608	22,460000	56,865000
2,784079	-2,912165	41,744	-0,067658	22,460000	56,865000
2,784065	-3,078041	41,845	-0,067727	22,460000	56,865000
2,784070	-3,021970	41,945	-0,067704	22,460000	56,865000
2,784061	-2,951882	42,046	-0,067674	22,460000	56,865000
2,784102	-3,078041	42,147	-0,067727	22,460000	56,865000
2,784065	-3,101404	42,247	-0,067737	22,460000	56,865000
2,784070	-3,014961	42,348	-0,067701	22,460000	56,865000
2,784037	-3,030147	42,448	-0,067707	22,460000	56,865000
2,784083	-3,132943	42,549	-0,067750	22,460000	56,865000
2,784036	-2,991599	42,649	-0,067691	22,460000	56,865000
2,784089	-3,189014	42,749	-0,067773	22,460000	56,865000
2,784044	-2,951882	42,851	-0,067674	22,460000	56,865000
2,784009	-3,260270	42,955	-0,067803	22,460000	56,865000
2,784061	-3,568658	43,055	-0,067932	22,460000	56,865000
2,784115	-3,505579	43,156	-0,067906	22,460000	56,865000
2,784116	-2,793015	43,256	-0,067608	22,460000	56,865000
2,784043	-2,998608	43,356	-0,067694	22,460000	56,865000
2,784031	-3,054678	43,456	-0,067717	22,460000	56,865000
2,784032	-3,141120	43,556	-0,067753	22,460000	56,865000
2,784078	-2,935528	43,656	-0,067667	22,460000	56,865000
2,784001	-3,132943	43,757	-0,067750	22,460000	56,865000
2,784012	-3,260270	43,858	-0,067803	22,460000	56,865000
2,784047	-2,777830	43,959	-0,067602	22,460000	56,865000
2,784073	-2,935528	44,061	-0,067667	22,460000	56,850000
2,784008	-2,943705	44,162	-0,067671	22,460000	56,850000
2,784028	-3,189014	44,262	-0,067773	22,460000	56,850000
2,784062	-2,610786	44,363	-0,067532	22,460000	56,850000
2,784078	-3,189014	44,463	-0,067773	22,460000	56,850000
2,784080	-3,165651	44,564	-0,067764	22,460000	56,850000
2,784037	-3,046501	44,664	-0,067714	22,460000	56,850000
2,784058	-3,157474	44,765	-0,067760	22,460000	56,850000
2,784033	-3,235739	44,865	-0,067793	22,460000	56,850000
2,784064	-2,998608	44,965	-0,067694	22,460000	56,850000
2,784048	-3,331527	45,066	-0,067833	22,460000	56,850000
2,784095	-3,086218	45,168	-0,067730	22,460000	56,850000
2,784048	-3,197191	45,268	-0,067777	22,460000	56,850000
2,784044	-2,943705	45,368	-0,067671	22,460000	56,850000
2,784080	-3,354889	45,468	-0,067843	22,460000	56,850000
2,784020	-3,608375	45,569	-0,067949	22,460000	56,850000
2,785059	-2,199602	46,604	-0,067360	22,460000	56,850000
2,785104	-1,937939	46,705	-0,067250	22,460000	56,850000
2,785070	-2,096806	46,805	-0,067317	22,460000	56,850000
2,785034	-2,057089	46,905	-0,067300	22,460000	56,850000
2,785051	-2,428557	47,005	-0,067456	22,460000	56,850000
2,785022	-2,088629	47,105	-0,067313	22,460000	56,850000
2,785041	-2,191425	47,205	-0,067356	22,460000	56,850000
2,785048	-1,946116	47,306	-0,067254	22,460000	56,850000
2,785000	-2,539530	47,406	-0,067502	22,460000	56,850000
2,785071	-2,002187	47,507	-0,067277	22,460000	56,850000
2,785085	-2,048912	47,609	-0,067297	22,460000	56,850000
2,785039	-1,946116	47,710	-0,067254	22,460000	56,850000
2,785077	-2,151708	47,810	-0,067340	22,460000	56,850000
2,785072	-2,104983	47,910	-0,067320	22,460000	56,850000
2,785043	-2,397017	48,010	-0,067442	22,450000	56,840000
2,784999	-2,048912	48,111	-0,067297	22,450000	56,840000
2,785065	-2,002187	48,211	-0,067277	22,450000	56,840000
2,785022	-2,128346	48,312	-0,067330	22,450000	56,840000
2,785006	-2,326929	48,413	-0,067413	22,450000	56,840000
2,785072	-2,207779	48,513	-0,067363	22,450000	56,840000
2,785012	-2,310575	48,613	-0,067406	22,450000	56,840000
2,785071	-2,461265	48,713	-0,067469	22,450000	56,840000
2,785020	-2,128346	48,814	-0,067330	22,450000	56,840000
2,785084	-2,151708	48,915	-0,067340	22,450000	56,840000
2,785037	-2,287212	49,016	-0,067396	22,450000	56,840000
2,785069	-2,199602	49,121	-0,067360	22,450000	56,840000
2,785063	-2,484627	49,222	-0,067479	22,450000	56,840000
2,784973	-2,499813	49,322	-0,067485	22,450000	56,840000
2,785046	-2,388840	49,422	-0,067439	22,450000	56,840000
2,785098	-2,350292	49,525	-0,067423	22,450000	56,840000
2,785005	-2,499813	49,625	-0,067485	22,450000	56,840000
2,785027	-2,294221	49,725	-0,067399	22,450000	56,840000
2,785009	-2,342115	49,826	-0,067419	22,450000	56,840000
2,785048	-2,777830	49,930	-0,067602	22,450000	56,840000
2,785067	-1,693799	50,031	-0,067148	22,460000	56,880000
2,785071	-2,279035	50,132	-0,067393	22,460000	56,880000
2,785047	-2,499813	50,232	-0,067485	22,460000	56,880000
2,785027	-2,159885	50,334	-0,067343	22,460000	56,880000
2,784997	-2,073443	50,434	-0,067307	22,460000	56,880000
2,785044	-2,287212	50,535	-0,067396	22,460000	56,880000
2,785071	-2,444911	50,636	-0,067462	22,460000	56,880000
2,785043	-2,033726	50,738	-0,067291	22,460000	56,880000
2,785021	-2,713582	50,839	-0,067575	22,460000	56,880000
2,784996	-2,310575	50,941	-0,067406	22,460000	56,880000
2,785068	-2,650503	51,042	-0,067548	22,460000	56,880000
2,784995	-2,421548	51,148	-0,067453	22,460000	56,880000
2,785047	-2,682042	51,249	-0,067562	22,460000	56,880000
2,785045	-2,388840	51,350	-0,067439	22,460000	56,880000
2,785041	-2,547707	51,452	-0,067505	22,460000	56,880000
2,785022	-2,579246	51,552	-0,067519	22,460000	56,880000
2,785087	-2,682042	51,652	-0,067562	22,460000	56,880000
2,785045	-2,492804	51,754	-0,067482	22,460000	56,880000
2,785054	-2,428557	51,855	-0,067456	22,460000	56,880000
2,785047	-2,516167	51,955	-0,067492	22,460000	56,880000
2,785017	-2,318752	52,055	-0,067410	22,470000	56,850000
2,785066	-2,176239	52,156	-0,067350	22,470000	56,850000
2,785048	-2,650503	52,256	-0,067548	22,470000	56,850000
2,785049	-2,468273	52,357	-0,067472	22,470000	56,850000
2,785031	-2,564061	52,457	-0,067512	22,470000	56,850000
2,785064	-2,294221	52,558	-0,067399	22,470000	56,850000
2,785016	-2,690219	52,658	-0,067565	22,470000	56,850000
2,785067	-2,468273	52,759	-0,067472	22,470000	56,850000
2,785105	-2,618963	52,860	-0,067535	22,470000	56,850000
2,785057	-2,793015	52,961	-0,067608	22,470000	56,850000
2,785071	-2,279035	53,062	-0,067393	22,470000	56,850000
2,785059	-2,342115	53,173	-0,067419	22,470000	56,850000
2,785041	-2,388840	53,273	-0,067439	22,470000	56,850000
2,785076	-2,658680	53,373	-0,067552	22,470000	56,850000
2,785065	-2,642326	53,473	-0,067545	22,470000	56,850000
2,785025	-2,444911	53,574	-0,067462	22,470000	56,850000
2,785067	-2,342115	53,675	-0,067419	22,470000	56,850000
2,785056	-2,492804	53,775	-0,067482	22,470000	56,850000
2,785026	-2,492804	53,875	-0,067482	22,470000	56,850000
2,785051	-2,564061	53,976	-0,067512	22,470000	56,850000
2,785064	-2,388840	54,076	-0,067439	22,460000	56,850000
2,785074	-2,333938	54,177	-0,067416	22,460000	56,850000
2,785065	-2,564061	54,278	-0,067512	22,460000	56,850000
2,785029	-2,555884	54,385	-0,067509	22,460000	56,850000
2,785079	-2,658680	54,485	-0,067552	22,460000	56,850000
2,785017	-2,658680	54,585	-0,067552	22,460000	56,850000
2,785025	-2,808201	54,686	-0,067614	22,460000	56,850000
2,785060	-2,547707	54,787	-0,067505	22,460000	56,850000
2,785058	-2,832732	54,887	-0,067625	22,460000	56,850000
2,784996	-2,706573	54,988	-0,067572	22,460000	56,850000
2,785080	-2,484627	55,094	-0,067479	22,460000	56,850000
2,785038	-2,610786	55,194	-0,067532	22,460000	56,850000
2,785007	-2,673866	55,294	-0,067558	22,460000	56,850000
2,785076	-2,777830	55,394	-0,067602	22,460000	56,850000
2,785051	-2,571069	55,495	-0,067515	22,460000	56,850000
2,785037	-2,310575	55,596	-0,067406	22,460000	56,850000
2,785053	-2,453088	55,697	-0,067466	22,460000	56,850000
2,785084	-2,532521	55,798	-0,067499	22,460000	56,850000
2,785060	-2,191425	55,903	-0,067356	22,460000	56,850000
2,785079	-2,579246	56,003	-0,067519	22,460000	56,850000
2,785045	-2,642326	56,104	-0,067545	22,460000	56,850000
2,785019	-2,507990	56,206	-0,067489	22,460000	56,850000
2,784997	-2,682042	56,307	-0,067562	22,460000	56,850000
2,785068	-2,476450	56,407	-0,067476	22,460000	56,850000
2,785071	-2,365477	56,508	-0,067429	22,460000	56,850000
2,785070	-2,690219	56,608	-0,067565	22,460000	56,850000
2,785042	-2,247496	56,709	-0,067380	22,460000	56,850000
2,784106	-3,505579	57,742	-0,067906	22,460000	56,850000
2,784014	-3,576835	57,843	-0,067936	22,460000	56,850000
2,784084	-3,592021	57,968	-0,067942	22,460000	56,850000
2,784034	-3,805790	58,068	-0,068031	22,460000	56,850000
2,784012	-3,354889	58,168	-0,067843	22,460000	56,850000
2,784057	-3,646924	58,268	-0,067965	22,460000	56,850000
2,784027	-3,576835	58,368	-0,067936	22,460000	56,850000
2,784019	-3,719348	58,470	-0,067995	22,460000	56,850000
2,784026	-3,363066	58,571	-0,067846	22,460000	56,850000
2,784051	-3,520765	58,672	-0,067912	22,460000	56,850000
2,784016	-3,671454	58,776	-0,067975	22,460000	56,850000
2,784028	-3,505579	58,877	-0,067906	22,460000	56,850000
2,784056	-3,623561	58,978	-0,067955	22,460000	56,850000
2,784046	-3,528942	59,079	-0,067916	22,460000	56,850000
2,784059	-3,639915	59,182	-0,067962	22,460000	56,850000
2,784028	-3,497402	59,284	-0,067902	22,460000	56,850000
2,784034	-3,711171	59,385	-0,067992	22,460000	56,850000
2,784025	-3,457685	59,486	-0,067886	22,460000	56,850000
2,784060	-3,197191	59,586	-0,067777	22,460000	56,850000
2,784043	-3,545296	59,686	-0,067922	22,460000	56,850000
2,784068	-3,766074	59,787	-0,068015	22,460000	56,850000
2,784138	-3,402783	59,887	-0,067863	22,460000	56,850000
2,784070	-3,457685	59,988	-0,067886	22,450000	56,840000
2,784024	-3,885224	60,088	-0,068064	22,450000	56,840000
2,783962	-3,220554	60,188	-0,067787	22,450000	56,840000
2,784085	-3,315173	60,288	-0,067826	22,450000	56,840000
2,784028	-3,766074	60,388	-0,068015	22,450000	56,840000
2,783987	-3,505579	60,488	-0,067906	22,450000	56,840000
2,784054	-3,497402	60,590	-0,067902	22,450000	56,840000
2,784053	-3,655101	60,690	-0,067968	22,450000	56,840000
2,783988	-3,402783	60,790	-0,067863	22,450000	56,840000
2,784068	-3,489225	60,891	-0,067899	22,450000	56,840000
2,784027	-3,592021	60,992	-0,067942	22,450000	56,840000
2,784104	-3,679631	61,104	-0,067979	22,450000	56,840000
2,784020	-3,639915	61,205	-0,067962	22,450000	56,840000
2,783997	-3,331527	61,305	-0,067833	22,450000	56,840000
2,784012	-3,481048	61,406	-0,067896	22,450000	56,840000
2,784063	-3,790604	61,510	-0,068025	22,450000	56,840000
2,784059	-3,545296	61,611	-0,067922	22,450000	56,840000
2,784011	-3,552305	61,712	-0,067925	22,450000	56,840000
2,784058	-3,560481	61,813	-0,067929	22,450000	56,840000
2,784048	-3,157474	61,913	-0,067760	22,450000	56,840000
2,784105	-3,734534	62,013	-0,068001	22,460000	56,880000
2,784013	-3,671454	62,113	-0,067975	22,460000	56,880000
2,784086	-3,528942	62,213	-0,067916	22,460000	56,880000
2,784016	-3,410960	62,315	-0,067866	22,460000	56,880000
2,784106	-3,813967	62,416	-0,068035	22,460000	56,880000
2,784046	-3,441331	62,517	-0,067879	22,460000	56,880000
2,784038	-3,646924	62,618	-0,067965	22,460000	56,880000
2,784059	-3,655101	62,718	-0,067968	22,460000	56,880000
2,784114	-3,639915	62,818	-0,067962	22,460000	56,880000
2,784090	-3,354889	62,918	-0,067843	22,460000	56,880000
2,784025	-3,489225	63,019	-0,067899	22,460000	56,880000
2,784083	-3,560481	63,119	-0,067929	22,460000	56,880000
2,784037	-3,378252	63,219	-0,067853	22,460000	56,880000
2,784058	-3,481048	63,319	-0,067896	22,460000	56,880000
2,784076	-3,663278	63,420	-0,067972	22,460000	56,880000
2,784115	-3,497402	63,520	-0,067902	22,460000	56,880000
2,784043	-3,402783	63,621	-0,067863	22,460000	56,880000
2,784101	-3,616552	63,722	-0,067952	22,460000	56,880000
2,784020	-3,592021	63,822	-0,067942	22,460000	56,880000
2,784022	-3,585012	63,922	-0,067939	22,460000	56,880000
2,784041	-3,592021	64,023	-0,067942	22,460000	56,880000
2,784060	-3,631738	64,125	-0,067958	22,460000	56,880000
2,784063	-3,671454	64,225	-0,067975	22,460000	56,880000
2,784067	-3,346712	64,325	-0,067839	22,460000	56,880000
2,784064	-3,616552	64,425	-0,067952	22,460000	56,880000
2,784101	-3,908586	64,525	-0,068074	22,460000	56,880000
2,784094	-3,576835	64,625	-0,067936	22,460000	56,880000
2,784088	-3,694817	64,725	-0,067985	22,460000	56,880000
2,784060	-3,837330	64,826	-0,068044	22,460000	56,880000
2,784034	-3,552305	64,926	-0,067925	22,460000	56,880000
2,784047	-3,481048	65,028	-0,067896	22,460000	56,880000
2,784078	-3,790604	65,129	-0,068025	22,460000	56,880000
2,784029	-3,671454	65,229	-0,067975	22,460000	56,880000
2,784037	-3,339704	65,331	-0,067836	22,460000	56,880000
2,784083	-3,726357	65,431	-0,067998	22,460000	56,880000
2,784068	-3,481048	65,535	-0,067896	22,460000	56,880000
2,784161	-3,410960	65,636	-0,067866	22,460000	56,880000
2,784074	-3,608375	65,737	-0,067949	22,460000	56,880000
2,784031	-3,512588	65,838	-0,067909	22,460000	56,880000
2,784050	-3,489225	65,944	-0,067899	22,460000	56,880000
2,784054	-3,702994	66,046	-0,067988	22,460000	56,825000
2,784045	-4,067453	66,147	-0,068141	22,460000	56,825000
2,784093	-3,600198	66,248	-0,067945	22,460000	56,825000
2,784027	-3,639915	66,354	-0,067962	22,460000	56,825000
2,784125	-3,797613	66,454	-0,068028	22,460000	56,825000
2,784021	-3,805790	66,554	-0,068031	22,460000	56,825000
2,784085	-3,845507	66,655	-0,068048	22,460000	56,825000
2,784049	-3,877047	66,763	-0,068061	22,460000	56,825000
2,784033	-3,797613	66,863	-0,068028	22,460000	56,825000
2,784011	-3,734534	66,964	-0,068001	22,460000	56,825000
2,784116	-3,782427	67,064	-0,068021	22,460000	56,825000
2,784057	-3,742711	67,166	-0,068005	22,460000	56,825000
2,784058	-3,750888	67,266	-0,068008	22,460000	56,825000
2,784033	-3,996197	67,366	-0,068111	22,460000	56,825000
2,784064	-3,790604	67,466	-0,068025	22,460000	56,825000
2,784046	-3,616552	67,566	-0,067952	22,460000	56,825000
2,784047	-3,702994	67,667	-0,067988	22,460000	56,825000
2,784104	-3,979843	67,767	-0,068104	22,460000	56,825000
2,784069	-3,979843	67,867	-0,068104	22,460000	56,825000
2,785061	-2,738113	68,919	-0,067585	22,470000	56,795000
2,785028	-2,880626	69,019	-0,067645	22,470000	56,795000
2,785010	-2,983422	69,120	-0,067687	22,470000	56,795000
2,785018	-2,666857	69,221	-0,067555	22,470000	56,795000
2,784982	-2,983422	69,321	-0,067687	22,470000	56,795000
2,785062	-2,951882	69,421	-0,067674	22,470000	56,795000
2,785122	-2,832732	69,523	-0,067625	22,470000	56,795000
2,785027	-3,038324	69,623	-0,067710	22,470000	56,795000
2,785069	-2,713582	69,723	-0,067575	22,470000	56,795000
2,785067	-3,141120	69,824	-0,067753	22,470000	56,795000
2,785080	-2,935528	69,942	-0,067667	22,470000	56,795000
2,785051	-2,887635	70,042	-0,067647	22,460000	56,825000
2,785015	-3,101404	70,142	-0,067737	22,460000	56,825000
2,785036	-3,235739	70,243	-0,067793	22,460000	56,825000
2,785091	-3,038324	70,352	-0,067710	22,460000	56,825000
2,785044	-2,856095	70,452	-0,067634	22,460000	56,825000
2,785044	-2,927351	70,552	-0,067664	22,460000	56,825000
2,785082	-2,793015	70,652	-0,067608	22,460000	56,825000
2,785091	-3,030147	70,765	-0,067707	22,460000	56,825000
2,785073	-2,840909	70,865	-0,067628	22,460000	56,825000
2,785063	-2,958891	70,965	-0,067677	22,460000	56,825000
2,785009	-3,101404	71,065	-0,067737	22,460000	56,825000
2,785041	-2,673866	71,165	-0,067558	22,460000	56,825000
2,785002	-3,054678	71,266	-0,067717	22,460000	56,825000
2,785109	-2,880626	71,366	-0,067645	22,460000	56,825000
2,785035	-2,880626	71,467	-0,067645	22,460000	56,825000
2,785066	-2,856095	71,573	-0,067634	22,460000	56,825000
2,785039	-2,738113	71,673	-0,067585	22,460000	56,825000
2,785039	-2,777830	71,773	-0,067602	22,460000	56,825000
2,785037	-3,061687	71,874	-0,067720	22,460000	56,825000
2,785079	-2,847918	71,974	-0,067631	22,460000	56,825000
2,785044	-2,975245	72,074	-0,067684	22,460000	56,825000
2,785050	-2,808201	72,174	-0,067614	22,460000	56,825000
2,785037	-2,864272	72,274	-0,067638	22,460000	56,825000
2,785051	-2,967068	72,379	-0,067681	22,460000	56,825000
2,785026	-2,793015	72,479	-0,067608	22,460000	56,825000
2,785059	-3,006785	72,580	-0,067697	22,460000	56,825000
2,785013	-2,864272	72,680	-0,067638	22,460000	56,825000
2,785027	-2,555884	72,782	-0,067509	22,460000	56,825000
2,785025	-2,998608	72,883	-0,067694	22,460000	56,825000
2,785082	-2,856095	72,983	-0,067634	22,460000	56,825000
2,785015	-2,777830	73,083	-0,067602	22,460000	56,825000
2,785074	-3,061687	73,198	-0,067720	22,460000	56,825000
2,785075	-2,991599	73,298	-0,067691	22,460000	56,825000
2,785038	-2,887635	73,399	-0,067647	22,460000	56,825000
2,785083	-3,101404	73,499	-0,067737	22,460000	56,825000
2,784975	-3,371243	73,606	-0,067850	22,460000	56,825000
2,785033	-3,132943	73,706	-0,067750	22,460000	56,825000
2,785015	-3,078041	73,808	-0,067727	22,460000	56,825000
2,785092	-2,564061	73,909	-0,067512	22,460000	56,825000
2,785036	-3,021970	74,011	-0,067704	22,460000	56,840000
2,785082	-2,912165	74,111	-0,067658	22,460000	56,840000
2,785056	-3,069864	74,213	-0,067724	22,460000	56,840000
2,785048	-3,054678	74,316	-0,067717	22,460000	56,840000
2,785079	-2,784839	74,417	-0,067604	22,460000	56,840000
2,785063	-3,086218	74,517	-0,067730	22,460000	56,840000
2,785056	-2,927351	74,617	-0,067664	22,460000	56,840000
2,785078	-3,141120	74,723	-0,067753	22,460000	56,840000
2,785041	-2,698396	74,823	-0,067568	22,460000	56,840000
2,785087	-3,030147	74,923	-0,067707	22,460000	56,840000
2,785097	-2,880626	75,025	-0,067645	22,460000	56,840000
2,785031	-2,983422	75,132	-0,067687	22,460000	56,840000
2,785068	-3,086218	75,232	-0,067730	22,460000	56,840000
2,785056	-3,109581	75,332	-0,067740	22,460000	56,840000
2,785069	-2,840909	75,432	-0,067628	22,460000	56,840000
2,785061	-2,903988	75,532	-0,067654	22,460000	56,840000
2,785014	-2,816378	75,633	-0,067618	22,460000	56,840000
2,785051	-3,109581	75,734	-0,067740	22,460000	56,840000
2,785046	-3,212377	75,836	-0,067783	22,460000	56,840000
2,785012	-3,006785	75,951	-0,067697	22,460000	56,840000
2,784976	-2,880626	76,052	-0,067645	22,460000	56,840000
2,785047	-3,197191	76,152	-0,067777	22,460000	56,840000
2,785014	-2,864272	76,252	-0,067638	22,460000	56,840000
2,785016	-2,935528	76,368	-0,067667	22,460000	56,840000
2,785041	-3,132943	76,468	-0,067750	22,460000	56,840000
2,785015	-2,610786	76,569	-0,067532	22,460000	56,840000
2,785079	-2,864272	76,669	-0,067638	22,460000	56,840000
2,785055	-2,912165	76,771	-0,067658	22,460000	56,840000
2,785009	-3,252093	76,871	-0,067800	22,460000	56,840000
2,785053	-3,109581	76,972	-0,067740	22,460000	56,840000
2,785100	-2,951882	77,072	-0,067674	22,460000	56,840000
2,785091	-3,061687	77,179	-0,067720	22,460000	56,840000
2,785101	-3,212377	77,279	-0,067783	22,460000	56,840000
2,785027	-2,958891	77,380	-0,067677	22,460000	56,840000
2,785039	-2,912165	77,481	-0,067658	22,460000	56,840000
2,785078	-3,093227	77,599	-0,067733	22,460000	56,840000
2,785011	-3,449508	77,699	-0,067882	22,460000	56,840000
2,785057	-2,983422	77,801	-0,067687	22,460000	56,840000
2,785036	-3,252093	77,914	-0,067800	22,460000	56,840000
2,785038	-3,078041	78,015	-0,067727	22,470000	56,840000
2,785002	-3,172660	78,115	-0,067767	22,470000	56,840000
2,785058	-2,951882	78,216	-0,067674	22,470000	56,840000
2,785065	-3,038324	78,323	-0,067710	22,470000	56,840000
2,785024	-2,824555	78,424	-0,067621	22,470000	56,840000
2,785028	-2,777830	78,524	-0,067602	22,470000	56,840000
2,785017	-3,197191	78,625	-0,067777	22,470000	56,840000
2,784942	-3,354889	78,732	-0,067843	22,470000	56,840000
2,785053	-2,856095	78,832	-0,067634	22,470000	56,840000
2,785011	-3,101404	78,932	-0,067737	22,470000	56,840000
2,785065	-3,363066	79,033	-0,067846	22,470000	56,840000
2,785059	-3,172660	79,156	-0,067767	22,470000	56,840000
2,784052	-4,114178	80,189	-0,068160	22,460000	56,810000
2,784085	-4,082639	80,290	-0,068147	22,460000	56,810000
2,784016	-4,090816	80,401	-0,068150	22,460000	56,810000
2,784060	-4,249682	80,501	-0,068217	22,460000	56,810000
2,784041	-3,931949	80,602	-0,068084	22,460000	56,810000
2,784037	-3,813967	80,703	-0,068035	22,460000	56,810000
2,784024	-4,027736	80,804	-0,068124	22,460000	56,810000
2,784037	-4,082639	80,904	-0,068147	22,460000	56,810000
2,784020	-3,797613	81,004	-0,068028	22,460000	56,810000
2,784061	-4,067453	81,115	-0,068141	22,460000	56,810000
2,784047	-3,830321	81,215	-0,068042	22,460000	56,810000
2,784005	-4,138709	81,315	-0,068170	22,460000	56,810000
2,784068	-3,805790	81,415	-0,068031	22,460000	56,810000
2,784026	-3,830321	81,524	-0,068042	22,460000	56,810000
2,784047	-4,153895	81,625	-0,068177	22,460000	56,810000
2,784063	-3,830321	81,726	-0,068042	22,460000	56,810000
2,784104	-3,885224	81,827	-0,068064	22,460000	56,810000
2,784036	-4,597787	81,932	-0,068362	22,460000	56,810000
2,784019	-3,845507	82,032	-0,068048	22,440000	56,835000
2,784054	-3,877047	82,132	-0,068061	22,440000	56,835000
2,784048	-4,264868	82,232	-0,068223	22,440000	56,835000
2,784034	-4,004374	82,332	-0,068114	22,440000	56,835000
2,784015	-4,098993	82,432	-0,068154	22,440000	56,835000
2,784039	-4,044090	82,532	-0,068131	22,440000	56,835000
2,784078	-4,178426	82,632	-0,068187	22,440000	56,835000
2,784074	-4,273045	82,752	-0,068227	22,440000	56,835000
2,784078	-3,908586	82,852	-0,068074	22,440000	56,835000
2,784058	-3,996197	82,953	-0,068111	22,440000	56,835000
2,784027	-3,837330	83,055	-0,068044	22,440000	56,835000
2,784031	-3,940126	83,163	-0,068087	22,440000	56,835000
2,784056	-4,375841	83,264	-0,068270	22,440000	56,835000
2,784046	-4,344301	83,366	-0,068256	22,440000	56,835000
2,784052	-4,384018	83,466	-0,068273	22,440000	56,835000
2,784025	-4,216974	83,574	-0,068203	22,440000	56,835000
2,784059	-4,051099	83,674	-0,068134	22,440000	56,835000
2,784048	-4,130532	83,775	-0,068167	22,440000	56,835000
2,784048	-4,319770	83,875	-0,068246	22,440000	56,835000
2,784055	-4,826742	83,976	-0,068458	22,440000	56,835000
2,784025	-3,853684	84,076	-0,068051	22,460000	56,840000
2,784072	-4,470460	84,177	-0,068309	22,460000	56,840000
2,784022	-3,948303	84,278	-0,068091	22,460000	56,840000
2,784065	-3,734534	84,378	-0,068001	22,460000	56,840000
2,784003	-4,035913	84,478	-0,068127	22,460000	56,840000
2,784058	-3,956480	84,578	-0,068094	22,460000	56,840000
2,784050	-4,178426	84,678	-0,068187	22,460000	56,840000
2,784038	-4,225151	84,778	-0,068207	22,460000	56,840000
2,784054	-3,971666	84,878	-0,068101	22,460000	56,840000
2,784060	-4,233328	84,980	-0,068210	22,460000	56,840000
2,784098	-4,273045	85,080	-0,068227	22,460000	56,840000
2,784022	-4,241505	85,181	-0,068213	22,460000	56,840000
2,784087	-4,193612	85,282	-0,068193	22,460000	56,840000
2,784044	-4,145718	85,387	-0,068173	22,460000	56,840000
2,784031	-4,312762	85,488	-0,068243	22,460000	56,840000
2,784129	-3,988020	85,593	-0,068107	22,460000	56,840000
2,784113	-4,399204	85,693	-0,068279	22,460000	56,840000
2,784030	-3,885224	85,793	-0,068064	22,460000	56,840000
2,784007	-4,201789	85,893	-0,068197	22,460000	56,840000
2,784042	-4,216974	85,993	-0,068203	22,450000	56,825000
2,784053	-4,233328	86,093	-0,068210	22,450000	56,825000
2,784080	-4,138709	86,193	-0,068170	22,450000	56,825000
2,784039	-4,059276	86,293	-0,068137	22,450000	56,825000
2,784025	-4,359487	86,406	-0,068263	22,450000	56,825000
2,784035	-4,098993	86,506	-0,068154	22,450000	56,825000
2,784042	-4,344301	86,606	-0,068256	22,450000	56,825000
2,784046	-4,090816	86,707	-0,068150	22,450000	56,825000
2,784066	-4,201789	86,814	-0,068197	22,450000	56,825000
2,784098	-4,185435	86,914	-0,068190	22,450000	56,825000
2,784068	-4,011382	87,014	-0,068117	22,450000	56,825000
2,784100	-4,019559	87,124	-0,068121	22,450000	56,825000
2,784057	-3,979843	87,225	-0,068104	22,450000	56,825000
2,784052	-4,162072	87,325	-0,068180	22,450000	56,825000
2,784067	-3,868870	87,426	-0,068058	22,450000	56,825000
2,784068	-4,288231	87,538	-0,068233	22,450000	56,825000
2,784038	-3,528942	87,638	-0,067916	22,450000	56,825000
2,784013	-4,447097	87,739	-0,068299	22,450000	56,825000
2,784026	-3,877047	87,840	-0,068061	22,450000	56,825000
2,784076	-4,209966	87,942	-0,068200	22,450000	56,825000
2,784040	-4,011382	88,043	-0,068117	22,450000	56,840000
2,784036	-4,256691	88,143	-0,068220	22,450000	56,840000
2,784119	-4,455274	88,243	-0,068303	22,450000	56,840000
2,784066	-4,367664	88,361	-0,068266	22,450000	56,840000
2,784076	-4,280054	88,463	-0,068229	22,450000	56,840000
2,784095	-4,216974	88,564	-0,068203	22,450000	56,840000
2,784046	-4,201789	88,665	-0,068197	22,450000	56,840000
2,784044	-4,145718	88,770	-0,068173	22,450000	56,840000
2,784068	-4,074462	88,871	-0,068144	22,450000	56,840000
2,784066	-4,216974	88,971	-0,068203	22,450000	56,840000
2,784036	-4,067453	89,073	-0,068141	22,450000	56,840000
2,784020	-4,185435	89,183	-0,068190	22,450000	56,840000
2,784026	-4,510177	89,283	-0,068326	22,450000	56,840000
2,784025	-3,988020	89,384	-0,068107	22,450000	56,840000
2,784056	-4,098993	89,484	-0,068154	22,450000	56,840000
2,784076	-3,971666	89,591	-0,068101	22,450000	56,840000
2,784017	-4,256691	89,692	-0,068220	22,450000	56,840000
2,783994	-4,367664	89,792	-0,068266	22,450000	56,840000
2,784001	-4,153895	89,892	-0,068177	22,450000	56,840000
2,784109	-3,979843	89,992	-0,068104	22,450000	56,840000
2,784094	-4,264868	90,092	-0,068223	22,450000	56,840000
2,784037	-3,766074	90,193	-0,068015	22,450000	56,840000
2,784023	-3,822144	90,294	-0,068038	22,450000	56,840000
2,784029	-4,067453	90,352	-0,068141	22,450000	56,840000