File: Nanoindentation Datenauswertung/data/MEMS Resolution Test/MEMS step test,0,5nm,10Hz-5
Quasi static measurement routine
Tip parameters (shape,radius, material...)
17.08.2022

Piezo position[nm]	MEMS displ.[nm]	Time[ms]	Cap [pf]	Temp [°C]	Rh [%]
eoh
2,851891	0,127327	0,216	-0,058178	22,460000	56,240000
2,852368	0,253486	0,316	-0,058125	22,460000	56,240000
2,852385	0,158867	0,416	-0,058165	22,460000	56,225000
2,852318	0,482441	0,518	-0,058029	22,460000	56,225000
2,852292	0,324742	0,618	-0,058095	22,460000	56,225000
2,852319	0,110973	0,719	-0,058185	22,460000	56,225000
2,852368	0,324742	0,819	-0,058095	22,460000	56,225000
2,852388	0,412352	0,920	-0,058059	22,460000	56,225000
2,852375	0,079433	1,021	-0,058198	22,460000	56,225000
2,852332	0,435715	1,122	-0,058049	22,460000	56,225000
2,852383	0,348105	1,222	-0,058085	22,460000	56,225000
2,852284	0,056071	1,323	-0,058208	22,460000	56,225000
2,852295	0,008177	1,423	-0,058228	22,460000	56,225000
2,852390	0,467255	1,523	-0,058036	22,460000	56,225000
2,852397	0,308388	1,624	-0,058102	22,460000	56,225000
2,852321	0,047894	1,724	-0,058211	22,460000	56,225000
2,852345	0,435715	1,824	-0,058049	22,460000	56,225000
2,852388	-0,094619	1,925	-0,058271	22,460000	56,225000
2,852393	0,467255	2,026	-0,058036	22,460000	56,225000
2,852350	0,095787	2,126	-0,058191	22,460000	56,225000
2,852353	0,134336	2,226	-0,058175	22,460000	56,225000
2,852354	0,174052	2,326	-0,058158	22,460000	56,225000
2,852364	0,008177	2,427	-0,058228	22,450000	56,240000
2,852342	0,450901	2,527	-0,058042	22,450000	56,240000
2,852398	0,348105	2,628	-0,058085	22,450000	56,240000
2,852372	0,301379	2,730	-0,058105	22,450000	56,240000
2,852420	0,174052	2,830	-0,058158	22,450000	56,240000
2,852355	0,150690	2,931	-0,058168	22,450000	56,240000
2,852431	0,150690	3,031	-0,058168	22,450000	56,240000
2,852276	0,134336	3,131	-0,058175	22,450000	56,240000
2,852350	0,341096	3,232	-0,058088	22,450000	56,240000
2,852393	0,332919	3,332	-0,058092	22,450000	56,240000
2,852342	0,206760	3,432	-0,058145	22,450000	56,240000
2,852375	-0,102796	3,533	-0,058274	22,450000	56,240000
2,852382	0,071256	3,633	-0,058201	22,450000	56,240000
2,852382	0,364459	3,733	-0,058079	22,450000	56,240000
2,852319	0,293202	3,833	-0,058108	22,450000	56,240000
2,852380	0,364459	3,934	-0,058079	22,450000	56,240000
2,852373	0,206760	4,034	-0,058145	22,450000	56,240000
2,852398	0,056071	4,134	-0,058208	22,450000	56,240000
2,852378	0,031540	4,234	-0,058218	22,450000	56,240000
2,852369	0,063079	4,334	-0,058205	22,450000	56,240000
2,852363	0,063079	4,434	-0,058205	22,460000	56,255000
2,852370	-0,007009	4,535	-0,058234	22,460000	56,255000
2,852347	0,324742	4,635	-0,058095	22,460000	56,255000
2,852323	0,308388	4,736	-0,058102	22,460000	56,255000
2,852343	0,475432	4,836	-0,058032	22,460000	56,255000
2,852384	0,198583	4,937	-0,058148	22,460000	56,255000
2,852354	0,087610	5,037	-0,058194	22,460000	56,255000
2,852365	0,174052	5,138	-0,058158	22,460000	56,255000
2,852348	0,435715	5,238	-0,058049	22,460000	56,255000
2,852365	0,000000	5,338	-0,058231	22,460000	56,255000
2,852354	0,174052	5,438	-0,058158	22,460000	56,255000
2,852361	0,206760	5,538	-0,058145	22,460000	56,255000
2,852367	0,419361	5,640	-0,058056	22,460000	56,255000
2,852384	0,364459	5,741	-0,058079	22,460000	56,255000
2,852389	0,387821	5,842	-0,058069	22,460000	56,255000
2,852365	0,213769	5,942	-0,058142	22,460000	56,255000
2,852319	0,230123	6,042	-0,058135	22,460000	56,255000
2,852325	0,230123	6,142	-0,058135	22,460000	56,255000
2,852356	0,127327	6,242	-0,058178	22,460000	56,255000
2,852314	0,095787	6,343	-0,058191	22,460000	56,255000
2,852383	0,127327	6,443	-0,058178	22,460000	56,255000
2,852350	0,047894	6,544	-0,058211	22,460000	56,255000
2,852381	0,039717	6,645	-0,058214	22,460000	56,255000
2,852365	0,127327	6,745	-0,058178	22,460000	56,255000
2,852356	0,000000	6,845	-0,058231	22,460000	56,255000
2,852378	0,293202	6,945	-0,058108	22,460000	56,255000
2,852390	0,261663	7,045	-0,058122	22,460000	56,255000
2,852333	0,609767	7,145	-0,057976	22,460000	56,255000
2,852361	0,276848	7,245	-0,058115	22,460000	56,255000
2,852360	-0,031540	7,345	-0,058244	22,460000	56,255000
2,852331	0,293202	7,445	-0,058108	22,460000	56,255000
2,852340	0,174052	7,545	-0,058158	22,460000	56,255000
2,852324	0,230123	7,645	-0,058135	22,460000	56,255000
2,852387	0,316565	7,745	-0,058099	22,460000	56,255000
2,852365	0,110973	7,846	-0,058185	22,460000	56,255000
2,852318	0,387821	7,946	-0,058069	22,460000	56,255000
2,852327	0,206760	8,046	-0,058145	22,460000	56,255000
2,852336	0,110973	8,146	-0,058185	22,460000	56,255000
2,852386	-0,142513	8,247	-0,058291	22,460000	56,255000
2,852383	0,023363	8,348	-0,058221	22,460000	56,255000
2,852362	0,056071	8,448	-0,058208	22,460000	56,215000
2,852374	0,119150	8,548	-0,058181	22,460000	56,215000
2,852363	-0,007009	8,649	-0,058234	22,460000	56,215000
2,852350	0,395998	8,750	-0,058065	22,460000	56,215000
2,852340	0,167044	8,851	-0,058161	22,460000	56,215000
2,852353	0,039717	8,952	-0,058214	22,460000	56,215000
2,852369	0,119150	9,053	-0,058181	22,460000	56,215000
2,852340	0,268672	9,153	-0,058119	22,460000	56,215000
2,852369	-0,165875	9,253	-0,058300	22,460000	56,215000
2,852390	0,008177	9,353	-0,058228	22,460000	56,215000
2,852400	0,316565	9,453	-0,058099	22,460000	56,215000
2,852359	0,268672	9,554	-0,058119	22,460000	56,215000
2,852309	0,071256	9,655	-0,058201	22,460000	56,215000
2,852385	0,119150	9,755	-0,058181	22,460000	56,215000
2,852389	-0,094619	9,856	-0,058271	22,460000	56,215000
2,852286	0,150690	9,956	-0,058168	22,460000	56,215000
2,852378	-0,134336	10,056	-0,058287	22,460000	56,215000
2,852370	0,356282	10,157	-0,058082	22,460000	56,215000
2,852366	-0,031540	10,258	-0,058244	22,460000	56,215000
2,852338	0,102796	10,359	-0,058188	22,460000	56,215000
2,851890	-0,522157	10,451	-0,058449	22,460000	56,240000
2,851846	-0,671679	10,551	-0,058512	22,460000	56,240000
2,851870	-0,220778	10,651	-0,058323	22,460000	56,240000
2,851862	-0,513980	10,753	-0,058446	22,460000	56,240000
2,851822	-0,157698	10,853	-0,058297	22,460000	56,240000
2,851813	-0,466087	10,953	-0,058426	22,460000	56,240000
2,851879	-0,102796	11,054	-0,058274	22,460000	56,240000
2,851889	-0,419361	11,155	-0,058406	22,460000	56,240000
2,851879	-0,134336	11,255	-0,058287	22,460000	56,240000
2,851843	-0,356282	11,356	-0,058380	22,460000	56,240000
2,851854	-0,228955	11,456	-0,058327	22,460000	56,240000
2,851867	-0,285025	11,557	-0,058350	22,460000	56,240000
2,851843	-0,371468	11,657	-0,058386	22,460000	56,240000
2,851880	-0,459078	11,757	-0,058423	22,460000	56,240000
2,851920	-0,078265	11,857	-0,058264	22,460000	56,240000
2,851870	-0,608599	11,958	-0,058485	22,460000	56,240000
2,851861	-0,182229	12,059	-0,058307	22,460000	56,240000
2,851863	-0,245309	12,159	-0,058333	22,460000	56,240000
2,851830	-0,497626	12,260	-0,058439	22,460000	56,240000
2,851856	-0,608599	12,361	-0,058485	22,460000	56,240000
2,851863	-0,228955	12,461	-0,058327	22,460000	56,240000
2,851839	-0,450901	12,561	-0,058419	22,460000	56,240000
2,851873	-0,505803	12,662	-0,058442	22,460000	56,240000
2,851863	-0,339928	12,762	-0,058373	22,460000	56,240000
2,851895	-0,331751	12,862	-0,058370	22,460000	56,240000
2,851912	-0,767466	12,962	-0,058552	22,460000	56,240000
2,851854	-0,727749	13,066	-0,058535	22,460000	56,240000
2,851833	-0,228955	13,167	-0,058327	22,460000	56,240000
2,851903	-0,497626	13,267	-0,058439	22,460000	56,240000
2,851875	-0,363291	13,368	-0,058383	22,460000	56,240000
2,851837	-0,497626	13,468	-0,058439	22,460000	56,240000
2,851813	-0,616776	13,568	-0,058489	22,460000	56,240000
2,851856	-0,379645	13,668	-0,058390	22,460000	56,240000
2,851834	-0,608599	13,768	-0,058485	22,460000	56,240000
2,851857	-0,308388	13,868	-0,058360	22,460000	56,240000
2,851811	-0,245309	13,969	-0,058333	22,460000	56,240000
2,851884	-0,466087	14,070	-0,058426	22,460000	56,240000
2,851835	-0,403007	14,171	-0,058399	22,460000	56,240000
2,851868	-0,212601	14,272	-0,058320	22,460000	56,240000
2,851850	-0,664670	14,373	-0,058509	22,460000	56,255000
2,851850	-0,323574	14,473	-0,058366	22,460000	56,255000
2,851837	-0,450901	14,574	-0,058419	22,460000	56,255000
2,851863	-0,260495	14,675	-0,058340	22,460000	56,255000
2,851928	-0,585237	14,775	-0,058476	22,460000	56,255000
2,851861	-0,212601	14,875	-0,058320	22,460000	56,255000
2,851881	-0,434547	14,977	-0,058413	22,460000	56,255000
2,851856	-0,640139	15,077	-0,058499	22,460000	56,255000
2,851854	-0,379645	15,177	-0,058390	22,460000	56,255000
2,851846	-0,228955	15,277	-0,058327	22,460000	56,255000
2,851855	-0,497626	15,379	-0,058439	22,460000	56,255000
2,851882	-0,387821	15,480	-0,058393	22,460000	56,255000
2,851859	-0,150690	15,581	-0,058294	22,460000	56,255000
2,851885	-0,561874	15,681	-0,058466	22,460000	56,255000
2,851803	0,245309	15,781	-0,058128	22,460000	56,255000
2,851823	-0,245309	15,882	-0,058333	22,460000	56,255000
2,851804	-0,585237	15,982	-0,058476	22,460000	56,255000
2,851887	-0,308388	16,083	-0,058360	22,460000	56,255000
2,851901	-0,490618	16,184	-0,058436	22,460000	56,255000
2,851852	-0,316565	16,285	-0,058363	22,460000	56,255000
2,851831	-0,268672	16,386	-0,058343	22,450000	56,255000
2,851835	-0,704387	16,486	-0,058525	22,450000	56,255000
2,851879	-0,411184	16,586	-0,058403	22,450000	56,255000
2,851861	-0,268672	16,687	-0,058343	22,450000	56,255000
2,851900	-0,838722	16,788	-0,058582	22,450000	56,255000
2,851823	-0,212601	16,889	-0,058320	22,450000	56,255000
2,851878	-0,023363	16,989	-0,058241	22,450000	56,255000
2,851890	-0,285025	17,091	-0,058350	22,450000	56,255000
2,851855	-0,268672	17,192	-0,058343	22,450000	56,255000
2,851799	-0,419361	17,292	-0,058406	22,450000	56,255000
2,851839	-0,387821	17,392	-0,058393	22,450000	56,255000
2,851891	-0,545520	17,493	-0,058459	22,450000	56,255000
2,851847	-0,308388	17,595	-0,058360	22,450000	56,255000
2,851910	-0,442724	17,696	-0,058416	22,450000	56,255000
2,851912	-0,624953	17,796	-0,058492	22,450000	56,255000
2,851842	-0,323574	17,896	-0,058366	22,450000	56,255000
2,851829	-0,577060	17,997	-0,058472	22,450000	56,255000
2,851833	-0,640139	18,099	-0,058499	22,450000	56,255000
2,851887	-0,664670	18,199	-0,058509	22,450000	56,255000
2,851870	-0,237132	18,300	-0,058330	22,450000	56,255000
2,851915	-0,110973	18,400	-0,058277	22,450000	56,255000
2,851885	-0,799006	18,502	-0,058565	22,450000	56,255000
2,851801	-0,348105	18,602	-0,058376	22,450000	56,255000
2,851865	-0,513980	18,702	-0,058446	22,450000	56,255000
2,851849	-0,870262	18,802	-0,058595	22,450000	56,255000
2,851892	-0,530334	18,903	-0,058453	22,450000	56,255000
2,851862	-0,901802	19,004	-0,058608	22,450000	56,255000
2,851817	-0,316565	19,105	-0,058363	22,450000	56,255000
2,851889	-0,830545	19,205	-0,058578	22,450000	56,255000
2,851874	-0,570051	19,306	-0,058469	22,450000	56,255000
2,851886	-0,790829	19,407	-0,058562	22,450000	56,255000
2,851877	-0,688033	19,573	-0,058519	22,450000	56,255000
2,851893	-0,593414	19,673	-0,058479	22,450000	56,255000
2,851856	-0,631962	19,773	-0,058495	22,450000	56,255000
2,851894	-0,656493	19,874	-0,058505	22,450000	56,255000
2,851837	-0,490618	19,975	-0,058436	22,450000	56,255000
2,851835	-0,688033	20,075	-0,058519	22,450000	56,255000
2,851885	-0,497626	20,176	-0,058439	22,450000	56,255000
2,851877	-0,593414	20,277	-0,058479	22,450000	56,255000
2,851880	-0,545520	20,381	-0,058459	22,460000	56,255000
2,851822	-0,624953	20,482	-0,058492	22,460000	56,255000
2,851885	-0,466087	20,583	-0,058426	22,460000	56,255000
2,852357	-0,237132	20,678	-0,058330	22,460000	56,255000
2,852307	-0,007009	20,778	-0,058234	22,460000	56,255000
2,852341	-0,031540	20,878	-0,058244	22,460000	56,255000
2,852387	-0,356282	20,979	-0,058380	22,460000	56,255000
2,852321	-0,157698	21,079	-0,058297	22,460000	56,255000
2,852363	0,332919	21,183	-0,058092	22,460000	56,255000
2,852366	0,023363	21,283	-0,058221	22,460000	56,255000
2,852370	0,213769	21,384	-0,058142	22,460000	56,255000
2,852356	-0,174052	21,484	-0,058304	22,460000	56,255000
2,852358	0,000000	21,584	-0,058231	22,460000	56,255000
2,852354	-0,102796	21,684	-0,058274	22,460000	56,255000
2,852381	-0,245309	21,784	-0,058333	22,460000	56,255000
2,852378	-0,165875	21,885	-0,058300	22,460000	56,255000
2,852347	0,190406	21,992	-0,058151	22,460000	56,255000
2,852334	-0,285025	22,092	-0,058350	22,460000	56,255000
2,852362	-0,371468	22,192	-0,058386	22,460000	56,255000
2,852351	-0,086442	22,293	-0,058267	22,460000	56,255000
2,852355	-0,442724	22,394	-0,058416	22,460000	56,255000
2,852323	-0,245309	22,494	-0,058333	22,460000	56,255000
2,852302	-0,157698	22,594	-0,058297	22,460000	56,255000
2,852362	-0,252318	22,694	-0,058336	22,460000	56,255000
2,852334	0,008177	22,794	-0,058228	22,460000	56,255000
2,852328	-0,182229	22,895	-0,058307	22,460000	56,255000
2,852346	-0,182229	22,995	-0,058307	22,460000	56,255000
2,852386	-0,182229	23,096	-0,058307	22,460000	56,255000
2,852373	-0,292034	23,196	-0,058353	22,460000	56,255000
2,852303	0,047894	23,296	-0,058211	22,460000	56,255000
2,852325	-0,142513	23,396	-0,058291	22,460000	56,255000
2,852297	-0,395998	23,497	-0,058396	22,460000	56,255000
2,852386	-0,086442	23,597	-0,058267	22,460000	56,255000
2,852357	-0,387821	23,699	-0,058393	22,460000	56,255000
2,852327	-0,228955	23,800	-0,058327	22,460000	56,255000
2,852304	-0,308388	23,900	-0,058360	22,460000	56,255000
2,852391	-0,570051	24,000	-0,058469	22,460000	56,255000
2,852308	-0,165875	24,100	-0,058300	22,460000	56,255000
2,852335	-0,063079	24,201	-0,058257	22,460000	56,255000
2,852321	-0,086442	24,302	-0,058267	22,460000	56,255000
2,852333	-0,157698	24,411	-0,058297	22,460000	56,255000
2,852345	-0,316565	24,512	-0,058363	22,460000	56,255000
2,852368	-0,371468	24,612	-0,058386	22,460000	56,255000
2,852411	-0,260495	24,713	-0,058340	22,460000	56,255000
2,852317	0,056071	24,820	-0,058208	22,460000	56,255000
2,852346	0,031540	24,921	-0,058218	22,460000	56,255000
2,852395	-0,174052	25,025	-0,058304	22,460000	56,255000
2,852369	0,056071	25,126	-0,058208	22,460000	56,255000
2,852405	0,127327	25,239	-0,058178	22,460000	56,255000
2,852370	-0,063079	25,340	-0,058257	22,460000	56,255000
2,852304	-0,015186	25,441	-0,058237	22,460000	56,255000
2,852346	-0,134336	25,542	-0,058287	22,460000	56,255000
2,852354	-0,316565	25,642	-0,058363	22,460000	56,255000
2,852370	-0,570051	25,743	-0,058469	22,460000	56,255000
2,852350	-0,260495	25,843	-0,058340	22,460000	56,255000
2,852373	-0,276848	25,943	-0,058347	22,460000	56,255000
2,852349	-0,189238	26,044	-0,058310	22,460000	56,255000
2,852402	-0,474264	26,145	-0,058429	22,460000	56,255000
2,852369	-0,363291	26,245	-0,058383	22,460000	56,255000
2,852321	-0,189238	26,345	-0,058310	22,460000	56,255000
2,852392	-0,086442	26,445	-0,058267	22,460000	56,240000
2,852351	-0,220778	26,545	-0,058323	22,460000	56,240000
2,852345	-0,395998	26,646	-0,058396	22,460000	56,240000
2,852385	-0,300211	26,746	-0,058356	22,460000	56,240000
2,852337	-0,292034	26,847	-0,058353	22,460000	56,240000
2,852360	-0,086442	26,948	-0,058267	22,460000	56,240000
2,852367	-0,363291	27,049	-0,058383	22,460000	56,240000
2,852319	-0,174052	27,150	-0,058304	22,460000	56,240000
2,852301	0,261663	27,250	-0,058122	22,460000	56,240000
2,852354	-0,157698	27,351	-0,058297	22,460000	56,240000
2,852374	-0,039717	27,451	-0,058248	22,460000	56,240000
2,852433	0,008177	27,551	-0,058228	22,460000	56,240000
2,852353	-0,165875	27,651	-0,058300	22,460000	56,240000
2,852332	-0,252318	27,752	-0,058336	22,460000	56,240000
2,852286	-0,063079	27,852	-0,058257	22,460000	56,240000
2,852326	-0,142513	27,953	-0,058291	22,460000	56,240000
2,852344	-0,285025	28,053	-0,058350	22,460000	56,240000
2,852344	-0,174052	28,153	-0,058304	22,460000	56,240000
2,852283	0,056071	28,254	-0,058208	22,460000	56,240000
2,852374	-0,245309	28,354	-0,058333	22,460000	56,240000
2,852376	-0,308388	28,454	-0,058360	22,460000	56,225000
2,852346	-0,126159	28,554	-0,058284	22,460000	56,225000
2,852400	-0,395998	28,655	-0,058396	22,460000	56,225000
2,852382	-0,276848	28,755	-0,058347	22,460000	56,225000
2,852330	-0,031540	28,856	-0,058244	22,460000	56,225000
2,852312	-0,379645	28,957	-0,058390	22,460000	56,225000
2,852360	-0,094619	29,058	-0,058271	22,460000	56,225000
2,852398	-0,134336	29,158	-0,058287	22,460000	56,225000
2,852330	-0,094619	29,275	-0,058271	22,460000	56,225000
2,852319	0,063079	29,375	-0,058205	22,460000	56,225000
2,852323	-0,126159	29,475	-0,058284	22,460000	56,225000
2,852339	-0,292034	29,575	-0,058353	22,460000	56,225000
2,852315	-0,348105	29,675	-0,058376	22,460000	56,225000
2,852414	-0,150690	29,775	-0,058294	22,460000	56,225000
2,852325	-0,182229	29,875	-0,058307	22,460000	56,225000
2,852379	-0,212601	29,976	-0,058320	22,460000	56,225000
2,852332	-0,117982	30,076	-0,058280	22,460000	56,225000
2,852307	0,008177	30,176	-0,058228	22,460000	56,225000
2,852313	-0,537343	30,277	-0,058456	22,460000	56,225000
2,852417	-0,134336	30,378	-0,058287	22,460000	56,240000
2,852322	-0,165875	30,482	-0,058300	22,460000	56,240000
2,852341	-0,671679	30,584	-0,058512	22,460000	56,240000
2,852384	-0,142513	30,684	-0,058291	22,460000	56,240000
2,852382	-0,331751	30,784	-0,058370	22,460000	56,240000
2,851862	-0,570051	30,893	-0,058469	22,460000	56,240000
2,851856	-0,782652	30,993	-0,058558	22,460000	56,240000
2,851871	-0,648316	31,094	-0,058502	22,460000	56,240000
2,851920	-0,696210	31,196	-0,058522	22,460000	56,240000
2,851854	-0,640139	31,296	-0,058499	22,460000	56,240000
2,851815	-0,893625	31,396	-0,058604	22,460000	56,240000
2,851883	-0,348105	31,496	-0,058376	22,460000	56,240000
2,851851	-0,522157	31,597	-0,058449	22,460000	56,240000
2,851879	-0,601591	31,697	-0,058482	22,460000	56,240000
2,851815	-0,815360	31,798	-0,058572	22,460000	56,240000
2,851870	-0,679856	31,898	-0,058515	22,460000	56,240000
2,851932	-0,537343	32,001	-0,058456	22,460000	56,240000
2,851857	-0,530334	32,102	-0,058453	22,460000	56,240000
2,851852	-0,878439	32,202	-0,058598	22,460000	56,240000
2,851837	-0,530334	32,302	-0,058453	22,460000	56,240000
2,851905	-0,853908	32,402	-0,058588	22,460000	56,240000
2,851851	-0,933341	32,503	-0,058621	22,460000	56,240000
2,851832	-0,450901	32,604	-0,058419	22,460000	56,240000
2,851836	-1,075854	32,704	-0,058681	22,460000	56,240000
2,851839	-1,099217	32,806	-0,058690	22,460000	56,240000
2,851851	-0,616776	32,907	-0,058489	22,460000	56,240000
2,851861	-0,648316	33,008	-0,058502	22,460000	56,240000
2,851865	-0,719572	33,108	-0,058532	22,460000	56,240000
2,851861	-0,577060	33,209	-0,058472	22,460000	56,240000
2,851889	-0,775643	33,311	-0,058555	22,460000	56,240000
2,851858	-0,696210	33,411	-0,058522	22,460000	56,240000
2,851899	-0,640139	33,512	-0,058499	22,460000	56,240000
2,851877	-0,964881	33,612	-0,058634	22,460000	56,240000
2,851840	-1,036137	33,712	-0,058664	22,460000	56,240000
2,851885	-0,767466	33,813	-0,058552	22,460000	56,240000
2,851808	-0,601591	33,913	-0,058482	22,460000	56,240000
2,851853	-0,885448	34,025	-0,058601	22,460000	56,240000
2,851891	-0,570051	34,126	-0,058469	22,460000	56,240000
2,851881	-0,735926	34,227	-0,058539	22,460000	56,240000
2,851852	-0,885448	34,327	-0,058601	22,460000	56,240000
2,851833	-0,782652	34,434	-0,058558	22,450000	56,215000
2,851834	-1,099217	34,535	-0,058690	22,450000	56,215000
2,851849	-0,853908	34,635	-0,058588	22,450000	56,215000
2,851895	-0,696210	34,735	-0,058522	22,450000	56,215000
2,851866	-0,941518	34,855	-0,058625	22,450000	56,215000
2,851827	-0,751112	34,956	-0,058545	22,450000	56,215000
2,851839	-0,878439	35,056	-0,058598	22,450000	56,215000
2,851857	-0,853908	35,157	-0,058588	22,450000	56,215000
2,851841	-0,751112	35,257	-0,058545	22,450000	56,215000
2,851878	-1,044314	35,357	-0,058667	22,450000	56,215000
2,851849	-0,916988	35,458	-0,058614	22,450000	56,215000
2,851863	-0,688033	35,559	-0,058519	22,450000	56,215000
2,851779	-0,775643	35,659	-0,058555	22,450000	56,215000
2,851839	-0,885448	35,759	-0,058601	22,450000	56,215000
2,851853	-0,862085	35,859	-0,058591	22,450000	56,215000
2,851879	-0,711395	35,960	-0,058528	22,450000	56,215000
2,851825	-0,545520	36,060	-0,058459	22,450000	56,215000
2,851887	-1,052491	36,160	-0,058671	22,450000	56,215000
2,851838	-1,202013	36,261	-0,058733	22,450000	56,215000
2,851877	-0,742935	36,362	-0,058542	22,450000	56,215000
2,851861	-0,482441	36,462	-0,058433	22,450000	56,215000
2,851855	-0,956704	36,562	-0,058631	22,450000	56,215000
2,851872	-0,909979	36,663	-0,058611	22,450000	56,215000
2,851860	-0,845731	36,764	-0,058584	22,450000	56,215000
2,851812	-0,909979	36,864	-0,058611	22,450000	56,215000
2,851852	-0,450901	36,965	-0,058419	22,450000	56,215000
2,851887	-0,688033	37,065	-0,058519	22,450000	56,215000
2,851856	-1,218367	37,165	-0,058740	22,450000	56,215000
2,851877	-0,450901	37,265	-0,058419	22,450000	56,215000
2,851883	-0,656493	37,365	-0,058505	22,450000	56,215000
2,851843	-0,727749	37,466	-0,058535	22,450000	56,215000
2,851815	-0,782652	37,568	-0,058558	22,450000	56,215000
2,851836	-0,735926	37,668	-0,058539	22,450000	56,215000
2,851872	-0,822368	37,768	-0,058575	22,450000	56,215000
2,851844	-0,799006	37,869	-0,058565	22,450000	56,215000
2,851851	-0,363291	37,969	-0,058383	22,450000	56,215000
2,851827	-0,742935	38,070	-0,058542	22,450000	56,215000
2,851861	-0,356282	38,172	-0,058380	22,450000	56,215000
2,851867	-0,973058	38,273	-0,058638	22,450000	56,215000
2,851863	-0,807183	38,373	-0,058568	22,450000	56,240000
2,851813	-0,577060	38,474	-0,058472	22,450000	56,240000
2,851870	-0,616776	38,574	-0,058489	22,450000	56,240000
2,851829	-0,664670	38,674	-0,058509	22,450000	56,240000
2,851875	-0,616776	38,774	-0,058489	22,450000	56,240000
2,851881	-0,601591	38,874	-0,058482	22,450000	56,240000
2,851884	-0,348105	38,975	-0,058376	22,450000	56,240000
2,851887	-0,459078	39,076	-0,058423	22,450000	56,240000
2,851875	-0,513980	39,176	-0,058446	22,450000	56,240000
2,851871	-0,759289	39,277	-0,058548	22,450000	56,240000
2,851854	-0,696210	39,378	-0,058522	22,450000	56,240000
2,851871	-0,727749	39,480	-0,058535	22,450000	56,240000
2,851851	-0,838722	39,580	-0,058582	22,450000	56,240000
2,851862	-0,799006	39,681	-0,058565	22,450000	56,240000
2,851840	-0,466087	39,782	-0,058426	22,450000	56,240000
2,851869	-1,036137	39,882	-0,058664	22,450000	56,240000
2,851825	-1,004598	39,983	-0,058651	22,450000	56,240000
2,851844	-0,790829	40,084	-0,058562	22,450000	56,240000
2,851823	-0,570051	40,185	-0,058469	22,450000	56,240000
2,851857	-0,853908	40,287	-0,058588	22,450000	56,240000
2,851852	-0,742935	40,387	-0,058542	22,450000	56,240000
2,851833	-0,656493	40,493	-0,058505	22,450000	56,240000
2,851851	-1,052491	40,594	-0,058671	22,450000	56,240000
2,851840	-0,537343	40,695	-0,058456	22,450000	56,240000
2,851814	-0,648316	40,801	-0,058502	22,450000	56,240000
2,851844	-0,577060	40,902	-0,058472	22,450000	56,240000
2,851884	-1,075854	41,002	-0,058681	22,450000	56,240000
2,852367	-0,331751	41,084	-0,058370	22,450000	56,240000
2,852328	-0,379645	41,185	-0,058390	22,450000	56,240000
2,852375	-0,490618	41,285	-0,058436	22,450000	56,240000
2,852386	-0,260495	41,385	-0,058340	22,450000	56,240000
2,852385	-0,039717	41,486	-0,058248	22,450000	56,240000
2,852365	-0,474264	41,586	-0,058429	22,450000	56,240000
2,852383	-0,308388	41,686	-0,058360	22,450000	56,240000
2,852309	-0,411184	41,787	-0,058403	22,450000	56,240000
2,852367	0,039717	41,887	-0,058214	22,450000	56,240000
2,852361	-0,466087	41,987	-0,058426	22,450000	56,240000
2,852341	-0,474264	42,095	-0,058429	22,450000	56,240000
2,852359	-0,285025	42,195	-0,058350	22,450000	56,240000
2,852378	-0,331751	42,295	-0,058370	22,450000	56,240000
2,852389	-0,387821	42,420	-0,058393	22,450000	56,225000
2,852404	-0,339928	42,522	-0,058373	22,450000	56,225000
2,852363	-0,530334	42,623	-0,058453	22,450000	56,225000
2,852421	-0,339928	42,723	-0,058373	22,450000	56,225000
2,852298	-0,403007	42,823	-0,058399	22,450000	56,225000
2,852339	-0,434547	42,923	-0,058413	22,450000	56,225000
2,852350	-0,316565	43,023	-0,058363	22,450000	56,225000
2,852357	-0,648316	43,123	-0,058502	22,450000	56,225000
2,852325	-0,205592	43,224	-0,058317	22,450000	56,225000
2,852341	-0,189238	43,324	-0,058310	22,450000	56,225000
2,852302	-0,608599	43,425	-0,058485	22,450000	56,225000
2,852352	-0,419361	43,526	-0,058406	22,450000	56,225000
2,852341	-0,339928	43,633	-0,058373	22,450000	56,225000
2,852322	-0,759289	43,733	-0,058548	22,450000	56,225000
2,852391	-0,411184	43,834	-0,058403	22,450000	56,225000
2,852367	-0,790829	43,934	-0,058562	22,450000	56,225000
2,852367	-0,403007	44,038	-0,058399	22,450000	56,225000
2,852363	-0,348105	44,138	-0,058376	22,450000	56,225000
2,852370	-0,308388	44,239	-0,058360	22,450000	56,225000
2,852352	-0,323574	44,340	-0,058366	22,450000	56,225000
2,852317	-1,012775	44,443	-0,058654	22,460000	56,255000
2,852334	-0,570051	44,543	-0,058469	22,460000	56,255000
2,852372	-0,640139	44,644	-0,058499	22,460000	56,255000
2,852330	-0,601591	44,745	-0,058482	22,460000	56,255000
2,852346	-0,727749	44,845	-0,058535	22,460000	56,255000
2,852309	-0,395998	44,946	-0,058396	22,460000	56,255000
2,852351	-0,205592	45,046	-0,058317	22,460000	56,255000
2,852326	-0,459078	45,146	-0,058423	22,460000	56,255000
2,852325	-0,371468	45,246	-0,058386	22,460000	56,255000
2,852347	-0,505803	45,348	-0,058442	22,460000	56,255000
2,852366	-0,419361	45,448	-0,058406	22,460000	56,255000
2,852314	-0,387821	45,549	-0,058393	22,460000	56,255000
2,852317	-0,379645	45,655	-0,058390	22,460000	56,255000
2,852347	-0,434547	45,755	-0,058413	22,460000	56,255000
2,852373	-0,411184	45,855	-0,058403	22,460000	56,255000
2,852319	-0,585237	45,955	-0,058476	22,460000	56,255000
2,852329	-0,165875	46,058	-0,058300	22,460000	56,255000
2,852385	-0,348105	46,158	-0,058376	22,460000	56,255000
2,852339	-0,371468	46,258	-0,058386	22,460000	56,255000
2,852347	-0,237132	46,358	-0,058330	22,460000	56,255000
2,852333	-0,220778	46,458	-0,058323	22,470000	56,255000
2,852372	-0,126159	46,558	-0,058284	22,470000	56,255000
2,852288	-0,434547	46,659	-0,058413	22,470000	56,255000
2,852328	-0,150690	46,759	-0,058294	22,470000	56,255000
2,852333	-0,545520	46,861	-0,058459	22,470000	56,255000
2,852318	-0,276848	46,961	-0,058347	22,470000	56,255000
2,852393	0,000000	47,061	-0,058231	22,470000	56,255000
2,852411	-0,775643	47,162	-0,058555	22,470000	56,255000
2,852377	-0,648316	47,263	-0,058502	22,470000	56,255000
2,852401	-0,442724	47,363	-0,058416	22,470000	56,255000
2,852358	-0,356282	47,500	-0,058380	22,470000	56,255000
2,852384	-0,545520	47,602	-0,058459	22,470000	56,255000
2,852336	-0,300211	47,703	-0,058356	22,470000	56,255000
2,852313	-0,260495	47,803	-0,058340	22,470000	56,255000
2,852361	-0,570051	47,904	-0,058469	22,470000	56,255000
2,852380	-0,450901	48,016	-0,058419	22,470000	56,255000
2,852359	-0,664670	48,116	-0,058509	22,470000	56,255000
2,852327	-0,664670	48,217	-0,058509	22,470000	56,255000
2,852423	-0,434547	48,318	-0,058413	22,470000	56,255000
2,852388	-0,711395	48,419	-0,058528	22,460000	56,240000
2,852351	-0,323574	48,520	-0,058366	22,460000	56,240000
2,852350	-0,371468	48,621	-0,058386	22,460000	56,240000
2,852332	-0,608599	48,722	-0,058485	22,460000	56,240000
2,852384	-0,679856	48,822	-0,058515	22,460000	56,240000
2,852333	-0,799006	48,922	-0,058565	22,460000	56,240000
2,852353	-0,570051	49,024	-0,058469	22,460000	56,240000
2,852364	-0,631962	49,125	-0,058495	22,460000	56,240000
2,852345	-0,442724	49,225	-0,058416	22,460000	56,240000
2,852356	-0,442724	49,325	-0,058416	22,460000	56,240000
2,852403	-0,442724	49,425	-0,058416	22,460000	56,240000
2,852363	-0,530334	49,526	-0,058453	22,460000	56,240000
2,852411	-0,767466	49,656	-0,058552	22,460000	56,240000
2,852383	-0,679856	49,761	-0,058515	22,460000	56,240000
2,852316	-0,870262	49,863	-0,058595	22,460000	56,240000
2,852385	-0,497626	49,964	-0,058439	22,460000	56,240000
2,852323	-0,901802	50,067	-0,058608	22,460000	56,240000
2,852303	-0,474264	50,169	-0,058429	22,460000	56,240000
2,852350	-0,704387	50,270	-0,058525	22,460000	56,240000
2,852416	-0,838722	50,370	-0,058582	22,450000	56,265000
2,852363	-0,648316	50,475	-0,058502	22,450000	56,265000
2,852367	-0,363291	50,575	-0,058383	22,450000	56,265000
2,852342	-0,711395	50,675	-0,058528	22,450000	56,265000
2,852331	-0,403007	50,775	-0,058399	22,450000	56,265000
2,852365	-0,838722	50,876	-0,058582	22,450000	56,265000
2,852406	-0,411184	50,976	-0,058403	22,450000	56,265000
2,852296	-0,782652	51,076	-0,058558	22,450000	56,265000
2,852339	-0,640139	51,176	-0,058499	22,450000	56,265000
2,852368	-0,631962	51,277	-0,058495	22,450000	56,265000
2,851824	-1,178650	51,361	-0,058724	22,450000	56,265000
2,851865	-0,996421	51,461	-0,058647	22,450000	56,265000
2,851833	-1,004598	51,567	-0,058651	22,450000	56,265000
2,851829	-1,258084	51,667	-0,058757	22,450000	56,265000
2,851876	-0,996421	51,769	-0,058647	22,450000	56,265000
2,851836	-1,044314	51,870	-0,058667	22,450000	56,265000
2,851849	-0,704387	51,970	-0,058525	22,450000	56,265000
2,851829	-1,415782	52,074	-0,058823	22,450000	56,265000
2,851882	-1,099217	52,174	-0,058690	22,450000	56,265000
2,851818	-1,360880	52,274	-0,058800	22,450000	56,265000
2,851855	-1,352703	52,374	-0,058796	22,450000	56,265000
2,851890	-0,885448	52,474	-0,058601	22,450000	56,265000
2,851855	-1,163464	52,575	-0,058717	22,450000	56,265000
2,851846	-0,973058	52,675	-0,058638	22,450000	56,265000
2,851824	-1,099217	52,775	-0,058690	22,450000	56,265000
2,851895	-1,281446	52,876	-0,058767	22,450000	56,265000
2,851810	-0,790829	52,977	-0,058562	22,450000	56,265000
2,851827	-1,186827	53,079	-0,058727	22,450000	56,265000
2,851832	-1,384242	53,181	-0,058810	22,450000	56,265000
2,851836	-1,020952	53,298	-0,058658	22,450000	56,265000
2,851829	-1,249907	53,398	-0,058753	22,450000	56,265000
2,851837	-1,455499	53,498	-0,058839	22,450000	56,265000
2,851888	-1,084031	53,609	-0,058684	22,450000	56,265000
2,851857	-1,241730	53,709	-0,058750	22,450000	56,265000
2,851894	-1,249907	53,810	-0,058753	22,450000	56,265000
2,851878	-1,249907	53,912	-0,058753	22,450000	56,265000
2,851802	-1,147110	54,025	-0,058710	22,450000	56,265000
2,851827	-0,727749	54,126	-0,058535	22,450000	56,265000
2,851882	-1,329340	54,226	-0,058787	22,450000	56,265000
2,851832	-1,178650	54,326	-0,058724	22,450000	56,265000
2,851881	-1,059500	54,439	-0,058674	22,460000	56,240000
2,851900	-1,241730	54,541	-0,058750	22,460000	56,240000
2,851881	-0,925164	54,642	-0,058618	22,460000	56,240000
2,851859	-1,138934	54,744	-0,058707	22,460000	56,240000
2,851907	-1,329340	54,853	-0,058787	22,460000	56,240000
2,851850	-0,933341	54,953	-0,058621	22,460000	56,240000
2,851879	-1,241730	55,055	-0,058750	22,460000	56,240000
2,851847	-1,178650	55,157	-0,058724	22,460000	56,240000
2,851901	-1,084031	55,274	-0,058684	22,460000	56,240000
2,851857	-1,123748	55,376	-0,058701	22,460000	56,240000
2,851854	-0,949695	55,476	-0,058628	22,460000	56,240000
2,851852	-1,059500	55,576	-0,058674	22,460000	56,240000
2,851817	-1,155287	55,677	-0,058714	22,460000	56,240000
2,851844	-1,281446	55,779	-0,058767	22,460000	56,240000
2,851827	-0,956704	55,880	-0,058631	22,460000	56,240000
2,851861	-0,870262	55,981	-0,058595	22,460000	56,240000
2,851855	-1,084031	56,082	-0,058684	22,460000	56,240000
2,851861	-1,266260	56,182	-0,058760	22,460000	56,240000
2,851841	-1,036137	56,282	-0,058664	22,460000	56,240000
2,851853	-1,044314	56,384	-0,058667	22,460000	56,240000
2,851868	-1,084031	56,498	-0,058684	22,460000	56,240000
2,851878	-1,178650	56,599	-0,058724	22,460000	56,240000
2,851896	-1,004598	56,699	-0,058651	22,460000	56,240000
2,851865	-1,258084	56,824	-0,058757	22,460000	56,240000
2,851806	-1,258084	56,924	-0,058757	22,460000	56,240000
2,851876	-1,480030	57,025	-0,058850	22,460000	56,240000
2,851882	-1,297800	57,133	-0,058773	22,460000	56,240000
2,851835	-1,289623	57,233	-0,058770	22,460000	56,240000
2,851847	-1,130757	57,333	-0,058704	22,460000	56,240000
2,851920	-1,273269	57,433	-0,058763	22,460000	56,240000
2,851867	-1,138934	57,534	-0,058707	22,460000	56,240000
2,851854	-1,384242	57,643	-0,058810	22,460000	56,240000
2,851857	-1,415782	57,744	-0,058823	22,460000	56,240000
2,851866	-1,115571	57,844	-0,058697	22,460000	56,240000
2,851820	-1,360880	57,944	-0,058800	22,460000	56,240000
2,851812	-1,067677	58,057	-0,058677	22,460000	56,240000
2,851838	-1,249907	58,157	-0,058753	22,460000	56,240000
2,851838	-1,004598	58,258	-0,058651	22,460000	56,240000
2,851867	-1,384242	58,359	-0,058810	22,460000	56,240000
2,851858	-1,392419	58,459	-0,058813	22,460000	56,240000
2,851827	-1,415782	58,559	-0,058823	22,460000	56,240000
2,851849	-1,369057	58,659	-0,058803	22,460000	56,240000
2,851823	-1,376065	58,759	-0,058806	22,460000	56,240000
2,851849	-1,099217	58,876	-0,058690	22,460000	56,240000
2,851878	-1,304809	58,976	-0,058776	22,460000	56,240000
2,851907	-1,241730	59,076	-0,058750	22,460000	56,240000
2,851855	-1,408773	59,176	-0,058820	22,460000	56,240000
2,851830	-1,107394	59,284	-0,058694	22,460000	56,240000
2,851844	-1,289623	59,385	-0,058770	22,460000	56,240000
2,851803	-1,273269	59,485	-0,058763	22,460000	56,240000
2,851818	-1,115571	59,585	-0,058697	22,460000	56,240000
2,851826	-1,273269	59,704	-0,058763	22,460000	56,240000
2,851859	-1,463676	59,804	-0,058843	22,460000	56,240000
2,851830	-1,273269	59,904	-0,058763	22,460000	56,240000
2,851866	-1,606188	60,006	-0,058902	22,460000	56,240000
2,851794	-1,321163	60,106	-0,058783	22,460000	56,240000
2,851873	-1,503392	60,207	-0,058859	22,460000	56,240000
2,851867	-1,178650	60,309	-0,058724	22,460000	56,240000
2,851870	-1,336349	60,424	-0,058790	22,450000	56,240000
2,851831	-1,455499	60,535	-0,058839	22,450000	56,240000
2,851878	-1,258084	60,635	-0,058757	22,450000	56,240000
2,851842	-1,384242	60,736	-0,058810	22,450000	56,240000
2,851833	-1,304809	60,836	-0,058776	22,450000	56,240000
2,851845	-0,838722	60,936	-0,058582	22,450000	56,240000
2,851881	-1,289623	61,036	-0,058770	22,450000	56,240000
2,851830	-1,273269	61,136	-0,058763	22,450000	56,240000
2,851859	-0,981235	61,242	-0,058641	22,450000	56,240000
2,851849	-1,329340	61,342	-0,058787	22,450000	56,240000
2,851847	-1,059500	61,442	-0,058674	22,450000	56,240000
2,851830	-1,059500	61,542	-0,058674	22,450000	56,240000
2,851868	-1,661091	61,592	-0,058925	22,450000	56,240000