File: Nanoindentation Datenauswertung/data/MEMS Resolution Test/MEMS step test,0,5nm,10Hz-1
Quasi static measurement routine
Tip parameters (shape,radius, material...)
17.08.2022

Piezo position[nm]	MEMS displ.[nm]	Time[ms]	Cap [pf]	Temp [°C]	Rh [%]
eoh
2,783999	0,079433	0,234	-0,082578	22,460000	56,335000
2,784512	0,530334	0,346	-0,082390	22,450000	56,335000
2,784498	0,427538	0,446	-0,082433	22,450000	56,335000
2,784494	0,656493	0,546	-0,082337	22,450000	56,335000
2,784532	0,505803	0,646	-0,082400	22,450000	56,335000
2,784502	0,578228	0,747	-0,082370	22,450000	56,335000
2,784530	0,719572	0,847	-0,082311	22,450000	56,335000
2,784434	0,561874	0,947	-0,082376	22,450000	56,335000
2,784455	0,578228	1,047	-0,082370	22,450000	56,335000
2,784493	0,371468	1,147	-0,082456	22,450000	56,335000
2,784515	0,253486	1,247	-0,082505	22,450000	56,335000
2,784451	0,498794	1,347	-0,082403	22,450000	56,335000
2,784459	0,316565	1,447	-0,082479	22,450000	56,335000
2,784557	0,522157	1,547	-0,082393	22,450000	56,335000
2,784516	0,142513	1,648	-0,082552	22,450000	56,335000
2,784489	0,324742	1,749	-0,082476	22,450000	56,335000
2,784481	0,339928	1,850	-0,082469	22,450000	56,335000
2,784494	-0,110973	1,952	-0,082658	22,450000	56,335000
2,784469	0,054902	2,053	-0,082588	22,450000	56,335000
2,784486	0,404175	2,162	-0,082442	22,450000	56,335000
2,784506	0,285025	2,263	-0,082492	22,450000	56,335000
2,784470	0,158867	2,364	-0,082545	22,450000	56,335000
2,784478	0,545520	2,466	-0,082383	22,450000	56,335000
2,784493	0,253486	2,566	-0,082505	22,450000	56,335000
2,784487	0,395998	2,666	-0,082446	22,450000	56,335000
2,784492	0,339928	2,767	-0,082469	22,450000	56,335000
2,784499	0,245309	2,867	-0,082509	22,450000	56,335000
2,784473	0,348105	2,967	-0,082466	22,450000	56,335000
2,784505	0,404175	3,068	-0,082442	22,450000	56,335000
2,784502	0,165875	3,168	-0,082542	22,450000	56,335000
2,784424	0,228955	3,269	-0,082516	22,450000	56,335000
2,784467	0,285025	3,369	-0,082492	22,450000	56,335000
2,784424	0,348105	3,470	-0,082466	22,450000	56,335000
2,784488	0,616776	3,571	-0,082354	22,450000	56,335000
2,784494	0,712564	3,672	-0,082313	22,450000	56,335000
2,784449	0,459078	3,772	-0,082419	22,450000	56,335000
2,784472	0,356282	3,873	-0,082462	22,450000	56,335000
2,784493	0,735926	3,973	-0,082304	22,450000	56,335000
2,784487	0,245309	4,074	-0,082509	22,450000	56,335000
2,784493	0,332919	4,174	-0,082472	22,450000	56,335000
2,784500	0,505803	4,274	-0,082400	22,450000	56,335000
2,784434	0,134336	4,374	-0,082555	22,450000	56,335000
2,784454	0,276848	4,474	-0,082496	22,450000	56,335000
2,784495	0,395998	4,574	-0,082446	22,450000	56,335000
2,784484	0,513980	4,674	-0,082396	22,450000	56,335000
2,784479	0,435715	4,774	-0,082429	22,450000	56,335000
2,784480	0,538511	4,875	-0,082386	22,450000	56,335000
2,784532	0,419361	4,976	-0,082436	22,450000	56,335000
2,784467	0,339928	5,077	-0,082469	22,450000	56,335000
2,784498	0,213769	5,178	-0,082522	22,450000	56,335000
2,784497	0,696210	5,278	-0,082320	22,450000	56,335000
2,784513	0,679856	5,378	-0,082327	22,450000	56,335000
2,784509	0,221946	5,480	-0,082519	22,450000	56,335000
2,784473	-0,110973	5,580	-0,082658	22,450000	56,335000
2,784510	0,450901	5,681	-0,082423	22,450000	56,335000
2,784519	0,213769	5,782	-0,082522	22,450000	56,335000
2,784514	0,609767	5,882	-0,082356	22,450000	56,335000
2,784456	0,513980	5,982	-0,082396	22,450000	56,335000
2,784485	0,490618	6,082	-0,082406	22,450000	56,335000
2,784456	0,679856	6,184	-0,082327	22,450000	56,335000
2,784459	0,316565	6,284	-0,082479	22,460000	56,350000
2,784488	0,482441	6,384	-0,082410	22,460000	56,350000
2,784475	0,308388	6,485	-0,082482	22,460000	56,350000
2,784489	0,371468	6,586	-0,082456	22,460000	56,350000
2,784469	0,578228	6,687	-0,082370	22,460000	56,350000
2,784478	0,237132	6,789	-0,082512	22,460000	56,350000
2,784510	0,316565	6,889	-0,082479	22,460000	56,350000
2,784504	0,268672	6,990	-0,082499	22,460000	56,350000
2,784488	0,553697	7,092	-0,082380	22,460000	56,350000
2,784489	0,348105	7,192	-0,082466	22,460000	56,350000
2,784517	0,688033	7,293	-0,082324	22,460000	56,350000
2,784499	0,490618	7,393	-0,082406	22,460000	56,350000
2,784489	0,624953	7,494	-0,082350	22,460000	56,350000
2,784426	0,190406	7,594	-0,082532	22,460000	56,350000
2,784458	0,276848	7,694	-0,082496	22,460000	56,350000
2,784456	0,182229	7,794	-0,082535	22,460000	56,350000
2,784435	0,387821	7,894	-0,082449	22,460000	56,350000
2,784515	0,293202	7,994	-0,082489	22,460000	56,350000
2,784515	-0,071256	8,094	-0,082641	22,460000	56,350000
2,784512	0,474264	8,194	-0,082413	22,460000	56,350000
2,784468	0,150690	8,294	-0,082548	22,460000	56,350000
2,784413	0,205592	8,394	-0,082525	22,460000	56,350000
2,784519	0,071256	8,494	-0,082582	22,460000	56,350000
2,784487	0,450901	8,595	-0,082423	22,460000	56,350000
2,784475	0,071256	8,695	-0,082582	22,460000	56,350000
2,784475	0,404175	8,795	-0,082442	22,460000	56,350000
2,784496	0,672847	8,895	-0,082330	22,460000	56,350000
2,784513	0,110973	8,996	-0,082565	22,460000	56,350000
2,784521	0,228955	9,096	-0,082516	22,460000	56,350000
2,784506	0,268672	9,197	-0,082499	22,460000	56,350000
2,784458	0,253486	9,297	-0,082505	22,460000	56,350000
2,784445	0,094619	9,398	-0,082572	22,460000	56,350000
2,784458	0,308388	9,499	-0,082482	22,460000	56,350000
2,784487	0,285025	9,599	-0,082492	22,460000	56,350000
2,784516	0,324742	9,699	-0,082476	22,460000	56,350000
2,784511	-0,047894	9,799	-0,082631	22,460000	56,350000
2,784435	-0,063079	9,899	-0,082638	22,460000	56,350000
2,784487	0,419361	9,999	-0,082436	22,460000	56,350000
2,784513	0,079433	10,099	-0,082578	22,460000	56,350000
2,784469	0,513980	10,199	-0,082396	22,460000	56,350000
2,784485	-0,102796	10,300	-0,082654	22,460000	56,350000
2,784472	0,308388	10,402	-0,082482	22,460000	56,350000
2,783947	-0,474264	10,488	-0,082810	22,460000	56,350000
2,784026	-0,404175	10,588	-0,082780	22,460000	56,350000
2,784016	-0,474264	10,688	-0,082810	22,460000	56,350000
2,783986	-0,419361	10,788	-0,082787	22,460000	56,350000
2,783968	-0,293202	10,889	-0,082734	22,460000	56,350000
2,783979	-0,387821	10,989	-0,082773	22,460000	56,350000
2,784010	-0,371468	11,096	-0,082767	22,460000	56,350000
2,784020	-0,356282	11,196	-0,082760	22,460000	56,350000
2,783974	-0,513980	11,296	-0,082826	22,460000	56,350000
2,784035	-0,395998	11,397	-0,082777	22,460000	56,350000
2,784022	-0,411184	11,497	-0,082783	22,460000	56,350000
2,783986	-0,276848	11,599	-0,082727	22,460000	56,350000
2,784009	-0,434547	11,699	-0,082793	22,460000	56,350000
2,783948	-0,316565	11,799	-0,082744	22,460000	56,350000
2,783971	-0,285025	11,899	-0,082730	22,460000	56,350000
2,783979	-0,387821	12,000	-0,082773	22,460000	56,350000
2,783962	-0,165875	12,101	-0,082681	22,460000	56,350000
2,784032	-0,561874	12,201	-0,082846	22,460000	56,350000
2,783986	-0,268672	12,301	-0,082724	22,460000	56,335000
2,784049	-0,609767	12,401	-0,082866	22,460000	56,335000
2,783982	-0,513980	12,501	-0,082826	22,460000	56,335000
2,783951	-0,719572	12,602	-0,082912	22,460000	56,335000
2,783944	-0,332919	12,704	-0,082750	22,460000	56,335000
2,783975	-0,490618	12,804	-0,082816	22,460000	56,335000
2,783972	-0,285025	12,905	-0,082730	22,460000	56,335000
2,783919	-0,371468	13,005	-0,082767	22,460000	56,335000
2,783958	0,126159	13,107	-0,082559	22,460000	56,335000
2,784014	-0,221946	13,208	-0,082704	22,460000	56,335000
2,784031	-0,071256	13,308	-0,082641	22,460000	56,335000
2,783987	-0,039717	13,410	-0,082628	22,460000	56,335000
2,784057	-0,308388	13,517	-0,082740	22,460000	56,335000
2,783945	-0,119150	13,618	-0,082661	22,460000	56,335000
2,783951	-0,522157	13,718	-0,082830	22,460000	56,335000
2,783996	-0,411184	13,819	-0,082783	22,460000	56,335000
2,783993	-0,015186	13,919	-0,082618	22,460000	56,335000
2,783982	-0,339928	14,020	-0,082753	22,460000	56,335000
2,783989	-0,253486	14,122	-0,082717	22,460000	56,335000
2,783966	-0,165875	14,223	-0,082681	22,460000	56,335000
2,783943	-0,688033	14,325	-0,082899	22,450000	56,350000
2,784007	-0,387821	14,426	-0,082773	22,450000	56,350000
2,783970	-0,119150	14,526	-0,082661	22,450000	56,350000
2,783970	-0,371468	14,626	-0,082767	22,450000	56,350000
2,783993	-0,364459	14,726	-0,082764	22,450000	56,350000
2,783992	-0,237132	14,826	-0,082710	22,450000	56,350000
2,783984	0,008177	14,927	-0,082608	22,450000	56,350000
2,783963	-0,276848	15,028	-0,082727	22,450000	56,350000
2,784035	-0,213769	15,128	-0,082701	22,450000	56,350000
2,783996	-0,648316	15,229	-0,082882	22,450000	56,350000
2,783990	-0,316565	15,329	-0,082744	22,450000	56,350000
2,784096	-0,395998	15,431	-0,082777	22,450000	56,350000
2,784004	-0,119150	15,531	-0,082661	22,450000	56,350000
2,783929	-0,530334	15,632	-0,082833	22,450000	56,350000
2,783981	-0,150690	15,732	-0,082674	22,450000	56,350000
2,783975	-0,593414	15,833	-0,082859	22,450000	56,350000
2,783995	-0,174052	15,933	-0,082684	22,450000	56,350000
2,783971	-0,585237	16,034	-0,082856	22,450000	56,350000
2,783986	-0,450901	16,135	-0,082800	22,450000	56,350000
2,783983	0,071256	16,235	-0,082582	22,450000	56,350000
2,784008	-0,387821	16,335	-0,082773	22,450000	56,350000
2,783924	-0,285025	16,435	-0,082730	22,450000	56,350000
2,783941	-0,308388	16,535	-0,082740	22,450000	56,350000
2,783930	-0,142513	16,636	-0,082671	22,450000	56,350000
2,784003	-0,221946	16,736	-0,082704	22,450000	56,350000
2,783935	-0,268672	16,838	-0,082724	22,450000	56,350000
2,783944	-0,459078	16,939	-0,082803	22,450000	56,350000
2,784007	-0,245309	17,040	-0,082714	22,450000	56,350000
2,784033	-0,482441	17,140	-0,082813	22,450000	56,350000
2,783965	-0,324742	17,240	-0,082747	22,450000	56,350000
2,783959	-0,134336	17,341	-0,082667	22,450000	56,350000
2,783988	-0,293202	17,442	-0,082734	22,450000	56,350000
2,783927	-0,260495	17,544	-0,082720	22,450000	56,350000
2,784019	-0,182229	17,644	-0,082687	22,450000	56,350000
2,783976	-0,260495	17,745	-0,082720	22,450000	56,350000
2,783939	-0,506971	17,846	-0,082823	22,450000	56,350000
2,784006	-0,300211	17,959	-0,082737	22,450000	56,350000
2,783954	-0,015186	18,060	-0,082618	22,450000	56,350000
2,784005	-0,031540	18,161	-0,082625	22,450000	56,350000
2,783929	-0,339928	18,262	-0,082753	22,450000	56,350000
2,784013	-0,387821	18,362	-0,082773	22,460000	56,335000
2,783991	-0,213769	18,463	-0,082701	22,460000	56,335000
2,784022	-0,672847	18,564	-0,082893	22,460000	56,335000
2,783976	-0,482441	18,664	-0,082813	22,460000	56,335000
2,783981	-0,213769	18,765	-0,082701	22,460000	56,335000
2,783926	-0,506971	18,866	-0,082823	22,460000	56,335000
2,783999	-0,434547	18,966	-0,082793	22,460000	56,335000
2,783985	-0,205592	19,072	-0,082697	22,460000	56,335000
2,783955	-0,260495	19,174	-0,082720	22,460000	56,335000
2,783964	-0,260495	19,274	-0,082720	22,460000	56,335000
2,784012	-0,237132	19,374	-0,082710	22,460000	56,335000
2,783980	-0,054902	19,475	-0,082634	22,460000	56,335000
2,783984	-0,727749	19,575	-0,082916	22,460000	56,335000
2,784034	-0,182229	19,676	-0,082687	22,460000	56,335000
2,783971	-0,434547	19,776	-0,082793	22,460000	56,335000
2,783979	-0,008177	19,876	-0,082615	22,460000	56,335000
2,783979	-0,126159	19,976	-0,082664	22,460000	56,335000
2,783997	-0,434547	20,076	-0,082793	22,460000	56,335000
2,784015	-0,260495	20,176	-0,082720	22,460000	56,335000
2,783999	-0,015186	20,276	-0,082618	22,450000	56,350000
2,784026	-0,268672	20,376	-0,082724	22,450000	56,350000
2,783949	-0,054902	20,476	-0,082634	22,450000	56,350000
2,783945	-0,332919	20,576	-0,082750	22,450000	56,350000
2,784477	0,221946	20,666	-0,082519	22,450000	56,350000
2,784534	0,285025	20,767	-0,082492	22,450000	56,350000
2,784461	0,530334	20,867	-0,082390	22,450000	56,350000
2,784477	-0,054902	20,967	-0,082634	22,450000	56,350000
2,784497	0,387821	21,076	-0,082449	22,450000	56,350000
2,784501	0,427538	21,176	-0,082433	22,450000	56,350000
2,784512	0,071256	21,277	-0,082582	22,450000	56,350000
2,784442	0,182229	21,378	-0,082535	22,450000	56,350000
2,784468	0,165875	21,479	-0,082542	22,450000	56,350000
2,784473	0,419361	21,580	-0,082436	22,450000	56,350000
2,784467	0,094619	21,680	-0,082572	22,450000	56,350000
2,784496	0,174052	21,782	-0,082539	22,450000	56,350000
2,784514	0,339928	21,883	-0,082469	22,450000	56,350000
2,784473	0,000000	21,983	-0,082611	22,450000	56,350000
2,784513	-0,300211	22,083	-0,082737	22,450000	56,350000
2,784478	0,863253	22,183	-0,082250	22,450000	56,350000
2,784475	0,522157	22,283	-0,082393	22,450000	56,350000
2,784489	0,316565	22,384	-0,082479	22,450000	56,350000
2,784504	0,268672	22,484	-0,082499	22,450000	56,350000
2,784488	0,442724	22,585	-0,082426	22,450000	56,350000
2,784464	0,071256	22,686	-0,082582	22,450000	56,350000
2,784511	0,213769	22,786	-0,082522	22,450000	56,350000
2,784483	0,498794	22,887	-0,082403	22,450000	56,350000
2,784528	0,482441	22,987	-0,082410	22,450000	56,350000
2,784465	0,213769	23,087	-0,082522	22,450000	56,350000
2,784517	0,570051	23,187	-0,082373	22,450000	56,350000
2,784454	0,031540	23,287	-0,082598	22,450000	56,350000
2,784499	0,364459	23,387	-0,082459	22,450000	56,350000
2,784523	0,023363	23,487	-0,082602	22,450000	56,350000
2,784449	0,260495	23,588	-0,082502	22,450000	56,350000
2,784473	-0,102796	23,689	-0,082654	22,450000	56,350000
2,784495	-0,190406	23,789	-0,082691	22,450000	56,350000
2,784471	0,379645	23,891	-0,082453	22,450000	56,350000
2,784475	0,197415	23,992	-0,082529	22,450000	56,350000
2,784502	0,364459	24,093	-0,082459	22,450000	56,350000
2,784451	0,308388	24,194	-0,082482	22,450000	56,350000
2,784470	0,442724	24,295	-0,082426	22,460000	56,310000
2,784470	0,300211	24,396	-0,082486	22,460000	56,310000
2,784474	0,332919	24,497	-0,082472	22,460000	56,310000
2,784475	-0,015186	24,597	-0,082618	22,460000	56,310000
2,784448	0,371468	24,711	-0,082456	22,460000	56,310000
2,784548	0,008177	24,813	-0,082608	22,460000	56,310000
2,784419	0,237132	24,913	-0,082512	22,460000	56,310000
2,784452	0,245309	25,013	-0,082509	22,460000	56,310000
2,784430	0,134336	25,114	-0,082555	22,460000	56,310000
2,784455	0,102796	25,214	-0,082568	22,460000	56,310000
2,784499	0,237132	25,315	-0,082512	22,460000	56,310000
2,784498	0,300211	25,415	-0,082486	22,460000	56,310000
2,784479	0,253486	25,518	-0,082505	22,460000	56,310000
2,784428	-0,119150	25,619	-0,082661	22,460000	56,310000
2,784427	0,039717	25,720	-0,082595	22,460000	56,310000
2,784459	0,616776	25,821	-0,082354	22,460000	56,310000
2,784538	0,008177	25,928	-0,082608	22,460000	56,310000
2,784462	0,190406	26,030	-0,082532	22,460000	56,310000
2,784470	0,316565	26,132	-0,082479	22,460000	56,310000
2,784487	-0,008177	26,234	-0,082615	22,460000	56,310000
2,784479	0,268672	26,334	-0,082499	22,470000	56,320000
2,784487	0,641307	26,434	-0,082343	22,470000	56,320000
2,784449	0,142513	26,534	-0,082552	22,470000	56,320000
2,784486	0,285025	26,634	-0,082492	22,470000	56,320000
2,784510	0,000000	26,735	-0,082611	22,470000	56,320000
2,784411	0,474264	26,836	-0,082413	22,470000	56,320000
2,784498	0,174052	26,937	-0,082539	22,470000	56,320000
2,784459	0,308388	27,037	-0,082482	22,470000	56,320000
2,784497	0,190406	27,139	-0,082532	22,470000	56,320000
2,784532	0,300211	27,239	-0,082486	22,470000	56,320000
2,784428	0,324742	27,339	-0,082476	22,470000	56,320000
2,784514	0,079433	27,439	-0,082578	22,470000	56,320000
2,784483	0,165875	27,539	-0,082542	22,470000	56,320000
2,784491	0,039717	27,640	-0,082595	22,470000	56,320000
2,784466	0,404175	27,740	-0,082442	22,470000	56,320000
2,784514	0,221946	27,841	-0,082519	22,470000	56,320000
2,784461	0,205592	27,941	-0,082525	22,470000	56,320000
2,784469	0,000000	28,042	-0,082611	22,470000	56,320000
2,784464	0,505803	28,143	-0,082400	22,470000	56,320000
2,784475	0,395998	28,243	-0,082446	22,470000	56,320000
2,784477	0,119150	28,343	-0,082562	22,460000	56,310000
2,784422	0,395998	28,443	-0,082446	22,460000	56,310000
2,784487	0,324742	28,543	-0,082476	22,460000	56,310000
2,784473	0,459078	28,643	-0,082419	22,460000	56,310000
2,784457	0,395998	28,743	-0,082446	22,460000	56,310000
2,784539	0,213769	28,843	-0,082522	22,460000	56,310000
2,784495	0,427538	28,945	-0,082433	22,460000	56,310000
2,784422	0,538511	29,045	-0,082386	22,460000	56,310000
2,784499	0,268672	29,145	-0,082499	22,460000	56,310000
2,784466	0,190406	29,245	-0,082532	22,460000	56,310000
2,784448	0,165875	29,345	-0,082542	22,460000	56,310000
2,784483	0,086442	29,445	-0,082575	22,460000	56,310000
2,784459	0,079433	29,546	-0,082578	22,460000	56,310000
2,784433	0,624953	29,646	-0,082350	22,460000	56,310000
2,784452	0,530334	29,746	-0,082390	22,460000	56,310000
2,784457	0,000000	29,847	-0,082611	22,460000	56,310000
2,784479	0,182229	29,947	-0,082535	22,460000	56,310000
2,784414	0,467255	30,048	-0,082416	22,460000	56,310000
2,784415	0,578228	30,149	-0,082370	22,460000	56,310000
2,784482	0,268672	30,251	-0,082499	22,460000	56,310000
2,784514	0,228955	30,352	-0,082516	22,460000	56,310000
2,784464	0,459078	30,454	-0,082419	22,460000	56,310000
2,784504	0,964881	30,555	-0,082208	22,460000	56,310000
2,784487	0,150690	30,655	-0,082548	22,460000	56,310000
2,784491	0,023363	30,776	-0,082602	22,460000	56,310000
2,784021	-0,150690	30,857	-0,082674	22,460000	56,310000
2,783953	-0,205592	30,958	-0,082697	22,460000	56,310000
2,783965	0,047894	31,060	-0,082591	22,460000	56,310000
2,783948	-0,253486	31,166	-0,082717	22,460000	56,310000
2,783967	-0,071256	31,267	-0,082641	22,460000	56,310000
2,784010	-0,300211	31,368	-0,082737	22,460000	56,310000
2,783897	0,031540	31,483	-0,082598	22,460000	56,310000
2,783953	-0,387821	31,583	-0,082773	22,460000	56,310000
2,784012	-0,110973	31,684	-0,082658	22,460000	56,310000
2,783964	-0,126159	31,784	-0,082664	22,460000	56,310000
2,783935	-0,190406	31,892	-0,082691	22,460000	56,310000
2,783970	-0,285025	31,992	-0,082730	22,460000	56,310000
2,783937	-0,221946	32,092	-0,082704	22,460000	56,310000
2,783989	-0,008177	32,194	-0,082615	22,460000	56,310000
2,783966	0,102796	32,298	-0,082568	22,460000	56,310000
2,783963	0,276848	32,399	-0,082496	22,460000	56,310000
2,783956	-0,087610	32,500	-0,082648	22,460000	56,310000
2,783943	-0,205592	32,601	-0,082697	22,460000	56,310000
2,784012	-0,023363	32,702	-0,082621	22,460000	56,310000
2,783928	-0,561874	32,803	-0,082846	22,460000	56,310000
2,783952	-0,285025	32,903	-0,082730	22,460000	56,310000
2,783935	0,047894	33,003	-0,082591	22,460000	56,310000
2,783973	-0,545520	33,117	-0,082839	22,460000	56,310000
2,783994	-0,260495	33,217	-0,082720	22,460000	56,310000
2,783942	-0,474264	33,318	-0,082810	22,460000	56,310000
2,783987	-0,467255	33,419	-0,082807	22,460000	56,310000
2,783955	0,142513	33,524	-0,082552	22,460000	56,310000
2,783948	-0,063079	33,625	-0,082638	22,460000	56,310000
2,783957	-0,404175	33,725	-0,082780	22,460000	56,310000
2,784002	-0,474264	33,826	-0,082810	22,460000	56,310000
2,783956	-0,332919	33,937	-0,082750	22,460000	56,310000
2,783975	0,079433	34,037	-0,082578	22,460000	56,310000
2,783917	-0,190406	34,137	-0,082691	22,460000	56,310000
2,783986	-0,063079	34,237	-0,082638	22,460000	56,310000
2,784004	-0,198583	34,337	-0,082694	22,460000	56,310000
2,783967	-0,142513	34,437	-0,082671	22,460000	56,310000
2,783962	-0,126159	34,538	-0,082664	22,460000	56,310000
2,783996	-0,198583	34,639	-0,082694	22,460000	56,310000
2,784031	-0,561874	34,750	-0,082846	22,460000	56,310000
2,783943	-0,023363	34,852	-0,082621	22,460000	56,310000
2,783985	-0,348105	34,953	-0,082757	22,460000	56,310000
2,783985	-0,513980	35,053	-0,082826	22,460000	56,310000
2,783984	-0,442724	35,154	-0,082796	22,460000	56,310000
2,784001	-0,126159	35,254	-0,082664	22,460000	56,310000
2,783960	-0,260495	35,355	-0,082720	22,460000	56,310000
2,783941	-0,228955	35,456	-0,082707	22,460000	56,310000
2,783974	-0,150690	35,560	-0,082674	22,460000	56,310000
2,783970	-0,467255	35,661	-0,082807	22,460000	56,310000
2,784024	-0,522157	35,763	-0,082830	22,460000	56,310000
2,783935	0,237132	35,865	-0,082512	22,460000	56,310000
2,783955	-0,205592	35,973	-0,082697	22,460000	56,310000
2,783958	0,348105	36,073	-0,082466	22,460000	56,310000
2,783980	-0,285025	36,173	-0,082730	22,460000	56,310000
2,783980	-0,174052	36,284	-0,082684	22,460000	56,320000
2,783967	0,023363	36,385	-0,082602	22,460000	56,320000
2,783925	-0,276848	36,486	-0,082727	22,460000	56,320000
2,783995	-0,641307	36,587	-0,082879	22,460000	56,320000
2,783982	-0,419361	36,694	-0,082787	22,460000	56,320000
2,783988	-0,150690	36,794	-0,082674	22,460000	56,320000
2,783985	-0,174052	36,894	-0,082684	22,460000	56,320000
2,783979	-0,071256	36,995	-0,082641	22,460000	56,320000
2,783983	-0,735926	37,096	-0,082919	22,460000	56,320000
2,783995	-0,031540	37,198	-0,082625	22,460000	56,320000
2,783962	-0,260495	37,298	-0,082720	22,460000	56,320000
2,783976	-0,158867	37,398	-0,082678	22,460000	56,320000
2,783983	-0,158867	37,498	-0,082678	22,460000	56,320000
2,783968	0,079433	37,598	-0,082578	22,460000	56,320000
2,783994	0,071256	37,700	-0,082582	22,460000	56,320000
2,783988	-0,371468	37,801	-0,082767	22,460000	56,320000
2,784024	-0,316565	37,921	-0,082744	22,460000	56,320000
2,783982	-0,182229	38,022	-0,082687	22,460000	56,320000
2,783980	-0,150690	38,122	-0,082674	22,460000	56,320000
2,784007	-0,308388	38,223	-0,082740	22,460000	56,320000
2,783957	-0,054902	38,338	-0,082634	22,460000	56,335000
2,783974	0,110973	38,439	-0,082565	22,460000	56,335000
2,783996	-0,119150	38,541	-0,082661	22,460000	56,335000
2,783948	-0,142513	38,641	-0,082671	22,460000	56,335000
2,783978	-0,102796	38,742	-0,082654	22,460000	56,335000
2,783925	-0,165875	38,843	-0,082681	22,460000	56,335000
2,783970	-0,245309	38,944	-0,082714	22,460000	56,335000
2,783983	-0,276848	39,044	-0,082727	22,460000	56,335000
2,783970	-0,672847	39,144	-0,082893	22,460000	56,335000
2,784007	-0,268672	39,244	-0,082724	22,460000	56,335000
2,783981	-0,348105	39,344	-0,082757	22,460000	56,335000
2,783977	-0,767466	39,444	-0,082932	22,460000	56,335000
2,783923	-0,332919	39,545	-0,082750	22,460000	56,335000
2,783965	-0,213769	39,645	-0,082701	22,460000	56,335000
2,783915	-0,459078	39,745	-0,082803	22,460000	56,335000
2,783955	-0,228955	39,845	-0,082707	22,460000	56,335000
2,783940	-0,450901	39,945	-0,082800	22,460000	56,335000
2,783943	-0,293202	40,046	-0,082734	22,460000	56,335000
2,783917	0,023363	40,146	-0,082602	22,460000	56,335000
2,783977	-0,205592	40,246	-0,082697	22,460000	56,335000
2,783991	-0,459078	40,346	-0,082803	22,460000	56,320000
2,783955	-0,071256	40,446	-0,082641	22,460000	56,320000
2,784048	0,071256	40,547	-0,082582	22,460000	56,320000
2,783968	-0,190406	40,648	-0,082691	22,460000	56,320000
2,783958	-0,268672	40,748	-0,082724	22,460000	56,320000
2,783989	-0,348105	40,848	-0,082757	22,460000	56,320000
2,783953	-0,205592	40,949	-0,082697	22,460000	56,320000
2,783971	-0,119150	41,050	-0,082661	22,460000	56,320000
2,784471	0,268672	41,142	-0,082499	22,460000	56,320000
2,784467	0,530334	41,242	-0,082390	22,460000	56,320000
2,784517	0,276848	41,343	-0,082496	22,460000	56,320000
2,784470	0,332919	41,444	-0,082472	22,460000	56,320000
2,784505	0,119150	41,544	-0,082562	22,460000	56,320000
2,784481	0,245309	41,644	-0,082509	22,460000	56,320000
2,784425	0,356282	41,744	-0,082462	22,460000	56,320000
2,784464	0,561874	41,844	-0,082376	22,460000	56,320000
2,784476	0,276848	41,944	-0,082496	22,460000	56,320000
2,784495	0,047894	42,044	-0,082591	22,460000	56,320000
2,784505	-0,008177	42,144	-0,082615	22,460000	56,320000
2,784497	0,008177	42,244	-0,082608	22,460000	56,320000
2,784452	0,126159	42,346	-0,082559	22,460000	56,320000
2,784484	0,260495	42,446	-0,082502	22,460000	56,320000
2,784440	-0,158867	42,546	-0,082678	22,460000	56,320000
2,784472	0,285025	42,646	-0,082492	22,460000	56,320000
2,784443	0,039717	42,755	-0,082595	22,460000	56,320000
2,784460	0,253486	42,855	-0,082505	22,460000	56,320000
2,784456	0,174052	42,956	-0,082539	22,460000	56,320000
2,784474	0,221946	43,057	-0,082519	22,460000	56,320000
2,784529	0,047894	43,157	-0,082591	22,460000	56,320000
2,784477	-0,142513	43,257	-0,082671	22,460000	56,320000
2,784497	0,245309	43,357	-0,082509	22,460000	56,320000
2,784430	0,276848	43,458	-0,082496	22,460000	56,320000
2,784462	0,585237	43,558	-0,082367	22,460000	56,320000
2,784491	0,719572	43,658	-0,082311	22,460000	56,320000
2,784456	0,704387	43,758	-0,082317	22,460000	56,320000
2,784469	0,213769	43,858	-0,082522	22,460000	56,320000
2,784484	0,616776	43,958	-0,082354	22,460000	56,320000
2,784486	0,300211	44,058	-0,082486	22,460000	56,320000
2,784484	0,411184	44,158	-0,082439	22,460000	56,320000
2,784513	0,300211	44,258	-0,082486	22,460000	56,320000
2,784510	0,228955	44,359	-0,082516	22,460000	56,310000
2,784485	0,300211	44,459	-0,082486	22,460000	56,310000
2,784491	0,735926	44,559	-0,082304	22,460000	56,310000
2,784502	0,276848	44,659	-0,082496	22,460000	56,310000
2,784492	0,679856	44,761	-0,082327	22,460000	56,310000
2,784476	0,324742	44,862	-0,082476	22,460000	56,310000
2,784483	0,308388	44,964	-0,082482	22,460000	56,310000
2,784447	0,387821	45,065	-0,082449	22,460000	56,310000
2,784489	0,498794	45,179	-0,082403	22,460000	56,310000
2,784452	0,197415	45,279	-0,082529	22,460000	56,310000
2,784472	0,150690	45,379	-0,082548	22,460000	56,310000
2,784458	0,142513	45,483	-0,082552	22,460000	56,310000
2,784490	0,371468	45,584	-0,082456	22,460000	56,310000
2,784440	0,364459	45,685	-0,082459	22,460000	56,310000
2,784470	0,490618	45,787	-0,082406	22,460000	56,310000
2,784441	0,142513	45,895	-0,082552	22,460000	56,310000
2,784450	0,435715	45,996	-0,082429	22,460000	56,310000
2,784461	0,253486	46,097	-0,082505	22,460000	56,310000
2,784433	0,228955	46,199	-0,082516	22,460000	56,310000
2,784489	0,054902	46,300	-0,082588	22,460000	56,320000
2,784500	0,316565	46,400	-0,082479	22,460000	56,320000
2,784478	0,205592	46,500	-0,082525	22,460000	56,320000
2,784453	0,735926	46,600	-0,082304	22,460000	56,320000
2,784461	0,395998	46,701	-0,082446	22,460000	56,320000
2,784520	0,601591	46,802	-0,082360	22,460000	56,320000
2,784451	0,332919	46,902	-0,082472	22,460000	56,320000
2,784488	0,505803	47,003	-0,082400	22,460000	56,320000
2,784415	0,205592	47,107	-0,082525	22,460000	56,320000
2,784480	0,450901	47,207	-0,082423	22,460000	56,320000
2,784407	0,411184	47,307	-0,082439	22,460000	56,320000
2,784473	0,324742	47,408	-0,082476	22,460000	56,320000
2,784492	0,371468	47,509	-0,082456	22,460000	56,320000
2,784387	0,245309	47,610	-0,082509	22,460000	56,320000
2,784523	0,395998	47,710	-0,082446	22,460000	56,320000
2,784474	-0,039717	47,810	-0,082628	22,460000	56,320000
2,784472	0,474264	47,924	-0,082413	22,460000	56,320000
2,784542	0,371468	48,025	-0,082456	22,460000	56,320000
2,784483	0,182229	48,126	-0,082535	22,460000	56,320000
2,784430	0,110973	48,226	-0,082565	22,460000	56,320000
2,784456	0,482441	48,334	-0,082410	22,460000	56,310000
2,784560	0,404175	48,434	-0,082442	22,460000	56,310000
2,784470	0,505803	48,535	-0,082400	22,460000	56,310000
2,784440	0,578228	48,635	-0,082370	22,460000	56,310000
2,784489	0,427538	48,750	-0,082433	22,460000	56,310000
2,784440	0,300211	48,851	-0,082486	22,460000	56,310000
2,784499	0,308388	48,952	-0,082482	22,460000	56,310000
2,784489	0,450901	49,053	-0,082423	22,460000	56,310000
2,784491	0,316565	49,154	-0,082479	22,460000	56,310000
2,784475	0,530334	49,255	-0,082390	22,460000	56,310000
2,784489	0,348105	49,355	-0,082466	22,460000	56,310000
2,784482	0,039717	49,455	-0,082595	22,460000	56,310000
2,784461	0,482441	49,574	-0,082410	22,460000	56,310000
2,784495	0,387821	49,675	-0,082449	22,460000	56,310000
2,784487	0,245309	49,775	-0,082509	22,460000	56,310000
2,784503	0,316565	49,890	-0,082479	22,460000	56,310000
2,784464	-0,150690	49,991	-0,082674	22,460000	56,310000
2,784476	0,276848	50,092	-0,082496	22,460000	56,310000
2,784468	0,339928	50,193	-0,082469	22,460000	56,310000
2,784448	0,205592	50,303	-0,082525	22,460000	56,320000
2,784524	0,158867	50,404	-0,082545	22,460000	56,320000
2,784560	0,142513	50,504	-0,082552	22,460000	56,320000
2,784530	0,086442	50,605	-0,082575	22,460000	56,320000
2,784476	0,300211	50,710	-0,082486	22,460000	56,320000
2,784485	0,221946	50,810	-0,082519	22,460000	56,320000
2,784512	-0,063079	50,911	-0,082638	22,460000	56,320000
2,784462	0,260495	51,011	-0,082502	22,460000	56,320000
2,784481	0,190406	51,111	-0,082532	22,460000	56,320000
2,784478	0,260495	51,213	-0,082502	22,460000	56,320000
2,784458	-0,047894	51,313	-0,082631	22,460000	56,320000
2,783988	-0,482441	51,397	-0,082813	22,460000	56,320000
2,783998	-0,339928	51,502	-0,082753	22,460000	56,320000
2,783981	-0,419361	51,603	-0,082787	22,460000	56,320000
2,783962	-0,087610	51,704	-0,082648	22,460000	56,320000
2,784031	-0,513980	51,804	-0,082826	22,460000	56,320000
2,783967	-0,221946	51,904	-0,082704	22,460000	56,320000
2,784016	-0,308388	52,004	-0,082740	22,460000	56,320000
2,783930	-0,411184	52,104	-0,082783	22,460000	56,320000
2,783971	-0,237132	52,204	-0,082710	22,460000	56,320000
2,783908	-0,276848	52,307	-0,082727	22,460000	56,320000
2,783955	-0,395998	52,408	-0,082777	22,460000	56,320000
2,783979	-0,119150	52,510	-0,082661	22,460000	56,320000
2,784010	-0,182229	52,612	-0,082687	22,460000	56,320000
2,783988	-0,364459	52,713	-0,082764	22,460000	56,320000
2,783945	-0,182229	52,813	-0,082687	22,460000	56,320000
2,784002	-0,063079	52,914	-0,082638	22,460000	56,320000
2,783946	-0,427538	53,015	-0,082790	22,460000	56,320000
2,783966	-0,158867	53,116	-0,082678	22,460000	56,320000
2,783982	-0,411184	53,217	-0,082783	22,460000	56,320000
2,783966	-0,158867	53,318	-0,082678	22,460000	56,320000
2,783962	0,031540	53,419	-0,082598	22,460000	56,320000
2,783974	-0,253486	53,535	-0,082717	22,460000	56,320000
2,783918	-0,379645	53,636	-0,082770	22,460000	56,320000
2,783951	-0,339928	53,736	-0,082753	22,460000	56,320000
2,784025	-0,578228	53,836	-0,082853	22,460000	56,320000
2,783944	-0,221946	53,951	-0,082704	22,460000	56,320000
2,783956	-0,300211	54,051	-0,082737	22,460000	56,320000
2,783962	-0,490618	54,151	-0,082816	22,460000	56,320000
2,784015	-0,744103	54,252	-0,082922	22,460000	56,320000
2,783989	-0,182229	54,360	-0,082687	22,460000	56,310000
2,783967	-0,260495	54,462	-0,082720	22,460000	56,310000
2,783972	-0,578228	54,563	-0,082853	22,460000	56,310000
2,783950	-0,593414	54,663	-0,082859	22,460000	56,310000
2,784032	-0,442724	54,763	-0,082796	22,460000	56,310000
2,783978	-0,395998	54,864	-0,082777	22,460000	56,310000
2,783986	-0,063079	54,966	-0,082638	22,460000	56,310000
2,783909	-0,379645	55,067	-0,082770	22,460000	56,310000
2,784028	-0,126159	55,186	-0,082664	22,460000	56,310000
2,783960	-0,213769	55,286	-0,082701	22,460000	56,310000
2,784036	-0,293202	55,386	-0,082734	22,460000	56,310000
2,783986	-0,031540	55,506	-0,082625	22,460000	56,310000
2,783936	-0,356282	55,606	-0,082760	22,460000	56,310000
2,783978	-0,427538	55,706	-0,082790	22,460000	56,310000
2,783946	-0,245309	55,807	-0,082714	22,460000	56,310000
2,783980	0,063079	55,926	-0,082585	22,460000	56,310000
2,784020	-0,545520	56,026	-0,082839	22,460000	56,310000
2,783968	-0,332919	56,126	-0,082750	22,460000	56,310000
2,783956	-0,300211	56,226	-0,082737	22,460000	56,310000
2,783959	-0,522157	56,353	-0,082830	22,460000	56,310000
2,783939	-0,332919	56,453	-0,082750	22,460000	56,310000
2,783981	-0,190406	56,553	-0,082691	22,460000	56,310000
2,783957	-0,308388	56,654	-0,082740	22,460000	56,310000
2,783984	-0,087610	56,763	-0,082648	22,460000	56,310000
2,783977	-0,553697	56,864	-0,082843	22,460000	56,310000
2,783996	-0,205592	56,964	-0,082697	22,460000	56,310000
2,784021	-0,228955	57,064	-0,082707	22,460000	56,310000
2,783910	-0,102796	57,164	-0,082654	22,460000	56,310000
2,783989	0,142513	57,266	-0,082552	22,460000	56,310000
2,783962	-0,387821	57,366	-0,082773	22,460000	56,310000
2,783947	-0,395998	57,466	-0,082777	22,460000	56,310000
2,783955	-0,593414	57,567	-0,082859	22,460000	56,310000
2,783959	-0,395998	57,667	-0,082777	22,460000	56,310000
2,783969	-0,672847	57,768	-0,082893	22,460000	56,310000
2,783951	-0,094619	57,869	-0,082651	22,460000	56,310000
2,783937	-0,696210	57,994	-0,082902	22,460000	56,310000
2,783995	-0,221946	58,095	-0,082704	22,460000	56,310000
2,783989	-0,245309	58,195	-0,082714	22,460000	56,310000
2,783952	-0,672847	58,305	-0,082893	22,460000	56,310000
2,783935	-0,570051	58,406	-0,082850	22,460000	56,310000
2,783997	-0,300211	58,507	-0,082737	22,460000	56,310000
2,783972	-0,506971	58,608	-0,082823	22,460000	56,310000
2,783984	-0,237132	58,714	-0,082710	22,460000	56,310000
2,783961	-0,190406	58,814	-0,082691	22,460000	56,310000
2,783949	-0,775643	58,914	-0,082936	22,460000	56,310000
2,783927	-0,712564	59,015	-0,082909	22,460000	56,310000
2,784012	-0,300211	59,115	-0,082737	22,460000	56,310000
2,783991	-0,276848	59,215	-0,082727	22,460000	56,310000
2,783958	-0,348105	59,315	-0,082757	22,460000	56,310000
2,783968	-0,150690	59,415	-0,082674	22,460000	56,310000
2,783951	-0,324742	59,540	-0,082747	22,460000	56,310000
2,783987	-0,450901	59,640	-0,082800	22,460000	56,310000
2,783965	-0,570051	59,740	-0,082850	22,460000	56,310000
2,784014	-0,165875	59,841	-0,082681	22,460000	56,310000
2,783961	0,000000	59,958	-0,082611	22,460000	56,310000
2,784003	-0,419361	60,059	-0,082787	22,460000	56,310000
2,783966	-0,513980	60,159	-0,082826	22,460000	56,310000
2,783990	-0,110973	60,260	-0,082658	22,460000	56,310000
2,783962	-0,545520	60,365	-0,082839	22,460000	56,335000
2,783997	-0,404175	60,465	-0,082780	22,460000	56,335000
2,783979	-0,395998	60,567	-0,082777	22,460000	56,335000
2,783992	-0,467255	60,667	-0,082807	22,460000	56,335000
2,783985	0,000000	60,767	-0,082611	22,460000	56,335000
2,783972	0,079433	60,867	-0,082578	22,460000	56,335000
2,783985	-0,404175	60,967	-0,082780	22,460000	56,335000
2,783977	-0,601591	61,067	-0,082863	22,460000	56,335000
2,783927	-0,332919	61,199	-0,082750	22,460000	56,335000
2,783996	-0,102796	61,300	-0,082654	22,460000	56,335000
2,784001	-0,142513	61,401	-0,082671	22,460000	56,335000
2,783950	-0,356282	61,505	-0,082760	22,460000	56,335000
2,784048	-0,450901	61,605	-0,082800	22,460000	56,335000
2,783969	-0,364459	61,655	-0,082764	22,460000	56,335000