File: Nanoindentation Datenauswertung/data/Drift/Drift-3, vacuum chuck activated, on 3inchwafer
Drift test with MEMS displacement of 0,5 um, displacement data in [nm] and time increments of 30s
15.09.2022 15:21:05
eoh
-0,180502	0,000000	22,270000	50,150000
-0,274224	1,000000	22,270000	50,580000
-0,407287	2,000000	22,270000	50,545000
-0,407287	3,000000	22,260000	50,530000
275,991142	4,000000	22,270000	50,515000
186,935352	5,000000	22,270000	50,505000
169,762200	6,000000	22,270000	50,305000
148,952394	7,000000	22,280000	49,990000
433,377379	8,000000	22,280000	50,305000
421,055798	9,000000	22,270000	50,465000
412,363929	10,000000	22,270000	50,425000
407,033333	11,000000	22,280000	50,410000
395,026474	12,000000	22,280000	50,410000
382,265208	13,000000	22,280000	50,385000
370,312731	14,000000	22,270000	50,385000
359,159786	15,000000	22,280000	50,400000
350,835863	16,000000	22,280000	50,370000
339,839122	17,000000	22,280000	50,345000
329,304049	18,000000	22,280000	50,370000
319,044357	19,000000	22,280000	50,320000
309,748500	20,000000	22,280000	50,335000
300,233958	21,000000	22,290000	50,300000
291,673995	22,000000	22,290000	50,340000
283,436852	23,000000	22,270000	50,335000
275,324672	24,000000	22,280000	50,335000
267,040090	25,000000	22,280000	50,305000
259,005434	26,000000	22,290000	50,300000
251,645346	27,000000	22,290000	50,285000
244,365096	28,000000	22,280000	50,255000
237,466677	29,000000	22,290000	50,270000
230,656194	30,000000	22,290000	50,245000
224,189361	31,000000	22,290000	50,260000
218,122871	32,000000	22,280000	50,255000
212,135062	33,000000	22,280000	50,265000
207,071747	34,000000	22,290000	50,230000
201,616188	35,000000	22,290000	50,205000
195,730200	36,000000	22,290000	50,245000
190,313981	37,000000	22,290000	50,220000
185,250666	38,000000	22,290000	50,220000
179,991808	39,000000	22,290000	50,190000
175,076598	40,000000	22,290000	50,165000
171,055798	41,000000	22,290000	50,205000
166,627712	42,000000	22,290000	50,165000
162,606913	43,000000	22,290000	50,180000
158,671736	44,000000	22,290000	50,155000
154,815240	45,000000	22,290000	50,155000
151,546533	46,000000	22,290000	50,155000
147,926077	47,000000	22,290000	50,130000
144,438685	48,000000	22,290000	50,115000
141,319239	49,000000	22,300000	50,140000
137,971851	50,000000	22,290000	50,130000
135,095388	51,000000	22,290000	50,130000
131,992141	52,000000	22,290000	50,100000
129,561149	53,000000	22,290000	50,090000
126,763366	54,000000	22,300000	50,100000
123,604580	55,000000	22,280000	50,085000
121,347147	56,000000	22,290000	50,060000
118,478784	57,000000	22,290000	50,090000
116,511774	58,000000	22,290000	50,050000
114,105080	59,000000	22,290000	50,075000
112,223693	60,000000	22,290000	50,035000
109,739475	61,000000	22,290000	50,020000
107,600063	62,000000	22,290000	50,050000
105,459493	63,000000	22,290000	50,035000
103,931011	64,000000	22,290000	50,035000
102,121362	65,000000	22,290000	49,995000
99,754008	66,000000	22,290000	49,995000
98,695294	67,000000	22,300000	50,020000
97,292932	68,000000	22,290000	50,020000
95,936852	69,000000	22,300000	49,995000
94,149187	70,000000	22,300000	49,980000
92,761867	71,000000	22,300000	49,995000
91,116521	72,000000	22,290000	49,995000
89,814823	73,000000	22,290000	49,955000
88,944711	74,000000	22,290000	49,955000
87,706652	75,000000	22,290000	49,930000
85,920144	76,000000	22,290000	49,930000
85,143754	77,000000	22,290000	49,955000
83,693952	78,000000	22,290000	49,915000
82,541515	79,000000	22,290000	49,915000
81,781324	80,000000	22,300000	49,915000
80,518967	81,000000	22,290000	49,945000
79,633812	82,000000	22,290000	49,915000
79,305206	83,000000	22,290000	49,915000
77,949126	84,000000	22,290000	49,930000
77,328940	85,000000	22,290000	49,915000
76,796690	86,000000	22,290000	49,905000
75,832855	87,000000	22,290000	49,875000
74,915303	88,000000	22,290000	49,865000
73,888987	89,000000	22,290000	49,875000
73,058214	90,000000	22,290000	49,825000
72,556048	91,000000	22,290000	49,825000
71,600313	92,000000	22,290000	49,840000
70,769541	93,000000	22,280000	49,820000
70,690860	94,000000	22,290000	49,825000
70,282416	95,000000	22,300000	49,800000
69,475942	96,000000	22,300000	49,840000
68,863855	97,000000	22,290000	49,825000
68,338548	98,000000	22,290000	49,800000
67,399011	99,000000	22,290000	49,785000
67,461493	100,000000	22,280000	49,795000
67,351572	101,000000	22,290000	49,770000
67,053049	102,000000	22,290000	49,785000
66,826264	103,000000	22,290000	49,770000
66,418978	104,000000	22,290000	49,770000
66,128555	105,000000	22,290000	49,760000
65,823089	106,000000	22,290000	49,745000
164,981209	107,000000	22,290000	49,770000
-9,875546	108,000000	22,280000	49,740000
265,659712	109,000000	22,280000	49,755000
264,641495	110,000000	22,290000	49,705000
264,445951	111,000000	22,280000	49,730000
263,794524	112,000000	22,290000	49,705000
263,426577	113,000000	22,280000	49,700000
262,548365	114,000000	22,290000	49,720000
262,438444	115,000000	22,290000	49,695000
261,921236	116,000000	22,280000	49,715000
261,395929	117,000000	22,290000	49,665000
261,161045	118,000000	22,280000	49,675000
260,847480	119,000000	22,280000	49,700000
260,330273	120,000000	22,280000	49,635000
260,071090	121,000000	22,290000	49,625000
259,711243	122,000000	22,290000	49,680000
259,711243	123,000000	22,290000	49,615000
260,047949	124,000000	22,290000	49,655000
260,165969	125,000000	22,280000	49,660000
260,103488	126,000000	22,280000	49,650000
259,671903	127,000000	22,280000	49,610000
259,318998	128,000000	22,290000	49,665000
259,460160	129,000000	22,290000	49,625000
259,460160	130,000000	22,280000	49,635000
259,123454	131,000000	22,290000	49,625000
258,809890	132,000000	22,290000	49,615000
259,013533	133,000000	22,280000	49,595000
259,139653	134,000000	22,280000	49,595000
259,233375	135,000000	22,280000	49,610000
259,194035	136,000000	22,280000	49,560000
258,982292	137,000000	22,280000	49,595000
259,100313	138,000000	22,290000	49,585000
259,405778	139,000000	22,280000	49,560000
259,898687	140,000000	22,280000	49,585000
260,448293	141,000000	22,290000	49,520000
259,821164	142,000000	22,280000	49,570000
259,875546	143,000000	22,280000	49,545000
259,640662	144,000000	22,280000	49,570000
259,985467	145,000000	22,280000	49,545000
260,047949	146,000000	22,280000	49,505000
260,440194	147,000000	22,280000	49,520000
260,941203	148,000000	22,280000	49,495000
261,318406	149,000000	22,280000	49,520000
260,840538	150,000000	22,280000	49,465000
261,372788	151,000000	22,280000	49,495000
261,490808	152,000000	22,280000	49,520000
261,380887	153,000000	22,270000	49,490000
261,631970	154,000000	22,280000	49,465000
261,850655	155,000000	22,280000	49,480000
261,976775	156,000000	22,280000	49,545000
262,124880	157,000000	22,280000	49,465000
262,674485	158,000000	22,280000	49,495000
262,618946	159,000000	22,280000	49,455000
262,274141	160,000000	22,270000	49,450000
263,300457	161,000000	22,280000	49,415000
262,791349	162,000000	22,280000	49,445000
263,003092	163,000000	22,280000	49,430000
263,269217	164,000000	22,280000	49,405000
263,708901	165,000000	22,270000	49,425000
264,022466	166,000000	22,280000	49,445000
263,983125	167,000000	22,280000	49,365000
264,336030	168,000000	22,270000	49,360000
264,249250	169,000000	22,270000	49,400000
264,382313	170,000000	22,280000	49,375000
264,994400	171,000000	22,280000	49,405000
266,020716	172,000000	22,270000	49,370000
269,939694	173,000000	22,270000	49,410000
271,193952	174,000000	22,270000	49,425000
270,465001	175,000000	22,270000	49,410000
272,165886	176,000000	22,270000	49,440000
274,078514	177,000000	22,270000	49,440000
274,846805	178,000000	22,270000	49,410000
276,664553	179,000000	22,260000	49,440000
275,802540	180,000000	22,270000	49,440000
275,677577	181,000000	22,270000	49,425000
277,104238	182,000000	22,270000	49,440000
278,169894	183,000000	22,270000	49,410000
279,102488	184,000000	22,260000	49,440000
280,560390	185,000000	22,260000	49,440000
282,496159	186,000000	22,260000	49,425000
283,993400	187,000000	22,280000	49,445000
286,407037	188,000000	22,280000	49,445000
288,217843	189,000000	22,280000	49,455000
290,560899	190,000000	22,260000	49,440000
294,323673	191,000000	22,280000	49,480000
296,815990	192,000000	22,270000	49,515000
297,740484	193,000000	22,270000	49,505000
298,516875	194,000000	22,270000	49,515000
299,191443	195,000000	22,260000	49,515000
300,790507	196,000000	22,270000	49,505000
301,299615	197,000000	22,270000	49,515000
301,385238	198,000000	22,270000	49,505000
301,345898	199,000000	22,260000	49,490000
302,412711	200,000000	22,260000	49,480000
302,568915	201,000000	22,270000	49,465000
301,738142	202,000000	22,270000	49,505000
302,530732	203,000000	22,270000	49,490000
302,898678	204,000000	22,260000	49,480000
303,540849	205,000000	22,270000	49,480000
302,851239	206,000000	22,270000	49,465000
302,851239	207,000000	22,280000	49,455000
302,240308	208,000000	22,260000	49,450000
302,310889	209,000000	22,270000	49,465000
302,318989	210,000000	22,260000	49,480000
301,926744	211,000000	22,270000	49,440000
300,068498	212,000000	22,270000	49,440000
299,763033	213,000000	22,270000	49,425000
299,787332	214,000000	22,270000	49,465000
299,856755	215,000000	22,260000	49,440000
299,308307	216,000000	22,270000	49,425000
299,708651	217,000000	22,270000	49,425000
299,183344	218,000000	22,270000	49,425000
298,909120	219,000000	22,260000	49,410000
299,237726	220,000000	22,260000	49,400000
299,324506	221,000000	22,260000	49,425000
299,120862	222,000000	22,270000	49,385000
298,541173	223,000000	22,270000	49,370000
298,352571	224,000000	22,260000	49,410000
298,533074	225,000000	22,260000	49,400000
297,208235	226,000000	22,270000	49,410000
297,592380	227,000000	22,260000	49,410000
299,237726	228,000000	22,260000	49,385000
298,799198	229,000000	22,250000	49,370000
298,273891	230,000000	22,260000	49,370000
298,705476	231,000000	22,270000	49,400000
298,329430	232,000000	22,260000	49,370000
297,498658	233,000000	22,260000	49,345000
296,832189	234,000000	22,260000	49,385000
296,487383	235,000000	22,260000	49,345000
296,980293	236,000000	22,250000	49,345000
295,914636	237,000000	22,250000	49,360000
295,318748	238,000000	22,250000	49,345000
295,820914	239,000000	22,250000	49,370000
296,063898	240,000000	22,250000	49,370000
295,107005	241,000000	22,250000	49,360000
294,927660	242,000000	22,250000	49,385000
294,699719	243,000000	22,260000	49,345000
294,088789	244,000000	22,250000	49,345000
294,935760	245,000000	22,250000	49,345000
294,026307	246,000000	22,250000	49,360000
293,877046	247,000000	22,240000	49,325000
293,304299	248,000000	22,240000	49,365000
293,681502	249,000000	22,250000	49,345000
293,422319	250,000000	22,230000	49,365000
292,865771	251,000000	22,250000	49,370000
292,998834	252,000000	22,230000	49,355000
292,803290	253,000000	22,250000	49,330000
292,614688	254,000000	22,240000	49,325000
293,226775	255,000000	22,250000	49,360000
294,386154	256,000000	22,240000	49,325000
294,566656	257,000000	22,240000	49,325000
294,653436	258,000000	22,240000	49,325000
295,279408	259,000000	22,240000	49,340000
295,875296	260,000000	22,230000	49,355000
295,530491	261,000000	22,230000	49,315000
296,290682	262,000000	22,240000	49,325000
297,145753	263,000000	22,230000	49,340000
298,148928	264,000000	22,240000	49,340000
297,897845	265,000000	22,230000	49,355000
298,203310	266,000000	22,230000	49,315000
298,713576	267,000000	22,230000	49,300000
299,073423	268,000000	22,230000	49,325000
299,245825	269,000000	22,220000	49,340000
299,457568	270,000000	22,230000	49,315000
299,990975	271,000000	22,230000	49,315000
301,800624	272,000000	22,230000	49,300000
301,581939	273,000000	22,220000	49,325000
301,715001	274,000000	22,230000	49,315000
302,670736	275,000000	22,220000	49,340000
302,938018	276,000000	22,220000	49,315000
303,008599	277,000000	22,230000	49,325000
303,713252	278,000000	22,220000	49,355000
304,780065	279,000000	22,230000	49,340000
305,477775	280,000000	22,220000	49,315000
305,885062	281,000000	22,220000	49,355000
306,551531	282,000000	22,220000	49,300000
306,495992	283,000000	22,210000	49,335000
306,863938	284,000000	22,210000	49,320000
308,165636	285,000000	22,220000	49,325000
308,761524	286,000000	22,220000	49,325000
310,469352	287,000000	22,200000	49,295000
310,956476	288,000000	22,200000	49,320000
311,457485	289,000000	22,210000	49,320000
312,053373	290,000000	22,220000	49,340000
312,836706	291,000000	22,200000	49,320000
313,135228	292,000000	22,200000	49,335000
313,519374	293,000000	22,210000	49,335000
314,506350	294,000000	22,200000	49,350000
314,709993	295,000000	22,210000	49,335000
316,090371	296,000000	22,200000	49,335000
317,289090	297,000000	22,210000	49,360000
318,182344	298,000000	22,200000	49,335000
318,479710	299,000000	22,200000	49,295000
320,016291	300,000000	22,200000	49,320000
321,748417	301,000000	22,210000	49,350000
322,728451	302,000000	22,200000	49,310000
322,572247	303,000000	22,200000	49,335000
323,214418	304,000000	22,190000	49,320000
323,997751	305,000000	22,200000	49,310000
324,993983	306,000000	22,200000	49,335000
325,910378	307,000000	22,190000	49,350000
327,164636	308,000000	22,200000	49,295000
327,909786	309,000000	22,200000	49,335000
329,367687	310,000000	22,200000	49,350000
329,507692	311,000000	22,200000	49,320000
330,558307	312,000000	22,200000	49,335000
331,891245	313,000000	22,200000	49,320000
332,643337	314,000000	22,200000	49,350000
332,502175	315,000000	22,200000	49,335000
333,928836	316,000000	22,190000	49,350000
334,297939	317,000000	22,190000	49,350000
334,900770	318,000000	22,190000	49,320000
335,660962	319,000000	22,180000	49,360000
337,322506	320,000000	22,190000	49,335000
337,691610	321,000000	22,190000	49,375000
338,960910	322,000000	22,190000	49,360000
340,057807	323,000000	22,190000	49,375000
340,865438	324,000000	22,180000	49,335000
342,315240	325,000000	22,180000	49,335000
342,840547	326,000000	22,190000	49,350000
343,789340	327,000000	22,180000	49,320000
344,620113	328,000000	22,180000	49,335000
345,380304	329,000000	22,190000	49,335000
345,928753	330,000000	22,180000	49,320000
346,281657	331,000000	22,180000	49,335000
346,705143	332,000000	22,180000	49,335000
347,723360	333,000000	22,180000	49,350000
349,635987	334,000000	22,180000	49,350000
350,177494	335,000000	22,180000	49,350000
351,305632	336,000000	22,180000	49,390000
351,587955	337,000000	22,180000	49,375000
352,630471	338,000000	22,180000	49,360000
353,500583	339,000000	22,180000	49,335000
353,280741	340,000000	22,180000	49,390000
354,456318	341,000000	22,180000	49,375000
356,119020	342,000000	22,170000	49,370000
356,886154	343,000000	22,180000	49,375000
356,761191	344,000000	22,170000	49,385000
358,657620	345,000000	22,170000	49,370000
358,994326	346,000000	22,170000	49,355000
359,903779	347,000000	22,170000	49,385000
361,142995	348,000000	22,170000	49,370000
362,796440	349,000000	22,170000	49,370000
362,584697	350,000000	22,150000	49,395000
363,924578	351,000000	22,160000	49,355000
365,633562	352,000000	22,170000	49,385000
366,268791	353,000000	22,160000	49,395000
366,871621	354,000000	22,160000	49,395000
368,447543	355,000000	22,160000	49,385000
369,465760	356,000000	22,160000	49,355000
371,081022	357,000000	22,150000	49,370000
371,535749	358,000000	22,170000	49,395000
372,177920	359,000000	22,150000	49,395000
373,698302	360,000000	22,150000	49,385000
374,356672	361,000000	22,160000	49,385000
374,921320	362,000000	22,160000	49,385000
375,446627	363,000000	22,150000	49,370000
377,429836	364,000000	22,150000	49,395000
379,114522	365,000000	22,150000	49,395000
380,533083	366,000000	22,150000	49,395000
381,442536	367,000000	22,160000	49,385000
382,227025	368,000000	22,150000	49,355000
383,386404	369,000000	22,150000	49,385000
383,222101	370,000000	22,150000	49,425000
384,476359	371,000000	22,150000	49,370000
384,829264	372,000000	22,150000	49,355000
385,064148	373,000000	22,150000	49,370000
386,937435	374,000000	22,140000	49,380000
386,850655	375,000000	22,150000	49,395000
387,658286	376,000000	22,140000	49,380000
388,857005	377,000000	22,140000	49,390000
388,943785	378,000000	22,140000	49,390000
390,048782	379,000000	22,140000	49,365000
392,283074	380,000000	22,140000	49,380000
393,301290	381,000000	22,140000	49,380000
394,783490	382,000000	22,150000	49,370000
395,300698	383,000000	22,140000	49,365000
396,115271	384,000000	22,140000	49,380000
396,860421	385,000000	22,140000	49,390000
397,832355	386,000000	22,140000	49,380000
399,674402	387,000000	22,140000	49,380000
399,853747	388,000000	22,140000	49,380000
401,092963	389,000000	22,140000	49,365000
401,367187	390,000000	22,130000	49,390000
401,523391	391,000000	22,140000	49,380000
402,002416	392,000000	22,140000	49,390000
402,872529	393,000000	22,140000	49,380000
403,663961	394,000000	22,140000	49,390000
405,278066	395,000000	22,140000	49,350000
406,030158	396,000000	22,140000	49,390000
407,402436	397,000000	22,130000	49,365000
407,558640	398,000000	22,140000	49,350000
409,518707	399,000000	22,140000	49,405000
410,177077	400,000000	22,130000	49,380000
410,991651	401,000000	22,140000	49,390000
411,618780	402,000000	22,130000	49,365000
413,406444	403,000000	22,130000	49,365000
414,104154	404,000000	22,140000	49,380000
414,409619	405,000000	22,140000	49,380000
414,488300	406,000000	22,130000	49,380000
416,486550	407,000000	22,130000	49,405000
416,815157	408,000000	22,130000	49,350000
417,481626	409,000000	22,130000	49,380000
418,297356	410,000000	22,130000	49,390000
419,786498	411,000000	22,110000	49,360000
421,259442	412,000000	22,130000	49,380000
422,544940	413,000000	22,130000	49,380000
423,007766	414,000000	22,130000	49,350000
423,564314	415,000000	22,120000	49,380000
423,705476	416,000000	22,130000	49,365000
424,293265	417,000000	22,120000	49,405000
424,363846	418,000000	22,120000	49,365000
424,551290	419,000000	22,110000	49,360000
426,252175	420,000000	22,120000	49,390000
426,691860	421,000000	22,110000	49,375000
427,224110	422,000000	22,120000	49,380000
427,929919	423,000000	22,110000	49,385000
428,384645	424,000000	22,110000	49,375000
428,847471	425,000000	22,120000	49,365000
429,505841	426,000000	22,110000	49,345000
431,151187	427,000000	22,110000	49,385000
431,730876	428,000000	22,120000	49,350000
431,911378	429,000000	22,120000	49,380000
432,663470	430,000000	22,120000	49,390000
433,157537	431,000000	22,110000	49,375000
434,200052	432,000000	22,110000	49,375000
434,709160	433,000000	22,110000	49,385000
435,548032	434,000000	22,110000	49,345000
437,476859	435,000000	22,110000	49,400000
437,954726	436,000000	22,110000	49,375000
438,706818	437,000000	22,110000	49,375000
439,020383	438,000000	22,110000	49,345000
440,556965	439,000000	22,110000	49,305000
441,944285	440,000000	22,110000	49,385000
442,108588	441,000000	22,110000	49,375000
442,822497	442,000000	22,110000	49,345000
443,707651	443,000000	22,100000	49,345000
444,451644	444,000000	22,100000	49,360000
445,244233	445,000000	22,100000	49,385000
445,181752	446,000000	22,100000	49,375000
446,004425	447,000000	22,100000	49,360000
447,689111	448,000000	22,100000	49,375000
447,273724	449,000000	22,110000	49,385000
448,025816	450,000000	22,100000	49,375000
448,324339	451,000000	22,100000	49,385000
449,311315	452,000000	22,110000	49,385000
449,719759	453,000000	22,100000	49,385000
451,012200	454,000000	22,090000	49,335000
451,279482	455,000000	22,100000	49,385000
452,494400	456,000000	22,100000	49,375000
452,337039	457,000000	22,100000	49,360000
454,265866	458,000000	22,110000	49,375000
454,853654	459,000000	22,100000	49,375000
455,738809	460,000000	22,090000	49,335000
456,733884	461,000000	22,090000	49,360000
456,600822	462,000000	22,090000	49,385000
457,628295	463,000000	22,100000	49,400000
457,988142	464,000000	22,090000	49,360000
458,764533	465,000000	22,100000	49,375000
459,203060	466,000000	22,090000	49,345000
460,301114	467,000000	22,100000	49,360000
461,381813	468,000000	22,080000	49,385000
461,962659	469,000000	22,080000	49,360000
463,404362	470,000000	22,090000	49,375000
464,627379	471,000000	22,100000	49,360000
464,305715	472,000000	22,080000	49,345000
464,596138	473,000000	22,090000	49,360000
465,732376	474,000000	22,100000	49,375000
467,252758	475,000000	22,090000	49,345000
466,994733	476,000000	22,100000	49,375000
467,605663	477,000000	22,090000	49,345000
468,106672	478,000000	22,090000	49,360000
470,114179	479,000000	22,090000	49,360000
470,685769	480,000000	22,080000	49,385000
470,741308	481,000000	22,080000	49,345000
471,375380	482,000000	22,090000	49,360000
472,386654	483,000000	22,090000	49,375000
473,412970	484,000000	22,080000	49,375000
474,824589	485,000000	22,080000	49,400000
475,098813	486,000000	22,080000	49,360000
475,113855	487,000000	22,080000	49,375000
475,302457	488,000000	22,080000	49,360000
475,396179	489,000000	22,080000	49,375000
475,890245	490,000000	22,080000	49,345000
475,960826	491,000000	22,080000	49,345000
476,133229	492,000000	22,080000	49,345000
476,964001	493,000000	22,080000	49,385000
478,218259	494,000000	22,080000	49,385000
478,484384	495,000000	22,080000	49,360000
478,766708	496,000000	22,070000	49,380000
479,684260	497,000000	22,080000	49,385000
480,357672	498,000000	22,080000	49,385000
482,035415	499,000000	22,080000	49,375000
483,023549	500,000000	22,080000	49,385000
482,467001	501,000000	22,070000	49,370000
483,524558	502,000000	22,070000	49,380000
484,652695	503,000000	22,080000	49,345000
485,256683	504,000000	22,080000	49,360000
485,468426	505,000000	22,080000	49,345000
486,409120	506,000000	22,080000	49,360000
486,808307	507,000000	22,070000	49,380000
487,169311	508,000000	22,070000	49,370000
487,466677	509,000000	22,080000	49,360000
488,211826	510,000000	22,070000	49,395000
488,101905	511,000000	22,070000	49,340000
488,525391	512,000000	22,080000	49,335000
489,873371	513,000000	22,080000	49,360000
490,994566	514,000000	22,060000	49,340000
492,208327	515,000000	22,060000	49,380000
492,718593	516,000000	22,070000	49,370000
492,820414	517,000000	22,070000	49,355000
493,431344	518,000000	22,060000	49,395000
494,396336	519,000000	22,060000	49,370000
495,595055	520,000000	22,060000	49,330000
494,826764	521,000000	22,070000	49,380000
495,007266	522,000000	22,070000	49,395000
495,987300	523,000000	22,070000	49,370000
497,923069	524,000000	22,060000	49,355000
498,660119	525,000000	22,060000	49,355000
498,738800	526,000000	22,060000	49,380000
499,600813	527,000000	22,060000	49,340000
501,026316	528,000000	22,060000	49,315000
501,865188	529,000000	22,060000	49,340000
502,359255	530,000000	22,060000	49,370000
502,845222	531,000000	22,070000	49,355000
503,511691	532,000000	22,060000	49,355000
503,503592	533,000000	22,070000	49,380000
503,746575	534,000000	22,060000	49,330000
505,596721	535,000000	22,060000	49,370000
505,925328	536,000000	22,060000	49,370000
505,682344	537,000000	22,060000	49,370000
505,298199	538,000000	22,070000	49,340000
505,784166	539,000000	22,060000	49,370000
506,772299	540,000000	22,060000	49,355000
507,461909	541,000000	22,060000	49,355000
507,979117	542,000000	22,060000	49,340000
507,923578	543,000000	22,050000	49,340000
509,169737	544,000000	22,060000	49,340000
509,092213	545,000000	22,060000	49,340000
509,217176	546,000000	22,050000	49,340000
510,643837	547,000000	22,060000	49,355000
510,784999	548,000000	22,050000	49,315000
513,003092	549,000000	22,060000	49,340000
513,426577	550,000000	22,060000	49,355000
513,669561	551,000000	22,060000	49,330000
513,614022	552,000000	22,060000	49,355000
514,319831	553,000000	22,050000	49,330000
515,198043	554,000000	22,060000	49,340000
515,864512	555,000000	22,060000	49,355000
516,051957	556,000000	22,050000	49,315000
515,981376	557,000000	22,060000	49,355000
517,424235	558,000000	22,060000	49,370000
517,792182	559,000000	22,060000	49,330000
518,238809	560,000000	22,060000	49,355000
517,800281	561,000000	22,060000	49,355000
519,023299	562,000000	22,060000	49,355000
519,438685	563,000000	22,050000	49,370000
520,136395	564,000000	22,050000	49,355000
519,790432	565,000000	22,050000	49,355000
521,029649	566,000000	22,050000	49,330000
521,648678	567,000000	22,050000	49,330000
521,694961	568,000000	22,050000	49,355000
521,836123	569,000000	22,060000	49,340000
522,338289	570,000000	22,050000	49,355000
523,067239	571,000000	22,050000	49,355000
523,983634	572,000000	22,050000	49,340000
524,909286	573,000000	22,050000	49,330000
525,262191	574,000000	22,060000	49,355000
525,403353	575,000000	22,060000	49,340000
525,810639	576,000000	22,040000	49,335000
526,845055	577,000000	22,050000	49,290000
528,051874	578,000000	22,050000	49,340000
528,240475	579,000000	22,050000	49,330000
528,452218	580,000000	22,050000	49,340000
529,282990	581,000000	22,050000	49,340000
529,532916	582,000000	22,050000	49,315000
529,682178	583,000000	22,050000	49,330000
530,466667	584,000000	22,040000	49,325000
530,873954	585,000000	22,040000	49,325000
531,030158	586,000000	22,040000	49,335000
532,315656	587,000000	22,040000	49,310000
532,496159	588,000000	22,030000	49,325000
533,491234	589,000000	22,040000	49,335000
533,303790	590,000000	22,040000	49,335000
533,217010	591,000000	22,030000	49,325000
533,295690	592,000000	22,040000	49,335000
533,405611	593,000000	22,040000	49,325000
533,844139	594,000000	22,040000	49,310000
534,533749	595,000000	22,050000	49,315000
535,850489	596,000000	22,050000	49,340000
535,906028	597,000000	22,040000	49,350000
536,508858	598,000000	22,040000	49,325000
537,378971	599,000000	22,040000	49,365000
537,731876	600,000000	22,050000	49,315000
538,147262	601,000000	22,040000	49,325000
538,774391	602,000000	22,040000	49,335000
539,495242	603,000000	22,030000	49,335000
540,836280	604,000000	22,030000	49,350000
540,811982	605,000000	22,050000	49,315000
541,306048	606,000000	22,040000	49,325000
541,948219	607,000000	22,040000	49,310000
541,690194	608,000000	22,030000	49,295000
542,865771	609,000000	22,030000	49,310000
543,399178	610,000000	22,040000	49,325000
543,264959	611,000000	22,040000	49,310000
543,602821	612,000000	22,030000	49,310000
543,759025	613,000000	22,030000	49,295000
543,978867	614,000000	22,030000	49,325000
543,806465	615,000000	22,040000	49,310000
545,507350	616,000000	22,030000	49,335000
545,546690	617,000000	22,030000	49,325000
546,346221	618,000000	22,030000	49,335000
546,032657	619,000000	22,030000	49,310000
547,607422	620,000000	22,030000	49,350000
548,039007	621,000000	22,030000	49,310000
549,544348	622,000000	22,030000	49,335000
548,917219	623,000000	22,030000	49,310000
548,203310	624,000000	22,030000	49,310000
550,139079	625,000000	22,030000	49,350000
550,633146	626,000000	22,030000	49,335000
550,649345	627,000000	22,030000	49,325000
550,828690	628,000000	22,030000	49,325000
550,296440	629,000000	22,030000	49,310000
551,033490	630,000000	22,030000	49,270000
552,600156	631,000000	22,030000	49,310000
553,015542	632,000000	22,030000	49,325000
553,565147	633,000000	22,030000	49,335000
553,282824	634,000000	22,030000	49,295000
553,650770	635,000000	22,030000	49,325000
554,128638	636,000000	22,030000	49,295000
555,069331	637,000000	22,030000	49,325000
555,939444	638,000000	22,030000	49,295000
556,174328	639,000000	22,030000	49,325000
555,806381	640,000000	22,030000	49,285000
556,331689	641,000000	22,030000	49,310000
556,699635	642,000000	22,030000	49,310000
556,433510	643,000000	22,020000	49,310000
557,585947	644,000000	22,030000	49,310000
558,134395	645,000000	22,020000	49,325000
558,933927	646,000000	22,030000	49,310000
559,567998	647,000000	22,030000	49,310000
559,270633	648,000000	22,030000	49,285000
560,501749	649,000000	22,030000	49,285000
560,423069	650,000000	22,020000	49,325000
560,885895	651,000000	22,030000	49,285000
561,457485	652,000000	22,030000	49,295000
560,924078	653,000000	22,030000	49,325000
561,519966	654,000000	22,030000	49,295000
561,629887	655,000000	22,020000	49,295000
562,248917	656,000000	22,030000	49,325000
562,038331	657,000000	22,030000	49,285000
563,338872	658,000000	22,020000	49,295000
563,934760	659,000000	22,030000	49,285000
564,373288	660,000000	22,020000	49,285000
564,467010	661,000000	22,020000	49,295000
565,289683	662,000000	22,020000	49,285000
565,447043	663,000000	22,020000	49,295000
565,415803	664,000000	22,030000	49,285000
565,289683	665,000000	22,020000	49,285000
565,972351	666,000000	22,030000	49,295000
566,167895	667,000000	22,030000	49,260000
567,532074	668,000000	22,020000	49,295000
567,720675	669,000000	22,020000	49,270000
568,379045	670,000000	22,030000	49,295000
568,660212	671,000000	22,020000	49,310000
569,334780	672,000000	22,020000	49,310000
569,146179	673,000000	22,020000	49,260000
569,216760	674,000000	22,020000	49,285000
570,165553	675,000000	22,020000	49,285000
571,537831	676,000000	22,020000	49,310000
571,858338	677,000000	22,020000	49,285000
573,238716	678,000000	22,020000	49,285000
573,912128	679,000000	22,020000	49,285000
573,559223	680,000000	22,020000	49,310000
572,994576	681,000000	22,010000	49,290000
572,956393	682,000000	22,020000	49,285000
572,940194	683,000000	22,010000	49,290000
572,900853	684,000000	22,020000	49,285000
573,191277	685,000000	22,010000	49,290000
573,779065	686,000000	22,010000	49,280000
575,542432	687,000000	22,010000	49,280000
574,962743	688,000000	22,020000	49,310000
574,554299	689,000000	22,030000	49,260000
575,079606	690,000000	22,020000	49,270000
575,393171	691,000000	22,010000	49,280000
575,613013	692,000000	22,010000	49,265000
575,831698	693,000000	22,020000	49,285000
576,208901	694,000000	22,010000	49,265000
576,153362	695,000000	22,010000	49,255000
576,639329	696,000000	22,010000	49,265000
577,164636	697,000000	22,020000	49,310000
577,227118	698,000000	22,020000	49,295000
578,410795	699,000000	22,020000	49,270000
579,774974	700,000000	22,020000	49,270000
579,806215	701,000000	22,010000	49,280000
579,656953	702,000000	22,010000	49,265000
579,791173	703,000000	22,010000	49,280000
580,159120	704,000000	22,020000	49,260000
580,385904	705,000000	22,010000	49,280000
581,131054	706,000000	22,010000	49,280000
582,071747	707,000000	22,010000	49,255000
582,925661	708,000000	22,010000	49,265000
582,361013	709,000000	22,010000	49,255000
583,795773	710,000000	22,010000	49,230000
584,807048	711,000000	22,010000	49,265000
585,135654	712,000000	22,010000	49,265000
585,081272	713,000000	22,010000	49,240000
585,293015	714,000000	22,010000	49,265000
585,230534	715,000000	22,010000	49,265000
586,389912	716,000000	22,010000	49,265000
586,946460	717,000000	22,010000	49,255000
587,143161	718,000000	22,010000	49,255000
587,448626	719,000000	22,010000	49,255000
588,036415	720,000000	22,010000	49,255000
587,558547	721,000000	22,010000	49,240000
587,494909	722,000000	22,000000	49,255000
588,333781	723,000000	22,010000	49,240000
588,882229	724,000000	22,010000	49,265000
588,702884	725,000000	22,010000	49,240000
588,937768	726,000000	22,010000	49,255000
589,862263	727,000000	22,000000	49,240000
590,034666	728,000000	22,010000	49,240000
590,410712	729,000000	22,010000	49,255000
591,413887	730,000000	22,000000	49,200000
590,819155	731,000000	22,010000	49,215000
590,904778	732,000000	22,010000	49,255000
590,960317	733,000000	22,010000	49,190000
590,991558	734,000000	22,010000	49,215000
592,786165	735,000000	22,000000	49,240000
592,911128	736,000000	22,000000	49,230000
592,307140	737,000000	22,010000	49,240000
592,942369	738,000000	22,010000	49,230000
593,750000	739,000000	22,000000	49,215000
593,154112	740,000000	22,010000	49,200000
593,397095	741,000000	22,000000	49,215000
593,796283	742,000000	22,010000	49,240000
594,572673	743,000000	22,000000	49,215000
594,846897	744,000000	22,000000	49,240000
594,666395	745,000000	22,010000	49,200000
594,917478	746,000000	22,010000	49,190000
595,905611	747,000000	22,010000	49,215000
596,485301	748,000000	22,010000	49,175000
596,069914	749,000000	22,010000	49,215000
596,414720	750,000000	22,000000	49,175000
596,649604	751,000000	22,010000	49,215000
596,775724	752,000000	22,000000	49,215000
596,437861	753,000000	22,010000	49,200000
597,770799	754,000000	22,010000	49,200000
597,379712	755,000000	22,010000	49,190000
597,598397	756,000000	22,000000	49,190000
597,810140	757,000000	22,000000	49,190000
597,512774	758,000000	22,000000	49,200000
598,578430	759,000000	22,000000	49,175000
599,911369	760,000000	22,010000	49,200000
599,816490	761,000000	22,010000	49,215000
599,424245	762,000000	22,010000	49,175000
599,903269	763,000000	22,010000	49,200000
599,972693	764,000000	22,000000	49,175000
599,808390	765,000000	22,000000	49,160000
600,742141	766,000000	22,000000	49,160000
600,780324	767,000000	22,010000	49,200000
600,396179	768,000000	22,010000	49,200000
600,169394	769,000000	22,000000	49,175000
600,686602	770,000000	22,000000	49,215000
600,310556	771,000000	21,990000	49,230000
600,381137	772,000000	22,000000	49,190000
600,937685	773,000000	22,000000	49,160000
602,395586	774,000000	22,000000	49,175000
602,630471	775,000000	22,010000	49,175000
602,755434	776,000000	21,990000	49,200000
603,124537	777,000000	21,990000	49,190000
603,320081	778,000000	22,000000	49,200000
603,257600	779,000000	22,000000	49,160000
603,829189	780,000000	21,990000	49,150000
604,935343	781,000000	22,000000	49,160000
605,350729	782,000000	21,990000	49,175000
604,699302	783,000000	22,000000	49,150000
605,004767	784,000000	22,000000	49,160000
604,848563	785,000000	22,000000	49,160000
605,209568	786,000000	22,010000	49,160000
606,048439	787,000000	22,000000	49,150000
607,764366	788,000000	21,990000	49,175000
608,187852	789,000000	22,000000	49,175000
607,152279	790,000000	21,990000	49,160000
607,473943	791,000000	22,000000	49,175000
607,756267	792,000000	21,990000	49,160000
607,623204	793,000000	21,990000	49,135000
608,470176	794,000000	22,000000	49,160000
609,755674	795,000000	21,980000	49,175000
609,442110	796,000000	21,990000	49,135000
609,064907	797,000000	22,000000	49,175000
609,018624	798,000000	21,990000	49,150000
608,821923	799,000000	22,000000	49,120000
609,434010	800,000000	22,000000	49,160000
610,445285	801,000000	21,990000	49,135000
610,053040	802,000000	21,990000	49,135000
609,959318	803,000000	21,990000	49,120000
609,951218	804,000000	21,990000	49,150000
611,236717	805,000000	21,990000	49,135000
611,706485	806,000000	21,990000	49,135000
611,550281	807,000000	22,000000	49,150000
611,456559	808,000000	22,000000	49,135000
612,011950	809,000000	21,990000	49,120000
612,663378	810,000000	21,990000	49,135000
612,968843	811,000000	21,990000	49,110000
613,023225	812,000000	21,990000	49,135000
613,046366	813,000000	21,990000	49,120000
613,705893	814,000000	21,990000	49,135000
614,614188	815,000000	21,990000	49,110000
615,547939	816,000000	22,000000	49,095000
615,195035	817,000000	21,990000	49,110000
615,257516	818,000000	21,990000	49,120000
615,186935	819,000000	21,980000	49,150000
615,444961	820,000000	21,990000	49,110000
615,241317	821,000000	21,990000	49,110000
615,939027	822,000000	21,980000	49,095000
616,175068	823,000000	21,990000	49,120000
616,150770	824,000000	21,980000	49,135000
616,441193	825,000000	21,990000	49,095000
617,467510	826,000000	21,990000	49,080000
617,851655	827,000000	21,990000	49,135000
618,125879	828,000000	21,980000	49,120000
618,094639	829,000000	21,990000	49,095000
618,212659	830,000000	21,980000	49,120000
618,737967	831,000000	21,990000	49,110000
619,380137	832,000000	21,990000	49,080000
618,807390	833,000000	21,990000	49,095000
618,486884	834,000000	21,990000	49,095000
618,619946	835,000000	21,990000	49,110000
618,619946	836,000000	21,990000	49,110000
618,815490	837,000000	21,990000	49,095000
620,202810	838,000000	21,990000	49,135000
620,438851	839,000000	21,990000	49,095000
620,438851	840,000000	21,980000	49,095000
620,375213	841,000000	21,980000	49,110000
620,869279	842,000000	22,000000	49,095000
620,273391	843,000000	21,990000	49,095000
620,281491	844,000000	21,990000	49,095000
620,532574	845,000000	21,990000	49,055000
620,751259	846,000000	21,980000	49,030000
621,566989	847,000000	21,990000	49,095000
622,507683	848,000000	21,990000	49,055000
622,225359	849,000000	21,990000	49,095000
622,970509	850,000000	21,980000	49,070000
622,899928	851,000000	21,990000	49,080000
623,683261	852,000000	21,980000	49,080000
624,067406	853,000000	21,990000	49,095000
624,420311	854,000000	21,980000	49,095000
625,587789	855,000000	21,990000	49,110000
625,768291	856,000000	21,980000	49,080000
626,206818	857,000000	21,980000	49,070000
626,129295	858,000000	21,980000	49,095000
626,238059	859,000000	21,980000	49,070000
627,562898	860,000000	21,980000	49,070000
627,390495	861,000000	21,980000	49,070000
627,328014	862,000000	21,980000	49,045000
627,570997	863,000000	21,980000	49,070000
627,531657	864,000000	21,980000	49,080000
627,116271	865,000000	21,980000	49,080000
627,523558	866,000000	21,980000	49,095000
627,554799	867,000000	21,980000	49,070000
627,720259	868,000000	21,980000	49,070000
627,476118	869,000000	21,980000	49,080000
627,978284	870,000000	21,980000	49,070000
627,680919	871,000000	21,980000	49,080000
627,743400	872,000000	21,980000	49,070000
627,955143	873,000000	21,990000	49,045000
628,323089	874,000000	21,980000	49,045000
628,260608	875,000000	21,980000	49,080000
629,365605	876,000000	21,980000	49,070000
629,554206	877,000000	21,980000	49,045000
629,263783	878,000000	21,980000	49,045000
629,436186	879,000000	21,990000	49,070000
630,470601	880,000000	21,980000	49,070000
630,462502	881,000000	21,980000	49,045000
630,627962	882,000000	21,980000	49,055000
629,836530	883,000000	21,980000	49,045000
631,568656	884,000000	21,980000	49,045000
632,266366	885,000000	21,980000	49,045000
631,897262	886,000000	21,980000	49,015000
632,320748	887,000000	21,980000	49,030000
632,586872	888,000000	21,980000	49,015000
632,798615	889,000000	21,980000	49,030000
632,634312	890,000000	21,980000	49,015000
633,817989	891,000000	21,980000	49,030000
636,216584	892,000000	21,980000	49,005000
635,698219	893,000000	21,980000	49,005000
636,137904	894,000000	21,980000	49,005000
635,949302	895,000000	21,980000	49,015000
635,643837	896,000000	21,980000	49,005000
635,550115	897,000000	21,980000	49,005000
635,894920	898,000000	21,980000	49,015000
635,918061	899,000000	21,980000	48,990000
635,542015	900,000000	21,980000	48,975000
635,533916	901,000000	21,980000	49,005000
635,863679	902,000000	21,980000	49,030000
635,400853	903,000000	21,980000	48,975000
636,169144	904,000000	21,980000	49,005000
636,262867	905,000000	21,980000	49,005000
636,404028	906,000000	21,980000	49,030000
635,824339	907,000000	21,990000	49,005000
636,412128	908,000000	21,980000	48,975000
637,031157	909,000000	21,980000	49,030000
637,375963	910,000000	21,980000	48,990000
637,392162	911,000000	21,980000	49,005000
637,266042	912,000000	21,980000	48,990000
636,889996	913,000000	21,980000	48,975000
637,572664	914,000000	21,980000	48,965000
637,023058	915,000000	21,980000	48,965000
637,054299	916,000000	21,980000	49,005000
637,109838	917,000000	21,980000	49,005000
637,853830	918,000000	21,980000	48,990000
637,101738	919,000000	21,980000	48,975000
637,924411	920,000000	21,980000	49,005000
639,319831	921,000000	21,980000	48,990000
638,669561	922,000000	21,980000	48,975000
638,081772	923,000000	21,980000	48,990000
638,081772	924,000000	21,980000	48,965000
638,034332	925,000000	21,980000	48,975000
637,979950	926,000000	21,980000	48,990000
637,618946	927,000000	21,980000	48,990000
637,838789	928,000000	21,980000	48,965000
639,053706	929,000000	21,980000	48,950000
639,531574	930,000000	21,970000	48,985000
639,319831	931,000000	21,980000	48,975000
639,797699	932,000000	21,980000	48,950000
639,853238	933,000000	21,990000	48,950000
639,585956	934,000000	21,980000	48,975000
639,406611	935,000000	21,980000	48,935000
639,688935	936,000000	21,980000	48,965000
640,033740	937,000000	21,980000	48,965000
639,554715	938,000000	21,980000	48,965000
639,766458	939,000000	21,980000	48,950000
640,096221	940,000000	21,980000	48,925000
640,378545	941,000000	21,970000	48,930000
639,695877	942,000000	21,980000	48,965000
639,915719	943,000000	21,980000	48,965000
639,884479	944,000000	21,980000	48,965000
639,758359	945,000000	21,980000	48,935000
640,017541	946,000000	21,980000	48,950000
640,206143	947,000000	21,980000	48,965000
641,240558	948,000000	21,970000	48,945000
640,613429	949,000000	21,970000	48,930000
640,597230	950,000000	21,980000	48,935000
639,821997	951,000000	21,980000	48,925000
640,119363	952,000000	21,980000	48,935000
641,138737	953,000000	21,980000	48,950000
642,470518	954,000000	21,980000	48,935000
642,642921	955,000000	21,970000	48,920000
643,120788	956,000000	21,980000	48,935000
643,286249	957,000000	21,970000	48,905000
643,874037	958,000000	21,980000	48,895000
643,959660	959,000000	21,980000	48,935000
644,133220	960,000000	21,980000	48,925000
643,473693	961,000000	21,970000	48,920000
643,340631	962,000000	21,970000	48,905000
644,266282	963,000000	21,980000	48,910000
644,524308	964,000000	21,980000	48,885000
643,967760	965,000000	21,980000	48,910000
643,756017	966,000000	21,970000	48,890000
644,688611	967,000000	21,980000	48,910000
644,140162	968,000000	21,980000	48,925000
643,990901	969,000000	21,980000	48,925000
644,712909	970,000000	21,980000	48,910000
644,548606	971,000000	21,980000	48,860000
644,007100	972,000000	21,980000	48,910000
644,618030	973,000000	21,980000	48,910000
644,038340	974,000000	21,970000	48,880000
643,552373	975,000000	21,980000	48,895000
643,874037	976,000000	21,980000	48,910000
644,194544	977,000000	21,970000	48,920000
643,278149	978,000000	21,980000	48,870000
643,944618	979,000000	21,980000	48,910000
644,030241	980,000000	21,980000	48,895000
644,148262	981,000000	21,970000	48,880000
643,678493	982,000000	21,980000	48,895000
643,709734	983,000000	21,980000	48,895000
644,366947	984,000000	21,980000	48,885000
644,657370	985,000000	21,970000	48,890000
645,237059	986,000000	21,970000	48,865000
645,064657	987,000000	21,980000	48,910000
643,583614	988,000000	21,980000	48,845000
643,913378	989,000000	21,970000	48,905000
645,346981	990,000000	21,980000	48,870000
645,691786	991,000000	21,980000	48,870000
645,606163	992,000000	21,980000	48,895000
646,052790	993,000000	21,980000	48,870000
645,888487	994,000000	21,970000	48,855000
646,350156	995,000000	21,970000	48,890000
646,052790	996,000000	21,980000	48,860000
646,115271	997,000000	21,970000	48,855000
647,180928	998,000000	21,970000	48,865000
646,044690	999,000000	21,970000	48,855000
646,836123	1000,000000	21,970000	48,865000
646,906704	1001,000000	21,970000	48,855000
647,040923	1002,000000	21,970000	48,840000
646,617437	1003,000000	21,970000	48,840000
646,883562	1004,000000	21,970000	48,880000
647,040923	1005,000000	21,980000	48,860000
647,134645	1006,000000	21,980000	48,860000
647,824256	1007,000000	21,980000	48,845000
647,440110	1008,000000	21,980000	48,835000