File: Nanoindentation Datenauswertung/data/Saphir first fibed MEMS/AR-SA-200-1-200-4um-diff_LF-4x4-1
Quasi static measurement routine
Tip parameters (shape,radius, material...)
31.08.2022

Piezo position[nm]	MEMS displ.[nm]	Time[ms]	Cap [pf]	Temp [°C]	Rh [%]
eoh

X-Pos [um]	Y-Pos [um]
0,000386	0,000993

POC
1,244053
0,744078	0,231872	0,143	-0,134458	22,540000	50,200000
0,746071	0,107962	0,244	-0,134508	22,540000	50,200000
0,748071	-0,100601	0,344	-0,134591	22,540000	50,200000
0,750080	0,074837	0,444	-0,134521	22,540000	50,200000
0,752127	-0,076064	0,545	-0,134581	22,540000	50,200000
0,754086	0,024537	0,645	-0,134541	22,540000	50,200000
0,756078	0,007361	0,746	-0,134548	22,540000	50,200000
0,758072	0,074837	0,846	-0,134521	22,540000	50,200000
0,760083	-0,092013	0,946	-0,134587	22,540000	50,200000
0,762099	-0,076064	1,046	-0,134581	22,540000	50,200000
0,764084	-0,083425	1,146	-0,134584	22,540000	50,200000
0,766122	0,049073	1,246	-0,134531	22,540000	50,200000
0,768075	0,057661	1,346	-0,134528	22,540000	50,215000
0,770091	-0,017176	1,446	-0,134558	22,540000	50,215000
0,772101	-0,008588	1,547	-0,134554	22,540000	50,215000
0,774079	0,157035	1,647	-0,134488	22,540000	50,215000
0,776108	-0,041712	1,747	-0,134567	22,540000	50,215000
0,778067	0,082198	1,847	-0,134518	22,540000	50,215000
0,780115	-0,133725	1,948	-0,134604	22,540000	50,215000
0,782082	-0,141086	2,049	-0,134607	22,540000	50,215000
0,784060	0,033125	2,150	-0,134538	22,540000	50,215000
0,786098	-0,107962	2,250	-0,134594	22,540000	50,215000
0,788064	0,107962	2,350	-0,134508	22,540000	50,215000
0,790095	0,007361	2,451	-0,134548	22,540000	50,215000
0,792064	0,182799	2,551	-0,134478	22,540000	50,215000
0,794112	0,015949	2,651	-0,134544	22,540000	50,215000
0,796108	0,033125	2,751	-0,134538	22,540000	50,215000
0,798100	0,116550	2,851	-0,134504	22,540000	50,215000
0,800063	-0,125137	2,951	-0,134601	22,540000	50,215000
0,802103	0,182799	3,052	-0,134478	22,540000	50,215000
0,804090	-0,133725	3,152	-0,134604	22,540000	50,215000
0,806070	0,148447	3,252	-0,134492	22,540000	50,215000
0,808085	0,141086	3,353	-0,134495	22,530000	50,225000
0,810020	-0,125137	3,453	-0,134601	22,530000	50,225000
0,812106	0,024537	3,553	-0,134541	22,530000	50,225000
0,814072	0,082198	3,653	-0,134518	22,530000	50,225000
0,816084	0,049073	3,753	-0,134531	22,530000	50,225000
0,818107	-0,050300	3,854	-0,134571	22,530000	50,225000
0,820114	-0,133725	3,954	-0,134604	22,530000	50,225000
0,822038	0,215923	4,055	-0,134465	22,530000	50,225000
0,824068	0,066249	4,155	-0,134524	22,530000	50,225000
0,826104	-0,107962	4,256	-0,134594	22,530000	50,225000
0,828085	-0,158262	4,356	-0,134614	22,530000	50,225000
0,830069	-0,399949	4,456	-0,134710	22,530000	50,225000
0,832081	0,057661	4,556	-0,134528	22,530000	50,225000
0,834105	-0,017176	4,656	-0,134558	22,530000	50,225000
0,836092	-0,116550	4,756	-0,134597	22,530000	50,225000
0,838101	-0,083425	4,856	-0,134584	22,530000	50,225000
0,840083	-0,125137	4,957	-0,134601	22,530000	50,225000
0,842155	-0,041712	5,057	-0,134567	22,530000	50,225000
0,844101	0,049073	5,157	-0,134531	22,530000	50,225000
0,846113	-0,241687	5,258	-0,134647	22,530000	50,225000
0,848116	0,365598	5,358	-0,134405	22,540000	50,200000
0,850064	0,057661	5,458	-0,134528	22,540000	50,200000
0,852051	-0,116550	5,559	-0,134597	22,540000	50,200000
0,854107	-0,092013	5,659	-0,134587	22,540000	50,200000
0,856077	0,049073	5,759	-0,134531	22,540000	50,200000
0,858152	0,074837	5,860	-0,134521	22,540000	50,200000
0,860081	0,082198	5,961	-0,134518	22,540000	50,200000
0,862083	-0,116550	6,061	-0,134597	22,540000	50,200000
0,864053	0,231872	6,161	-0,134458	22,540000	50,200000
0,866065	0,007361	6,261	-0,134548	22,540000	50,200000
0,868065	-0,133725	6,361	-0,134604	22,540000	50,200000
0,870076	-0,076064	6,462	-0,134581	22,540000	50,200000
0,872099	0,099374	6,562	-0,134511	22,540000	50,200000
0,874081	-0,241687	6,662	-0,134647	22,540000	50,200000
0,876043	0,116550	6,762	-0,134504	22,540000	50,200000
0,878058	0,015949	6,862	-0,134544	22,540000	50,200000
0,880126	-0,266224	6,962	-0,134657	22,540000	50,200000
0,882067	0,116550	7,063	-0,134504	22,540000	50,200000
0,884111	-0,191387	7,163	-0,134627	22,540000	50,200000
0,886086	-0,092013	7,263	-0,134587	22,540000	50,200000
0,888076	-0,083425	7,363	-0,134584	22,530000	50,240000
0,890089	0,024537	7,464	-0,134541	22,530000	50,240000
0,892085	0,000000	7,565	-0,134551	22,530000	50,240000
0,894078	-0,133725	7,665	-0,134604	22,530000	50,240000
0,896052	0,024537	7,765	-0,134541	22,530000	50,240000
0,898073	-0,050300	7,866	-0,134571	22,530000	50,240000
0,900108	0,066249	7,966	-0,134524	22,530000	50,240000
0,902051	0,132498	8,066	-0,134498	22,530000	50,240000
0,904061	-0,107962	8,166	-0,134594	22,530000	50,240000
0,906109	-0,092013	8,266	-0,134587	22,530000	50,240000
0,908119	0,015949	8,366	-0,134544	22,530000	50,240000
0,910099	-0,008588	8,466	-0,134554	22,530000	50,240000
0,912116	-0,017176	8,566	-0,134558	22,530000	50,240000
0,914149	-0,017176	8,667	-0,134558	22,530000	50,240000
0,916149	0,033125	8,767	-0,134538	22,530000	50,240000
0,918075	0,049073	8,867	-0,134531	22,530000	50,240000
0,920165	0,090786	8,967	-0,134515	22,530000	50,240000
0,922069	0,000000	9,067	-0,134551	22,530000	50,240000
0,924098	-0,283399	9,167	-0,134664	22,530000	50,240000
0,926134	-0,100601	9,267	-0,134591	22,530000	50,240000
0,928103	-0,233099	9,367	-0,134644	22,540000	50,215000
0,930109	-0,116550	9,468	-0,134597	22,540000	50,215000
0,932092	-0,050300	9,568	-0,134571	22,540000	50,215000
0,934053	-0,058888	9,668	-0,134574	22,540000	50,215000
0,936096	0,182799	9,768	-0,134478	22,540000	50,215000
0,938096	0,000000	9,869	-0,134551	22,540000	50,215000
0,940083	-0,141086	9,969	-0,134607	22,540000	50,215000
0,942099	-0,041712	10,069	-0,134567	22,540000	50,215000
0,944076	-0,050300	10,169	-0,134571	22,540000	50,215000
0,946107	0,024537	10,269	-0,134541	22,540000	50,215000
0,948039	-0,092013	10,369	-0,134587	22,540000	50,215000
0,950106	-0,125137	10,469	-0,134601	22,540000	50,215000
0,952086	-0,474786	10,569	-0,134740	22,540000	50,215000
0,954113	0,007361	10,669	-0,134548	22,540000	50,215000
0,956108	-0,116550	10,769	-0,134597	22,540000	50,215000
0,958086	0,082198	10,869	-0,134518	22,540000	50,215000
0,960009	-0,050300	10,969	-0,134571	22,540000	50,215000
0,962089	-0,191387	11,069	-0,134627	22,540000	50,215000
0,964101	-0,008588	11,169	-0,134554	22,540000	50,215000
0,966078	-0,083425	11,269	-0,134584	22,540000	50,215000
0,968100	-0,083425	11,369	-0,134584	22,540000	50,215000
0,970098	0,015949	11,470	-0,134544	22,540000	50,215000
0,972098	-0,025764	11,570	-0,134561	22,540000	50,215000
0,974091	-0,208562	11,671	-0,134634	22,540000	50,215000
0,976074	-0,224511	11,771	-0,134640	22,540000	50,215000
0,978101	-0,149674	11,871	-0,134610	22,540000	50,215000
0,980072	0,066249	11,971	-0,134524	22,540000	50,215000
0,982122	0,099374	12,071	-0,134511	22,540000	50,215000
0,984113	-0,058888	12,171	-0,134574	22,540000	50,215000
0,986068	-0,349649	12,271	-0,134690	22,540000	50,215000
0,988044	-0,217150	12,371	-0,134637	22,540000	50,215000
0,990033	-0,125137	12,471	-0,134601	22,540000	50,215000
0,992053	0,057661	12,571	-0,134528	22,540000	50,215000
0,994104	-0,166850	12,671	-0,134617	22,540000	50,215000
0,996141	-0,107962	12,771	-0,134594	22,540000	50,215000
0,998075	0,240460	12,872	-0,134455	22,540000	50,215000
1,000071	-0,050300	12,972	-0,134571	22,540000	50,215000
1,002103	-0,034351	13,073	-0,134564	22,540000	50,215000
1,004080	-0,217150	13,173	-0,134637	22,540000	50,215000
1,006099	-0,407310	13,273	-0,134713	22,540000	50,215000
1,008072	-0,250275	13,373	-0,134650	22,530000	50,215000
1,010087	-0,191387	13,473	-0,134627	22,530000	50,215000
1,012094	-0,640409	13,573	-0,134806	22,530000	50,215000
1,014066	-0,166850	13,674	-0,134617	22,530000	50,215000
1,016036	-0,017176	13,775	-0,134558	22,530000	50,215000
1,018076	-0,008588	13,875	-0,134554	22,530000	50,215000
1,020113	-0,067476	13,975	-0,134578	22,530000	50,215000
1,022114	-0,182799	14,075	-0,134624	22,530000	50,215000
1,024074	-0,241687	14,175	-0,134647	22,530000	50,215000
1,026080	-0,125137	14,275	-0,134601	22,530000	50,215000
1,028077	-0,274812	14,375	-0,134660	22,530000	50,215000
1,030026	-0,208562	14,475	-0,134634	22,530000	50,215000
1,032114	-0,175438	14,575	-0,134621	22,530000	50,215000
1,034088	0,041712	14,675	-0,134534	22,530000	50,215000
1,036097	-0,316524	14,775	-0,134677	22,530000	50,215000
1,038119	-0,399949	14,875	-0,134710	22,530000	50,215000
1,040107	-0,241687	14,975	-0,134647	22,530000	50,215000
1,042117	-0,158262	15,075	-0,134614	22,530000	50,215000
1,044045	-0,025764	15,175	-0,134561	22,530000	50,215000
1,046122	-0,034351	15,275	-0,134564	22,530000	50,215000
1,048086	-0,100601	15,375	-0,134591	22,540000	50,215000
1,050126	-0,067476	15,476	-0,134578	22,540000	50,215000
1,052059	-0,107962	15,576	-0,134594	22,540000	50,215000
1,054098	-0,433074	15,676	-0,134723	22,540000	50,215000
1,056110	-0,116550	15,777	-0,134597	22,540000	50,215000
1,058014	-0,025764	15,877	-0,134561	22,540000	50,215000
1,060151	-0,208562	15,977	-0,134634	22,540000	50,215000
1,062102	-0,125137	16,077	-0,134601	22,540000	50,215000
1,064047	-0,257636	16,177	-0,134653	22,540000	50,215000
1,066065	-0,323885	16,277	-0,134680	22,540000	50,215000
1,068102	-0,233099	16,377	-0,134644	22,540000	50,215000
1,070078	-0,233099	16,478	-0,134644	22,540000	50,215000
1,072076	-0,199974	16,578	-0,134630	22,540000	50,215000
1,074106	-0,316524	16,678	-0,134677	22,540000	50,215000
1,076085	-0,092013	16,778	-0,134587	22,540000	50,215000
1,078070	-0,199974	16,878	-0,134630	22,540000	50,215000
1,080114	-0,224511	16,978	-0,134640	22,540000	50,215000
1,082040	-0,307936	17,078	-0,134673	22,540000	50,215000
1,084081	-0,257636	17,179	-0,134653	22,540000	50,215000
1,086091	-72,144168	17,280	-0,163264	22,540000	50,215000
1,088013	-151,336517	17,380	-0,194783	22,540000	50,215000
1,090074	-149,308554	17,480	-0,193976	22,540000	50,215000
1,092068	-147,705078	17,580	-0,193337	22,540000	50,215000
1,094049	-145,004809	17,680	-0,192263	22,540000	50,215000
1,096087	-143,076221	17,780	-0,191495	22,540000	50,215000
1,098121	-141,605243	17,881	-0,190910	22,540000	50,215000
1,100088	-138,139428	17,981	-0,189530	22,540000	50,215000
1,102127	-137,234022	18,081	-0,189170	22,540000	50,215000
1,104133	-134,582826	18,181	-0,188115	22,540000	50,215000
1,106077	-133,270110	18,282	-0,187592	22,540000	50,215000
1,108075	-132,197855	18,382	-0,187166	22,540000	50,215000
1,110083	-130,244730	18,482	-0,186388	22,540000	50,215000
1,112092	-127,294186	18,583	-0,185214	22,540000	50,215000
1,114062	-125,723834	18,684	-0,184589	22,540000	50,215000
1,116116	-122,299731	18,785	-0,183226	22,540000	50,215000
1,118110	-121,826172	18,885	-0,183038	22,540000	50,215000
1,120119	-117,803372	18,986	-0,181437	22,540000	50,215000
1,122096	-117,878209	19,086	-0,181466	22,540000	50,215000
1,124108	-114,039435	19,187	-0,179938	22,540000	50,215000
1,126050	-113,863998	19,287	-0,179869	22,540000	50,215000
1,128060	-111,928048	19,387	-0,179098	22,540000	50,215000
1,130072	-109,625275	19,488	-0,178182	22,540000	50,215000
1,132076	-106,326309	19,588	-0,176869	22,540000	50,215000
1,134098	-105,661363	19,688	-0,176604	22,540000	50,215000
1,136097	-104,223510	19,788	-0,176032	22,540000	50,215000
1,138061	-101,963676	19,888	-0,175132	22,540000	50,215000
1,140100	-99,919765	19,989	-0,174319	22,540000	50,215000
1,142026	-97,533566	20,089	-0,173369	22,540000	50,215000
1,144133	-93,635904	20,189	-0,171818	22,540000	50,215000
1,146108	-91,691367	20,289	-0,171044	22,540000	50,215000
1,148089	-89,680581	20,390	-0,170244	22,540000	50,215000
1,150128	-87,769168	20,490	-0,169483	22,540000	50,215000
1,152064	-85,724030	20,591	-0,168669	22,540000	50,215000
1,154086	-86,056503	20,691	-0,168801	22,540000	50,215000
1,156093	-82,341640	20,791	-0,167323	22,540000	50,215000
1,158092	-81,519659	20,892	-0,166996	22,540000	50,215000
1,160085	-79,791045	20,992	-0,166308	22,540000	50,215000
1,162125	-77,646533	21,092	-0,165454	22,540000	50,215000
1,164074	-74,911913	21,192	-0,164366	22,540000	50,215000
1,166065	-73,623734	21,292	-0,163853	22,540000	50,215000
1,168078	-71,588411	21,392	-0,163043	22,540000	50,215000
1,170089	-69,934634	21,492	-0,162385	22,540000	50,215000
1,172064	-67,807298	21,593	-0,161538	22,540000	50,215000
1,174041	-64,183221	21,693	-0,160096	22,540000	50,215000
1,176049	-61,848549	21,794	-0,159167	22,540000	50,215000
1,178061	-59,686862	21,894	-0,158306	22,540000	50,215000
1,180041	-58,607245	21,994	-0,157876	22,540000	50,215000
1,182079	-56,537571	22,095	-0,157053	22,540000	50,215000
1,184055	-54,451947	22,195	-0,156223	22,540000	50,215000
1,186113	-52,265723	22,295	-0,155353	22,540000	50,215000
1,188072	-50,138387	22,395	-0,154506	22,540000	50,215000
1,190089	-47,819665	22,495	-0,153583	22,540000	50,215000
1,192080	-45,824827	22,596	-0,152789	22,540000	50,215000
1,194070	-45,592955	22,696	-0,152697	22,540000	50,215000
1,196081	-43,406731	22,796	-0,151827	22,540000	50,215000
1,198119	-41,429069	22,896	-0,151040	22,540000	50,215000
1,200062	-39,509069	22,997	-0,150275	22,540000	50,215000
1,202063	-36,932710	23,097	-0,149250	22,540000	50,215000
1,204068	-35,112084	23,197	-0,148525	22,540000	50,215000
1,206072	-31,165348	23,298	-0,146955	22,540000	50,200000
1,208102	-30,293067	23,398	-0,146607	22,540000	50,200000
1,210126	-28,256517	23,498	-0,145797	22,540000	50,200000
1,212051	-26,303392	23,598	-0,145020	22,540000	50,200000
1,214124	-24,616491	23,698	-0,144348	22,540000	50,200000
1,216081	-23,319724	23,798	-0,143832	22,540000	50,200000
1,218074	-21,383774	23,898	-0,143062	22,540000	50,200000
1,220063	-18,782879	23,998	-0,142026	22,540000	50,200000
1,222053	-16,215109	24,098	-0,141004	22,540000	50,200000
1,224044	-14,834917	24,199	-0,140455	22,540000	50,200000
1,226073	-12,824130	24,300	-0,139655	22,540000	50,200000
1,228054	-11,353152	24,401	-0,139069	22,540000	50,200000
1,230115	-8,959593	24,501	-0,138117	22,540000	50,200000
1,232066	-7,563452	24,601	-0,137561	22,540000	50,200000
1,234094	-5,485190	24,702	-0,136734	22,540000	50,200000
1,236103	-2,867119	24,803	-0,135692	22,540000	50,200000
1,238128	-1,355655	24,904	-0,135090	22,540000	50,200000
1,240085	2,966493	25,004	-0,133370	22,540000	50,200000
1,242071	2,775106	25,104	-0,133446	22,540000	50,200000
1,244025	4,636218	25,204	-0,132706	22,540000	50,200000
1,246087	8,792743	25,304	-0,131051	22,540000	50,225000
1,248095	8,949778	25,404	-0,130989	22,540000	50,225000
1,250091	12,897741	25,504	-0,129417	22,540000	50,225000
1,252027	15,199287	25,604	-0,128501	22,540000	50,225000
1,254067	16,753690	25,705	-0,127883	22,540000	50,225000
1,256077	16,878828	25,805	-0,127833	22,540000	50,225000
1,258064	18,349806	25,905	-0,127248	22,540000	50,225000
1,260112	20,992413	26,005	-0,126196	22,540000	50,225000
1,262089	22,771327	26,105	-0,125488	22,540000	50,225000
1,264036	25,064286	26,205	-0,124575	22,540000	50,225000
1,266100	26,726651	26,305	-0,123914	22,540000	50,225000
1,268039	29,976543	26,405	-0,122620	22,540000	50,225000
1,270077	30,699150	26,506	-0,122333	22,540000	50,225000
1,272103	32,835074	26,606	-0,121482	22,540000	50,225000
1,274031	34,887573	26,706	-0,120666	22,540000	50,225000
1,276117	36,699611	26,807	-0,119944	22,540000	50,225000
1,278144	39,058819	26,907	-0,119005	22,540000	50,225000
1,280031	41,029120	27,007	-0,118221	22,540000	50,225000
1,282106	43,189581	27,107	-0,117361	22,540000	50,225000
1,284063	45,092405	27,207	-0,116604	22,540000	50,225000
1,286070	48,923818	27,307	-0,115079	22,540000	50,225000
1,288083	50,976317	27,408	-0,114262	22,540000	50,225000
1,290091	52,913493	27,508	-0,113491	22,540000	50,225000
1,292119	53,328164	27,608	-0,113326	22,540000	50,225000
1,294040	54,858030	27,708	-0,112717	22,540000	50,225000
1,296083	57,209878	27,808	-0,111781	22,540000	50,225000
1,298099	59,145827	27,909	-0,111011	22,540000	50,225000
1,300060	61,206913	28,010	-0,110190	22,540000	50,225000
1,302042	63,010364	28,110	-0,109473	22,540000	50,225000
1,304093	65,121751	28,210	-0,108632	22,540000	50,225000
1,306069	67,015988	28,310	-0,107878	22,540000	50,225000
1,308146	68,819439	28,410	-0,107161	22,540000	50,225000
1,310073	70,880526	28,510	-0,106340	22,540000	50,225000
1,312140	73,207836	28,610	-0,105414	22,540000	50,225000
1,314129	74,986750	28,710	-0,104706	22,540000	50,225000
1,316102	76,790201	28,811	-0,103988	22,540000	50,225000
1,318081	79,191122	28,911	-0,103033	22,540000	50,225000
1,320046	81,884030	29,011	-0,101961	22,540000	50,225000
1,322116	84,451800	29,111	-0,100939	22,540000	50,225000
1,324095	86,895660	29,211	-0,099966	22,540000	50,225000
1,326071	88,715060	29,311	-0,099242	22,540000	50,240000
1,328041	90,527098	29,411	-0,098521	22,540000	50,240000
1,330034	92,704735	29,511	-0,097654	22,540000	50,240000
1,332092	93,244543	29,611	-0,097439	22,540000	50,240000
1,334093	97,125029	29,712	-0,095895	22,540000	50,240000
1,336078	97,349541	29,814	-0,095806	22,540000	50,240000
1,338077	100,341797	29,914	-0,094615	22,540000	50,240000
1,340089	100,998155	30,014	-0,094354	22,540000	50,240000
1,342124	104,032124	30,114	-0,093146	22,540000	50,240000
1,344072	106,366795	30,214	-0,092217	22,540000	50,240000
1,346055	108,170246	30,314	-0,091499	22,540000	50,240000
1,348066	109,858374	30,414	-0,090827	22,540000	50,240000
1,350048	111,818860	30,515	-0,090047	22,540000	50,240000
1,352137	114,087282	30,615	-0,089144	22,540000	50,240000
1,354078	115,683397	30,716	-0,088509	22,540000	50,240000
1,356105	117,711360	30,816	-0,087702	22,540000	50,240000
1,358057	119,232638	30,918	-0,087096	22,540000	50,240000
1,360082	123,212498	31,018	-0,085512	22,540000	50,240000
1,362070	123,569508	31,118	-0,085370	22,540000	50,240000
1,364078	124,850326	31,218	-0,084860	22,540000	50,240000
1,366099	127,576358	31,318	-0,083775	22,550000	50,205000
1,368111	129,670570	31,419	-0,082942	22,550000	50,205000
1,370142	131,399183	31,519	-0,082254	22,550000	50,205000
1,372097	133,284832	31,620	-0,081503	22,550000	50,205000
1,374081	135,396219	31,721	-0,080663	22,550000	50,205000
1,376100	137,008284	31,821	-0,080021	22,550000	50,205000
1,378095	139,434968	31,921	-0,079056	22,550000	50,205000
1,380061	141,180757	32,021	-0,078361	22,550000	50,205000
1,382071	143,457767	32,121	-0,077455	22,550000	50,205000
1,384058	147,371378	32,221	-0,075897	22,550000	50,205000
1,386069	149,674152	32,321	-0,074980	22,550000	50,205000
1,388054	151,070293	32,421	-0,074425	22,550000	50,205000
1,390131	153,679776	32,522	-0,073386	22,550000	50,205000
1,392086	155,358089	32,622	-0,072718	22,550000	50,205000
1,394084	157,452301	32,723	-0,071885	22,550000	50,205000
1,396117	159,729311	32,823	-0,070979	22,550000	50,205000
1,398098	161,715560	32,924	-0,070188	22,550000	50,205000
1,400073	163,926321	33,024	-0,069308	22,550000	50,205000
1,402058	165,638986	33,124	-0,068626	22,550000	50,205000
1,404068	167,757734	33,224	-0,067783	22,550000	50,205000
1,406072	169,585722	33,325	-0,067056	22,540000	50,215000
1,408101	171,538847	33,426	-0,066278	22,540000	50,215000
1,410079	173,384010	33,527	-0,065544	22,540000	50,215000
1,412041	175,046374	33,628	-0,064882	22,540000	50,215000
1,414067	176,557838	33,729	-0,064281	22,540000	50,215000
1,416072	177,697570	33,829	-0,063827	22,540000	50,215000
1,418075	179,591807	33,929	-0,063073	22,540000	50,215000
1,420096	182,126453	34,029	-0,062064	22,540000	50,215000
1,422093	184,279552	34,129	-0,061208	22,540000	50,215000
1,424122	186,298926	34,229	-0,060404	22,540000	50,215000
1,426056	188,393138	34,330	-0,059570	22,540000	50,215000
1,428095	190,245662	34,431	-0,058833	22,540000	50,215000
1,430063	192,132538	34,531	-0,058082	22,540000	50,215000
1,432054	194,210800	34,631	-0,057255	22,540000	50,215000
1,434096	196,703734	34,731	-0,056263	22,540000	50,215000
1,436080	198,066750	34,831	-0,055720	22,540000	50,215000
1,438054	201,365715	34,931	-0,054407	22,540000	50,215000
1,440091	202,786393	35,031	-0,053842	22,540000	50,215000
1,442071	204,773869	35,131	-0,053051	22,540000	50,215000
1,444129	208,081423	35,231	-0,051734	22,540000	50,215000
1,446074	208,205333	35,331	-0,051685	22,540000	50,215000
1,448051	210,233295	35,431	-0,050878	22,540000	50,215000
1,450073	211,671149	35,531	-0,050306	22,540000	50,215000
1,452067	214,562804	35,631	-0,049155	22,540000	50,215000
1,454052	216,216581	35,732	-0,048497	22,540000	50,215000
1,456022	218,377041	35,832	-0,047637	22,540000	50,215000
1,458096	220,072531	35,933	-0,046962	22,540000	50,215000
1,460066	222,582640	36,033	-0,045963	22,540000	50,215000
1,462034	224,062206	36,133	-0,045374	22,540000	50,215000
1,462095	225,583484	36,233	-0,044769	22,540000	50,215000
1,462103	225,799407	36,334	-0,044683	22,540000	50,215000
1,462077	226,147829	36,434	-0,044544	22,540000	50,215000
1,462070	225,890193	36,534	-0,044646	22,540000	50,215000
1,462027	225,823944	36,635	-0,044673	22,540000	50,215000
1,462084	226,198129	36,735	-0,044524	22,540000	50,215000
1,462122	225,757695	36,836	-0,044699	22,540000	50,215000
1,462124	225,649733	36,936	-0,044742	22,540000	50,215000
1,462025	225,698807	37,037	-0,044723	22,540000	50,215000
1,462037	225,441171	37,138	-0,044825	22,540000	50,215000
1,460103	225,608021	37,238	-0,044759	22,540000	50,215000
1,458032	223,381311	37,338	-0,045645	22,530000	50,200000
1,456052	221,402422	37,438	-0,046433	22,530000	50,200000
1,454039	217,205412	37,538	-0,048103	22,530000	50,200000
1,452030	215,511149	37,639	-0,048777	22,530000	50,200000
1,450070	212,967916	37,739	-0,049790	22,530000	50,200000
1,448059	211,114165	37,839	-0,050527	22,530000	50,200000
1,446073	209,028541	37,939	-0,051357	22,530000	50,200000
1,444116	206,967454	38,039	-0,052178	22,530000	50,200000
1,442020	204,939492	38,139	-0,052985	22,530000	50,200000
1,440083	203,659901	38,239	-0,053494	22,530000	50,200000
1,438076	200,726533	38,340	-0,054662	22,530000	50,200000
1,436040	198,373459	38,440	-0,055598	22,530000	50,200000
1,434040	198,855606	38,540	-0,055406	22,530000	50,200000
1,432078	196,238762	38,640	-0,056448	22,530000	50,200000
1,430057	194,816858	38,740	-0,057014	22,530000	50,200000
1,428110	192,240499	38,841	-0,058039	22,530000	50,200000
1,426131	190,520473	38,941	-0,058724	22,530000	50,200000
1,424068	188,492511	39,041	-0,059531	22,530000	50,200000
1,422062	185,026696	39,141	-0,060910	22,530000	50,200000
1,420076	184,835309	39,241	-0,060986	22,530000	50,200000
1,418060	181,287296	39,341	-0,062398	22,540000	50,200000
1,416084	180,364714	39,441	-0,062766	22,540000	50,200000
1,414065	178,162541	39,541	-0,063642	22,540000	50,200000
1,412112	176,275665	39,641	-0,064393	22,540000	50,200000
1,410078	174,156917	39,741	-0,065236	22,540000	50,200000
1,408047	170,558604	39,841	-0,066668	22,540000	50,200000
1,406118	168,173632	39,941	-0,067618	22,540000	50,200000
1,404052	166,295344	40,041	-0,068365	22,540000	50,200000
1,402057	163,884609	40,142	-0,069325	22,540000	50,200000
1,400101	161,957247	40,242	-0,070092	22,540000	50,200000
1,398058	160,129260	40,342	-0,070819	22,540000	50,200000
1,396044	158,026460	40,442	-0,071656	22,540000	50,200000
1,394105	155,864773	40,543	-0,072517	22,540000	50,200000
1,392127	155,824287	40,643	-0,072533	22,540000	50,200000
1,390054	153,820862	40,744	-0,073330	22,540000	50,200000
1,388070	151,718063	40,845	-0,074167	22,540000	50,200000
1,386095	149,815238	40,945	-0,074924	22,540000	50,200000
1,384062	147,754152	41,045	-0,075745	22,540000	50,200000
1,382085	143,682279	41,145	-0,077365	22,540000	50,200000
1,380073	143,191544	41,245	-0,077561	22,540000	50,200000
1,378031	141,304668	41,346	-0,078312	22,540000	50,200000
1,376080	138,387249	41,446	-0,079473	22,540000	50,200000
1,374058	136,061165	41,546	-0,080398	22,540000	50,200000
1,372050	134,041791	41,646	-0,081202	22,540000	50,200000
1,370068	131,938992	41,746	-0,082039	22,540000	50,200000
1,368085	130,252091	41,846	-0,082710	22,540000	50,200000
1,366038	129,595733	41,946	-0,082972	22,540000	50,200000
1,364057	127,218122	42,046	-0,083918	22,540000	50,200000
1,362063	124,958288	42,146	-0,084817	22,540000	50,200000
1,360071	121,866658	42,246	-0,086048	22,540000	50,200000
1,358100	120,470517	42,346	-0,086604	22,540000	50,200000
1,356081	118,708778	42,446	-0,087305	22,540000	50,200000
1,354110	115,566848	42,546	-0,088555	22,540000	50,200000
1,352063	114,668803	42,647	-0,088913	22,540000	50,200000
1,350054	112,085084	42,747	-0,089941	22,540000	50,200000
1,348136	110,530681	42,847	-0,090560	22,540000	50,200000
1,346036	108,145709	42,947	-0,091509	22,540000	50,200000
1,344082	106,458808	43,047	-0,092180	22,540000	50,200000
1,342075	103,865274	43,147	-0,093212	22,540000	50,200000
1,340042	102,818781	43,247	-0,093629	22,540000	50,200000
1,338064	100,425222	43,347	-0,094582	22,540000	50,225000
1,335996	97,641528	43,447	-0,095689	22,540000	50,225000
1,334044	95,961988	43,547	-0,096358	22,540000	50,225000
1,332063	94,167125	43,648	-0,097072	22,540000	50,225000
1,330039	92,147750	43,748	-0,097876	22,540000	50,225000
1,328058	90,144325	43,848	-0,098673	22,540000	50,225000
1,326074	86,496938	43,948	-0,100125	22,540000	50,225000
1,324082	86,006203	44,048	-0,100320	22,540000	50,225000
1,322040	83,612643	44,148	-0,101273	22,540000	50,225000
1,320057	82,199327	44,248	-0,101835	22,540000	50,225000
1,318089	80,038866	44,349	-0,102695	22,540000	50,225000
1,316055	78,160578	44,449	-0,103443	22,540000	50,225000
1,314084	76,349766	44,549	-0,104164	22,540000	50,225000
1,312083	73,872782	44,649	-0,105149	22,540000	50,225000
1,310055	72,077919	44,750	-0,105864	22,540000	50,225000
1,308045	67,856372	44,850	-0,107544	22,540000	50,225000
1,306030	65,861534	44,950	-0,108338	22,540000	50,225000
1,304055	65,744985	45,050	-0,108384	22,540000	50,225000
1,302060	63,950122	45,151	-0,109099	22,540000	50,225000
1,300077	61,904984	45,252	-0,109913	22,540000	50,225000
1,298086	60,343220	45,352	-0,110534	22,540000	50,200000
1,296103	58,156996	45,453	-0,111404	22,540000	50,200000
1,294059	56,146210	45,553	-0,112205	22,540000	50,200000
1,292023	53,761238	45,653	-0,113154	22,540000	50,200000
1,290061	49,978898	45,753	-0,114659	22,540000	50,200000
1,288151	49,978898	45,854	-0,114659	22,540000	50,200000
1,286098	47,827026	45,954	-0,115516	22,540000	50,200000
1,284030	45,642029	46,054	-0,116385	22,540000	50,200000
1,282116	43,880290	46,155	-0,117086	22,540000	50,200000
1,280050	42,017951	46,255	-0,117828	22,540000	50,200000
1,278118	37,979203	46,355	-0,119435	22,540000	50,200000
1,276070	36,599011	46,456	-0,119984	22,540000	50,200000
1,274074	35,743905	46,556	-0,120325	22,540000	50,200000
1,272038	31,829067	46,656	-0,121883	22,540000	50,200000
1,270089	29,726268	46,756	-0,122720	22,540000	50,200000
1,268073	27,475022	46,856	-0,123616	22,540000	50,200000
1,266059	25,786893	46,956	-0,124288	22,540000	50,200000
1,264128	25,687520	47,057	-0,124327	22,540000	50,200000
1,262047	21,773909	47,157	-0,125885	22,540000	50,200000
1,260064	19,920157	47,257	-0,126623	22,540000	50,200000
1,258066	17,650508	47,357	-0,127526	22,540000	50,200000
1,256080	15,747684	47,457	-0,128283	22,540000	50,200000
1,254114	15,806572	47,558	-0,128260	22,540000	50,200000
1,252069	12,157958	47,658	-0,129712	22,540000	50,200000
1,250041	9,614724	47,760	-0,130724	22,540000	50,200000
1,248096	9,597548	47,860	-0,130731	22,540000	50,200000
1,246124	7,445676	47,960	-0,131587	22,540000	50,200000
1,244112	4,279209	48,060	-0,132848	22,540000	50,200000
1,242104	2,649969	48,160	-0,133496	22,540000	50,200000
1,240113	0,190160	48,261	-0,134475	22,540000	50,200000
1,238126	-1,761738	48,362	-0,135252	22,540000	50,200000
1,236082	-3,998263	48,462	-0,136142	22,540000	50,200000
1,234071	-5,718289	48,562	-0,136827	22,540000	50,200000
1,232064	-7,297228	48,663	-0,137455	22,540000	50,200000
1,230083	-9,474865	48,764	-0,138322	22,540000	50,200000
1,228139	-11,511414	48,864	-0,139132	22,540000	50,200000
1,226039	-13,297690	48,964	-0,139843	22,540000	50,200000
1,224051	-15,299888	49,064	-0,140640	22,540000	50,200000
1,222019	-18,857716	49,164	-0,142056	22,540000	50,200000
1,220035	-18,990215	49,264	-0,142109	22,540000	50,200000
1,218113	-21,516273	49,364	-0,143114	22,540000	50,190000
1,216093	-22,605704	49,465	-0,143548	22,540000	50,190000
1,214027	-25,173475	49,565	-0,144570	22,540000	50,190000
1,212108	-27,051763	49,666	-0,145317	22,540000	50,190000
1,210093	-29,379073	49,766	-0,146244	22,540000	50,190000
1,208095	-30,475866	49,866	-0,146680	22,540000	50,190000
1,206086	-33,426409	49,966	-0,147854	22,540000	50,190000
1,204050	-36,866461	50,066	-0,149224	22,540000	50,190000
1,202065	-37,148634	50,166	-0,149336	22,540000	50,190000
1,200073	-38,952085	50,266	-0,150054	22,540000	50,190000
1,198101	-41,063472	50,366	-0,150894	22,540000	50,190000
1,196090	-42,858335	50,466	-0,151608	22,540000	50,190000
1,194108	-45,044559	50,567	-0,152479	22,540000	50,190000
1,192129	-48,858796	50,667	-0,153997	22,540000	50,190000
1,190099	-51,052381	50,768	-0,154870	22,540000	50,190000
1,188046	-53,005506	50,868	-0,155647	22,540000	50,190000
1,186078	-55,348765	50,969	-0,156580	22,540000	50,190000
1,184092	-56,894580	51,069	-0,157195	22,540000	50,190000
1,182101	-57,011130	51,169	-0,157241	22,540000	50,190000
1,180071	-59,345801	51,269	-0,158170	22,540000	50,190000
1,178111	-61,366402	51,370	-0,158975	22,540000	50,225000
1,176112	-63,302352	51,470	-0,159745	22,540000	50,225000
1,174099	-67,074876	51,571	-0,161247	22,540000	50,225000
1,172059	-67,034391	51,672	-0,161230	22,540000	50,225000
1,170064	-70,923465	51,772	-0,162778	22,540000	50,225000
1,168076	-73,299849	51,872	-0,163724	22,540000	50,225000
1,166131	-75,052999	51,972	-0,164422	22,540000	50,225000
1,164022	-76,939875	52,073	-0,165173	22,540000	50,225000
1,162061	-79,408272	52,173	-0,166155	22,540000	50,225000
1,160115	-81,112349	52,273	-0,166833	22,540000	50,225000
1,158046	-83,147672	52,373	-0,167644	22,540000	50,225000
1,156117	-82,782074	52,474	-0,167498	22,540000	50,225000
1,154133	-85,100797	52,575	-0,168421	22,540000	50,225000
1,152047	-87,012209	52,676	-0,169182	22,540000	50,225000
1,150106	-89,123596	52,776	-0,170022	22,540000	50,225000
1,148057	-90,984709	52,876	-0,170763	22,540000	50,225000
1,146081	-93,553706	52,977	-0,171785	22,540000	50,225000
1,144129	-94,932671	53,077	-0,172334	22,540000	50,225000
1,142081	-98,148212	53,177	-0,173614	22,540000	50,225000
1,140045	-99,444979	53,277	-0,174130	22,540000	50,225000
1,138143	-101,739165	53,377	-0,175043	22,540000	50,225000
1,136067	-104,472558	53,477	-0,176131	22,540000	50,225000
1,134082	-107,132341	53,577	-0,177189	22,540000	50,225000
1,132090	-108,321147	53,677	-0,177663	22,540000	50,225000
1,130103	-110,481607	53,777	-0,178522	22,540000	50,225000
1,128081	-112,642068	53,877	-0,179382	22,540000	50,225000
1,126077	-113,414975	53,977	-0,179690	22,540000	50,225000
1,124103	-115,235602	54,077	-0,180415	22,540000	50,225000
1,122076	-118,651117	54,177	-0,181774	22,540000	50,225000
1,120119	-120,280357	54,277	-0,182422	22,540000	50,225000
1,118065	-123,455412	54,378	-0,183686	22,540000	50,225000
1,116076	-123,379348	54,478	-0,183656	22,540000	50,225000
1,114067	-126,837802	54,578	-0,185032	22,540000	50,225000
1,112119	-128,582365	54,678	-0,185727	22,540000	50,225000
1,110120	-131,599158	54,778	-0,186927	22,540000	50,225000
1,108060	-132,570813	54,878	-0,187314	22,540000	50,225000
1,106047	-134,100679	54,978	-0,187923	22,540000	50,225000
1,104057	-135,554481	55,078	-0,188501	22,540000	50,225000
1,102105	-137,449945	55,178	-0,189256	22,540000	50,225000
1,100111	-139,709779	55,278	-0,190155	22,540000	50,225000
1,098120	-142,902010	55,378	-0,191426	22,540000	50,215000
1,096118	-144,629397	55,478	-0,192113	22,540000	50,215000
1,094056	-145,943340	55,578	-0,192636	22,540000	50,215000
1,092067	-147,921001	55,679	-0,193423	22,540000	50,215000
1,090100	-150,488772	55,780	-0,194445	22,540000	50,215000
1,088103	-152,591571	55,880	-0,195282	22,540000	50,215000
1,086067	-155,916300	55,980	-0,196605	22,540000	50,215000
1,084147	-156,530946	56,081	-0,196850	22,540000	50,215000
1,082054	-158,409234	56,181	-0,197598	22,540000	50,215000
1,080108	-162,390321	56,281	-0,199182	22,540000	50,215000
1,078133	-162,863880	56,381	-0,199371	22,540000	50,215000
1,076076	-164,268609	56,481	-0,199930	22,540000	50,215000
1,074038	-165,938334	56,582	-0,200594	22,540000	50,215000
1,072118	-168,091434	56,682	-0,201451	22,540000	50,215000
1,070059	-172,412355	56,783	-0,203171	22,540000	50,215000
1,068089	-172,387818	56,883	-0,203161	22,540000	50,215000
1,066109	-176,534528	56,984	-0,204812	22,540000	50,215000
1,064095	-176,402030	57,085	-0,204759	22,540000	50,215000
1,062065	-180,722951	57,185	-0,206479	22,540000	50,215000
1,060102	-182,559526	57,286	-0,207209	22,540000	50,215000
1,058065	-184,712626	57,386	-0,208066	22,530000	50,215000
1,056027	-186,457188	57,486	-0,208761	22,530000	50,215000
1,054085	-188,377189	57,586	-0,209525	22,530000	50,215000
1,052075	-188,916997	57,686	-0,209740	22,530000	50,215000
1,050061	-191,268844	57,786	-0,210676	22,530000	50,215000
1,048111	-192,739822	57,886	-0,211261	22,530000	50,215000
1,046068	-197,103682	57,986	-0,212998	22,530000	50,215000
1,044112	-196,954008	58,086	-0,212938	22,530000	50,215000
1,042049	-201,109306	58,186	-0,214592	22,530000	50,215000
1,040096	-202,888220	58,286	-0,215300	22,530000	50,215000
1,038065	-205,306317	58,386	-0,216263	22,530000	50,215000
1,036086	-204,923543	58,486	-0,216110	22,530000	50,215000
1,034033	-207,275391	58,586	-0,217046	22,530000	50,215000
1,032068	-208,880094	58,686	-0,217685	22,530000	50,215000
1,030073	-213,002267	58,786	-0,219326	22,530000	50,215000
1,028065	-215,278050	58,887	-0,220231	22,530000	50,215000
1,026118	-214,863379	58,987	-0,220066	22,530000	50,215000
1,024077	-217,398025	59,087	-0,221075	22,530000	50,215000
1,022174	-221,038052	59,187	-0,222524	22,530000	50,215000
1,020040	-223,315062	59,287	-0,223430	22,530000	50,215000
1,018080	-225,217886	59,387	-0,224188	22,540000	50,240000
1,016093	-227,204136	59,487	-0,224978	22,540000	50,240000
1,014075	-229,157261	59,587	-0,225755	22,540000	50,240000
1,012138	-229,240686	59,687	-0,225789	22,540000	50,240000
1,010118	-233,629083	59,787	-0,227535	22,540000	50,240000
1,008111	-233,220546	59,888	-0,227373	22,540000	50,240000
1,006092	-237,426144	59,989	-0,229046	22,540000	50,240000
1,004115	-237,060547	60,089	-0,228901	22,540000	50,240000
1,002085	-239,346145	60,190	-0,229811	22,540000	50,240000
1,000060	-241,158183	60,291	-0,230532	22,540000	50,240000
0,998091	-245,388319	60,392	-0,232215	22,540000	50,240000
0,996081	-245,712204	60,493	-0,232344	22,540000	50,240000
0,994093	-247,515654	60,593	-0,233062	22,540000	50,240000
0,992087	-250,739783	60,693	-0,234345	22,540000	50,240000
0,990063	-252,975080	60,793	-0,235235	22,540000	50,240000
0,988062	-255,119592	60,893	-0,236088	22,540000	50,240000
0,986151	-256,399183	60,993	-0,236598	22,540000	50,240000
0,984104	-258,743670	61,094	-0,237531	22,540000	50,240000
0,982132	-260,214647	61,194	-0,238116	22,540000	50,240000
0,980138	-262,267146	61,295	-0,238933	22,540000	50,240000
0,978077	-264,652118	61,395	-0,239882	22,540000	50,215000
0,976031	-265,517038	61,496	-0,240227	22,540000	50,215000
0,974070	-267,851710	61,596	-0,241156	22,540000	50,215000
0,972052	-269,912796	61,697	-0,241976	22,540000	50,215000
0,970115	-36,276352	61,797	-0,148989	22,540000	50,215000
0,968100	-35,661707	61,897	-0,148744	22,540000	50,215000
0,966062	-34,970998	61,997	-0,148469	22,540000	50,215000
0,964103	-34,290103	62,097	-0,148198	22,540000	50,215000
0,962071	-34,090128	62,197	-0,148119	22,540000	50,215000
0,960091	-33,567496	62,298	-0,147911	22,540000	50,215000
0,958109	-33,193310	62,398	-0,147762	22,540000	50,215000
0,956083	-32,370102	62,499	-0,147434	22,540000	50,215000
0,954123	-31,929668	62,599	-0,147259	22,540000	50,215000
0,952092	-31,497821	62,699	-0,147087	22,540000	50,215000
0,950072	-31,065974	62,799	-0,146915	22,540000	50,215000
0,948110	-30,334779	62,899	-0,146624	22,540000	50,215000
0,946091	-29,960594	62,999	-0,146475	22,540000	50,215000
0,944135	-29,718907	63,100	-0,146379	22,540000	50,215000
0,942054	-29,403610	63,201	-0,146253	22,540000	50,215000
0,940076	-28,705539	63,301	-0,145976	22,540000	50,215000
0,938063	-28,322766	63,401	-0,145823	22,520000	50,200000
0,936094	-28,198856	63,501	-0,145774	22,520000	50,200000
0,934063	-27,151137	63,602	-0,145357	22,520000	50,200000
0,932130	-26,893501	63,702	-0,145254	22,520000	50,200000
0,930117	-26,611328	63,802	-0,145142	22,520000	50,200000
0,928097	-26,694753	63,902	-0,145175	22,520000	50,200000
0,926084	-26,345104	64,002	-0,145036	22,520000	50,200000
0,924108	-25,555021	64,102	-0,144722	22,520000	50,200000
0,922115	-25,215187	64,202	-0,144586	22,520000	50,200000
0,920056	-24,599315	64,304	-0,144341	22,520000	50,200000
0,918072	-24,475404	64,404	-0,144292	22,520000	50,200000
0,916082	-24,483992	64,504	-0,144295	22,520000	50,200000
0,914126	-24,151519	64,604	-0,144163	22,520000	50,200000
0,912138	-23,968721	64,704	-0,144090	22,520000	50,200000
0,910083	-23,403149	64,805	-0,143865	22,520000	50,200000
0,908090	-23,370024	64,905	-0,143852	22,520000	50,200000
0,906080	-22,689129	65,005	-0,143581	22,520000	50,200000
0,904084	-22,546816	65,105	-0,143524	22,520000	50,200000
0,902057	-22,605704	65,205	-0,143548	22,520000	50,200000
0,900064	-22,106382	65,306	-0,143349	22,540000	50,200000
0,898094	-21,557985	65,407	-0,143131	22,540000	50,200000
0,896037	-21,333474	65,508	-0,143042	22,540000	50,200000
0,894090	-21,009589	65,608	-0,142913	22,540000	50,200000
0,892141	-21,084426	65,708	-0,142942	22,540000	50,200000
0,890110	-20,776490	65,808	-0,142820	22,540000	50,200000
0,888083	-20,718829	65,908	-0,142797	22,540000	50,200000
0,886164	-20,452605	66,008	-0,142691	22,540000	50,200000
0,884113	-20,062471	66,108	-0,142536	22,540000	50,200000
0,882117	-19,987633	66,208	-0,142506	22,540000	50,200000
0,880116	-20,020758	66,308	-0,142519	22,540000	50,200000
0,878108	-18,998803	66,409	-0,142112	22,540000	50,200000
0,876128	-19,131301	66,509	-0,142165	22,540000	50,200000
0,874103	-19,164426	66,610	-0,142178	22,540000	50,200000
0,872070	-18,807416	66,711	-0,142036	22,540000	50,200000
0,870075	-18,616029	66,812	-0,141960	22,540000	50,200000
0,868082	-18,408694	66,912	-0,141877	22,540000	50,200000
0,866098	-18,151058	67,012	-0,141775	22,540000	50,200000
0,864101	-18,151058	67,112	-0,141775	22,540000	50,200000
0,862116	-17,926547	67,212	-0,141686	22,540000	50,200000
0,860082	-17,668911	67,313	-0,141583	22,550000	50,220000
0,858119	-17,519237	67,413	-0,141523	22,550000	50,220000
0,856051	-17,237064	67,514	-0,141411	22,550000	50,220000
0,854128	-17,078802	67,615	-0,141348	22,550000	50,220000
0,852099	-17,021141	67,715	-0,141325	22,550000	50,220000
0,850092	-16,880055	67,815	-0,141269	22,550000	50,220000
0,848067	-16,439620	67,916	-0,141094	22,550000	50,220000
0,846081	-16,164808	68,016	-0,140984	22,550000	50,220000
0,844063	-16,281358	68,116	-0,141031	22,550000	50,220000
0,842102	-16,131684	68,218	-0,140971	22,550000	50,220000
0,840099	-15,715786	68,318	-0,140806	22,550000	50,220000
0,838053	-15,558751	68,418	-0,140743	22,550000	50,220000
0,836101	-15,607824	68,519	-0,140763	22,550000	50,220000
0,834050	-15,341601	68,619	-0,140657	22,550000	50,220000
0,832121	-15,391901	68,720	-0,140677	22,550000	50,220000
0,830078	-15,042252	68,820	-0,140538	22,550000	50,220000
0,828103	-14,859454	68,920	-0,140465	22,550000	50,220000
0,826112	-14,585869	69,020	-0,140356	22,550000	50,220000
0,824115	-14,577281	69,120	-0,140353	22,550000	50,220000
0,822139	-14,493856	69,220	-0,140319	22,550000	50,220000
0,820101	-14,302469	69,321	-0,140243	22,550000	50,220000
0,818111	-14,145434	69,421	-0,140181	22,550000	50,220000
0,816104	-14,136846	69,522	-0,140177	22,550000	50,220000
0,814092	-13,663287	69,623	-0,139989	22,550000	50,220000
0,812016	-13,480488	69,724	-0,139916	22,550000	50,220000
0,810078	-13,163964	69,824	-0,139790	22,550000	50,220000
0,808113	-13,231440	69,924	-0,139817	22,550000	50,220000
0,806106	-13,156603	70,024	-0,139787	22,550000	50,220000
0,804086	-12,923504	70,124	-0,139694	22,550000	50,220000
0,802128	-13,040054	70,225	-0,139741	22,550000	50,220000
0,800079	-12,773830	70,325	-0,139635	22,550000	50,220000
0,798093	-12,458533	70,425	-0,139509	22,550000	50,220000
0,796098	-12,483070	70,525	-0,139519	22,550000	50,220000
[...]
4,085719	2950,061587	229,708	1,039683	22,540000	50,095000
4,075771	2941,650391	230,208	1,036335	22,540000	50,095000
4,065703	2931,478682	230,709	1,032287	22,540000	50,095000
4,055724	2920,567191	231,211	1,027944	22,540000	50,095000
4,045766	2909,863036	231,712	1,023684	22,540000	50,095000
4,035680	2898,917193	232,212	1,019327	22,530000	50,055000
4,025744	2890,241000	232,712	1,015874	22,530000	50,055000
4,015790	2880,060704	233,213	1,011822	22,530000	50,055000
4,005697	2869,963833	233,715	1,007804	22,530000	50,055000
3,995720	2858,386169	234,216	1,003196	22,540000	50,085000
3,985738	2850,557720	234,717	1,000080	22,540000	50,085000
3,975701	2840,186038	235,219	0,995952	22,540000	50,085000
3,965750	2828,210879	235,719	0,991186	22,540000	50,085000
3,955774	2819,900283	236,219	0,987878	22,540000	50,095000
3,945741	2809,652511	236,719	0,983800	22,540000	50,095000
3,935742	2797,170668	237,219	0,978832	22,540000	50,095000
3,925744	2787,589068	237,719	0,975019	22,540000	50,095000
3,915752	2779,045373	238,219	0,971618	22,530000	50,095000
3,905757	2766,903364	238,720	0,966786	22,530000	50,095000
3,895748	2758,933829	239,221	0,963614	22,530000	50,095000
3,885764	2748,927744	239,723	0,959631	22,530000	50,095000
3,875730	2736,818860	240,223	0,954812	22,540000	50,085000
3,865757	2726,596851	240,723	0,950744	22,540000	50,085000
3,855729	2716,174868	241,224	0,946596	22,540000	50,085000
3,845749	2706,859493	241,726	0,942888	22,540000	50,085000
3,835714	2697,833651	242,228	0,939296	22,540000	50,085000
3,825764	2687,902403	242,729	0,935343	22,540000	50,085000
3,815735	2677,979742	243,229	0,931394	22,540000	50,085000
3,805768	2665,621810	243,730	0,926476	22,540000	50,085000
3,795741	2655,250128	244,231	0,922348	22,540000	50,110000
3,785721	2647,330893	244,732	0,919196	22,540000	50,110000
3,775781	2635,246545	245,232	0,914386	22,540000	50,110000
3,765784	2627,318723	245,733	0,911231	22,540000	50,110000
3,755834	2614,910490	246,234	0,906292	22,530000	50,095000
3,745753	2606,558182	246,734	0,902968	22,530000	50,095000
3,735791	2597,058780	247,236	0,899188	22,530000	50,095000
3,725780	2585,332669	247,739	0,894521	22,530000	50,095000
3,715782	2574,487427	248,240	0,890204	22,530000	50,110000
3,705729	2566,127758	248,742	0,886877	22,530000	50,110000
3,695749	2554,276510	249,243	0,882160	22,530000	50,110000
3,685767	2544,294961	249,746	0,878188	22,530000	50,110000
3,675734	2534,156378	250,248	0,874152	22,540000	50,095000
3,665777	2525,903443	250,749	0,870868	22,540000	50,095000
3,655756	2516,139045	251,251	0,866981	22,540000	50,095000
3,645768	2506,132960	251,752	0,862999	22,540000	50,095000
3,635750	2494,098913	252,252	0,858209	22,540000	50,085000
3,625800	2484,425300	252,754	0,854359	22,540000	50,085000
3,615746	2475,658321	253,254	0,850870	22,540000	50,085000
3,605788	2465,377424	253,759	0,846778	22,540000	50,085000
3,595760	2455,230253	254,261	0,842740	22,540000	50,085000
3,585788	2445,349305	254,763	0,838807	22,540000	50,085000
3,575767	2433,024497	255,264	0,833902	22,540000	50,085000
3,565779	2422,901863	255,768	0,829873	22,540000	50,085000
3,555778	2414,375344	256,269	0,826479	22,530000	50,055000
3,545781	2403,081079	256,770	0,821984	22,530000	50,055000
3,535800	2394,429423	257,270	0,818541	22,530000	50,055000
3,525812	2383,169510	257,771	0,814060	22,530000	50,055000
3,515797	2374,443016	258,272	0,810586	22,530000	50,055000
3,505760	2363,822285	258,773	0,806359	22,530000	50,055000
3,495803	2352,494896	259,276	0,801851	22,530000	50,055000
3,485798	2343,643265	259,777	0,798328	22,530000	50,055000
3,475871	2331,983403	260,278	0,793687	22,550000	50,060000
3,465787	2324,088705	260,779	0,790545	22,550000	50,060000
3,455843	2313,701074	261,279	0,786411	22,550000	50,060000
3,445783	2301,891538	261,781	0,781711	22,550000	50,060000
3,435823	2293,081619	262,284	0,778205	22,540000	50,085000
3,425850	2283,698767	262,784	0,774470	22,540000	50,085000
3,415805	2271,258637	263,285	0,769519	22,540000	50,085000
3,405813	2261,567849	263,787	0,765662	22,540000	50,085000
3,395858	2253,506301	264,288	0,762454	22,540000	50,085000
3,385804	2242,511385	264,789	0,758078	22,540000	50,085000
3,375838	2232,297964	265,291	0,754013	22,540000	50,085000
3,365851	2222,857451	265,792	0,750255	22,540000	50,085000
3,355890	2211,197590	266,295	0,745615	22,540000	50,085000
3,345827	2202,794981	266,796	0,742271	22,540000	50,085000
3,335825	2192,938570	267,298	0,738348	22,540000	50,085000
3,325824	2183,024497	267,800	0,734402	22,540000	50,085000
3,315836	2171,007626	268,303	0,729619	22,540000	50,085000
3,305819	2160,827330	268,803	0,725567	22,540000	50,085000
3,295872	2151,935213	269,303	0,722028	22,540000	50,085000
3,285853	2140,980783	269,805	0,717668	22,540000	50,085000
3,275824	2131,216385	270,307	0,713782	22,520000	50,110000
3,265883	2121,259373	270,808	0,709819	22,520000	50,110000
3,255860	2110,257096	271,310	0,705440	22,520000	50,110000
3,245856	2101,713401	271,810	0,702040	22,520000	50,110000
3,235837	2091,499980	272,310	0,697975	22,520000	50,110000
3,225844	2079,474521	272,813	0,693189	22,520000	50,110000
3,215879	2071,604360	273,315	0,690057	22,520000	50,110000
3,205842	2061,265802	273,817	0,685942	22,520000	50,110000
3,195843	2050,960368	274,317	0,681840	22,540000	50,095000
3,185874	2039,150832	274,818	0,677140	22,540000	50,095000
3,175836	2030,932249	275,319	0,673869	22,540000	50,095000
3,165860	2020,901627	275,819	0,669877	22,540000	50,095000
3,155884	2010,836654	276,320	0,665871	22,540000	50,095000
3,145821	2000,631821	276,821	0,661810	22,540000	50,095000
3,135891	1989,562068	277,322	0,657404	22,540000	50,095000
3,125938	1980,128916	277,824	0,653649	22,540000	50,095000
3,115884	1970,314218	278,326	0,649743	22,540000	50,095000
3,105920	1958,488733	278,829	0,645037	22,540000	50,095000
3,095860	1950,169549	279,329	0,641726	22,540000	50,095000
3,085895	1938,252051	279,830	0,636982	22,540000	50,095000
3,075878	1930,556101	280,330	0,633919	22,530000	50,085000
3,065841	1918,039907	280,833	0,628938	22,530000	50,085000
3,055837	1908,150371	281,335	0,625002	22,530000	50,085000
3,045921	1897,712439	281,836	0,620848	22,530000	50,085000
3,035902	1889,252169	282,338	0,617480	22,540000	50,070000
3,025882	1877,833994	282,842	0,612936	22,540000	50,070000
3,015870	1869,373724	283,344	0,609569	22,540000	50,070000
3,005897	1857,181415	283,846	0,604716	22,540000	50,070000
2,995939	1849,170167	284,348	0,601528	22,530000	50,110000
2,985898	1836,754574	284,851	0,596586	22,530000	50,110000
2,975913	1829,299083	285,351	0,593619	22,530000	50,110000
2,965952	1817,680934	285,854	0,588995	22,530000	50,110000
2,955948	1809,196127	286,359	0,585618	22,530000	50,070000
2,945884	1798,833032	286,859	0,581494	22,530000	50,070000
2,935888	1787,223471	287,361	0,576873	22,530000	50,070000
2,925923	1778,638063	287,861	0,573456	22,530000	50,070000
2,915931	1768,889614	288,361	0,569576	22,530000	50,085000
2,905982	1756,581982	288,862	0,564678	22,530000	50,085000
2,895883	1748,578096	289,362	0,561492	22,530000	50,085000
2,885919	1736,371064	289,863	0,556634	22,530000	50,085000
2,875885	1728,574513	290,363	0,553531	22,540000	50,095000
2,865954	1716,242345	290,864	0,548623	22,540000	50,095000
2,855935	1708,321883	291,366	0,545470	22,540000	50,095000
2,845942	1698,240961	291,868	0,541458	22,540000	50,095000
2,835899	1687,595693	292,369	0,537221	22,540000	50,095000
2,825953	1677,930669	292,871	0,533375	22,540000	50,095000
2,815925	1668,488929	293,372	0,529617	22,540000	50,095000
2,805920	1657,925860	293,873	0,525413	22,540000	50,095000
2,795945	1647,870701	294,377	0,521411	22,540000	50,110000
2,785933	1637,798367	294,878	0,517402	22,540000	50,110000
2,775903	1627,841355	295,380	0,513439	22,540000	50,110000
2,765895	1615,900548	295,881	0,508687	22,540000	50,110000
2,755948	1608,312559	296,382	0,505667	22,540000	50,045000
2,745944	1595,854026	296,883	0,500708	22,540000	50,045000
2,735927	1585,873704	297,384	0,496736	22,540000	50,045000
2,725932	1575,526559	297,884	0,492618	22,540000	50,045000
2,715923	1566,709279	298,384	0,489108	22,540000	50,085000
2,705949	1557,425801	298,885	0,485414	22,540000	50,085000
2,695905	1546,306974	299,386	0,480988	22,540000	50,085000
2,685934	1535,369720	299,887	0,476635	22,540000	50,085000
2,675939	1525,753769	300,387	0,472808	22,540000	50,085000
2,665914	1516,520591	300,888	0,469133	22,540000	50,085000
2,655970	1507,329126	301,391	0,465475	22,540000	50,085000
2,645943	1494,955245	301,892	0,460550	22,540000	50,085000
2,635917	1486,844624	302,393	0,457322	22,540000	50,095000
2,625945	1477,087586	302,893	0,453439	22,540000	50,095000
2,615924	1467,106038	303,394	0,449466	22,540000	50,095000
2,605928	1456,352809	303,895	0,445187	22,540000	50,095000
2,595971	1444,842621	304,396	0,440605	22,540000	50,095000
2,585931	1436,805610	304,897	0,437407	22,540000	50,095000
2,575891	1424,872164	305,399	0,432657	22,540000	50,095000
2,565977	1416,752954	305,902	0,429426	22,540000	50,095000
2,555928	1406,771406	306,403	0,425453	22,540000	50,070000
2,545916	1396,632822	306,903	0,421418	22,540000	50,070000
2,535918	1384,689561	307,406	0,416665	22,540000	50,070000
2,525952	1374,775489	307,908	0,412719	22,540000	50,070000
2,515903	1366,556906	308,410	0,409448	22,530000	50,070000
2,505944	1356,566769	308,910	0,405472	22,530000	50,070000
2,495927	1346,461310	309,411	0,401450	22,530000	50,070000
2,485978	1334,884874	309,912	0,396842	22,530000	50,070000
2,475927	1326,499441	310,415	0,393505	22,540000	50,070000
2,465946	1315,520473	310,916	0,389135	22,540000	50,070000
2,455943	1304,750069	311,417	0,384849	22,540000	50,070000
2,445930	1295,450642	311,917	0,381147	22,540000	50,070000
2,435946	1286,624774	312,419	0,377635	22,530000	50,045000
2,425943	1276,202791	312,924	0,373487	22,530000	50,045000
2,415936	1266,779454	313,427	0,369736	22,530000	50,045000
2,405928	1256,357471	313,927	0,365588	22,530000	50,045000
2,395917	1244,457149	314,428	0,360852	22,530000	50,045000
2,385967	1234,334514	314,928	0,356823	22,530000	50,045000
2,375987	1226,323267	315,429	0,353635	22,530000	50,045000
2,365941	1215,777373	315,930	0,349438	22,530000	50,045000
2,355906	1204,499058	316,430	0,344949	22,540000	50,070000
2,345912	1194,618110	316,931	0,341016	22,540000	50,070000
2,335918	1186,257214	317,432	0,337688	22,540000	50,070000
2,325940	1175,037787	317,932	0,333223	22,540000	50,070000
2,315942	1164,782654	318,433	0,329142	22,540000	50,055000
2,305939	1154,652658	318,933	0,325110	22,540000	50,055000
2,295901	1145,087007	319,435	0,321303	22,540000	50,055000
2,285944	1134,607363	319,935	0,317132	22,540000	50,055000
2,275954	1126,155681	320,436	0,313768	22,520000	50,070000
2,265962	1116,107883	320,937	0,309769	22,520000	50,070000
2,255966	1104,463970	321,438	0,305135	22,520000	50,070000
2,245950	1096,485847	321,940	0,301959	22,520000	50,070000
2,235991	1086,571775	322,442	0,298014	22,540000	50,085000
2,225972	1076,657703	322,943	0,294068	22,540000	50,085000
2,215947	1066,061509	323,444	0,289851	22,540000	50,085000
2,205956	1054,201672	323,946	0,285130	22,540000	50,085000
2,195948	1044,660559	324,446	0,281333	22,540000	50,055000
2,185902	1036,034666	324,949	0,277900	22,540000	50,055000
2,175956	1026,204018	325,450	0,273987	22,540000	50,055000
2,165946	1015,740323	325,952	0,269823	22,540000	50,055000
2,155952	1006,307171	326,453	0,266068	22,520000	50,085000
2,145900	996,716983	326,955	0,262251	22,520000	50,085000
2,135939	984,891499	327,458	0,257545	22,520000	50,085000
2,125927	974,901362	327,962	0,253569	22,520000	50,085000
2,115922	964,555443	328,463	0,249451	22,540000	50,070000
2,105907	954,357971	328,963	0,245393	22,540000	50,070000
2,095934	945,183682	329,465	0,241741	22,540000	50,070000
2,085954	936,257214	329,967	0,238188	22,540000	50,070000
2,075948	926,475640	330,469	0,234295	22,530000	50,070000
2,065978	916,636405	330,970	0,230379	22,530000	50,070000
2,055927	906,106460	331,471	0,226188	22,530000	50,070000
2,045989	896,632822	331,972	0,222418	22,530000	50,070000
2,035896	886,302852	332,473	0,218307	22,530000	50,070000
2,025975	876,670952	332,974	0,214473	22,530000	50,070000
2,015949	866,639104	333,476	0,210480	22,530000	50,070000
2,005918	854,463970	333,976	0,205635	22,530000	50,070000
1,995934	844,491010	334,478	0,201666	22,530000	50,085000
1,985959	836,638024	334,979	0,198540	22,530000	50,085000
1,975913	824,529140	335,480	0,193721	22,530000	50,085000
1,965979	816,576780	335,983	0,190556	22,530000	50,085000
1,955900	805,905749	336,483	0,186309	22,530000	50,110000
1,945901	796,124176	336,986	0,182416	22,530000	50,110000
1,935894	786,567113	337,488	0,178612	22,530000	50,110000
1,925911	776,660402	337,989	0,174669	22,530000	50,110000
1,915955	764,676655	338,490	0,169899	22,530000	50,110000
1,905959	756,200436	338,994	0,166526	22,530000	50,110000
1,895899	746,758696	339,495	0,162768	22,530000	50,110000
1,885946	734,982284	339,997	0,158081	22,530000	50,110000
1,875946	725,832532	340,499	0,154439	22,540000	50,110000
1,865956	715,660824	341,000	0,150391	22,540000	50,110000
1,855983	706,111122	341,501	0,146590	22,540000	50,110000
1,846024	696,197050	342,001	0,142645	22,540000	50,110000
1,835984	686,340639	342,501	0,138722	22,540000	50,055000
1,825964	676,816701	343,001	0,134931	22,540000	50,055000
1,815959	665,040289	343,505	0,130244	22,540000	50,055000
1,806002	655,234179	344,006	0,126341	22,540000	50,055000
1,795950	647,156682	344,507	0,123126	22,540000	50,045000
1,785964	637,133421	345,008	0,119137	22,540000	50,045000
1,775973	627,334671	345,509	0,115237	22,540000	50,045000
1,765916	615,568075	346,012	0,110554	22,540000	50,045000
1,756032	606,368022	346,513	0,106893	22,540000	50,045000
1,746018	596,586448	347,014	0,103000	22,540000	50,045000
1,735961	585,283596	347,517	0,098501	22,540000	50,045000
1,725966	577,580284	348,017	0,095435	22,540000	50,045000
1,715979	567,473598	348,518	0,091413	22,530000	50,070000
1,705951	557,359552	349,019	0,087387	22,530000	50,070000
1,696013	545,657977	349,519	0,082730	22,530000	50,070000
1,685985	537,530180	350,020	0,079495	22,530000	50,070000
1,675959	528,089667	350,522	0,075738	22,530000	50,070000
1,665967	517,900783	351,026	0,071683	22,530000	50,070000
1,655964	506,050762	351,527	0,066966	22,530000	50,070000
1,645945	496,119514	352,028	0,063014	22,530000	50,070000
1,635965	486,536687	352,531	0,059200	22,530000	50,045000
1,625958	477,071637	353,032	0,055433	22,530000	50,045000
1,615911	466,050958	353,535	0,051046	22,530000	50,045000
1,605980	458,023761	354,037	0,047852	22,530000	50,045000
1,595958	448,275312	354,537	0,043972	22,530000	50,095000
1,585990	438,709662	355,039	0,040165	22,530000	50,095000
1,575942	426,384854	355,541	0,035259	22,530000	50,095000
1,566015	416,420481	356,042	0,031293	22,530000	50,095000
1,555952	408,882793	356,544	0,028293	22,530000	50,070000
1,545966	398,561411	357,046	0,024186	22,530000	50,070000
1,535984	388,712361	357,549	0,020266	22,530000	50,070000
1,525984	377,376384	358,049	0,015754	22,530000	50,070000
1,515923	367,944459	358,550	0,012000	22,540000	50,070000
1,505957	358,462233	359,051	0,008226	22,540000	50,070000
1,495990	347,068595	359,551	0,003691	22,540000	50,070000
1,485959	338,815660	360,052	0,000407	22,540000	50,070000
1,475995	329,058623	360,553	-0,003477	22,540000	50,110000
1,465948	319,153139	361,057	-0,007419	22,540000	50,110000
1,455934	307,227053	361,557	-0,012166	22,540000	50,110000
1,445946	299,041595	362,058	-0,015423	22,540000	50,110000
1,436004	287,232059	362,559	-0,020124	22,540000	50,085000
1,425960	277,241923	363,061	-0,024100	22,540000	50,085000
1,415963	267,493473	363,561	-0,027979	22,540000	50,085000
1,405990	259,283478	364,064	-0,031247	22,540000	50,085000
1,395988	248,080000	364,564	-0,035706	22,530000	50,085000
1,385948	239,022260	365,066	-0,039311	22,530000	50,085000
1,376010	229,040711	365,566	-0,043284	22,530000	50,085000
1,365989	219,400224	366,067	-0,047121	22,530000	50,085000
1,355973	210,025960	366,568	-0,050852	22,540000	50,095000
1,345989	199,713165	367,072	-0,054956	22,540000	50,095000
1,335948	190,088627	367,573	-0,058787	22,540000	50,095000
1,325984	179,908331	368,074	-0,062838	22,540000	50,095000
1,315982	169,985671	368,576	-0,066788	22,520000	50,070000
1,305975	159,887573	369,077	-0,070807	22,520000	50,070000
1,296033	148,934369	369,579	-0,075166	22,520000	50,070000
1,285971	138,571274	370,079	-0,079291	22,520000	50,070000
1,275984	129,172474	370,581	-0,083031	22,540000	50,095000
1,265956	119,648536	371,083	-0,086822	22,540000	50,095000
1,255960	108,553019	371,585	-0,091238	22,540000	50,095000
1,245990	99,918538	372,086	-0,094674	22,540000	50,095000
1,236006	90,386012	372,588	-0,098468	22,540000	50,095000
1,225948	79,956668	373,089	-0,102619	22,540000	50,095000
1,216040	69,891695	373,589	-0,106625	22,540000	50,095000
1,206000	60,010747	374,089	-0,110558	22,540000	50,095000
1,196007	47,844201	374,590	-0,115400	22,530000	50,055000
1,186016	39,267382	375,090	-0,118813	22,530000	50,055000
1,175983	29,419559	375,590	-0,122733	22,530000	50,055000
1,165957	18,932553	376,092	-0,126907	22,530000	50,055000
1,155989	7,163503	376,593	-0,131591	22,530000	50,055000
1,145987	-2,243885	377,094	-0,135335	22,530000	50,055000
1,135957	-12,499019	377,594	-0,139417	22,530000	50,055000
1,126012	-22,654778	378,096	-0,143458	22,530000	50,055000
1,116015	-32,586026	378,596	-0,147411	22,530000	50,070000
1,105964	-42,633823	379,097	-0,151410	22,530000	50,070000
1,096016	-52,347921	379,599	-0,155276	22,530000	50,070000
1,085969	-62,395719	380,101	-0,159275	22,530000	50,070000
1,075987	-74,196667	380,601	-0,163972	22,530000	50,070000
1,065996	-82,656937	381,103	-0,167339	22,530000	50,070000
1,055994	-92,638485	381,604	-0,171312	22,530000	50,070000
1,046013	-104,862692	382,104	-0,176177	22,530000	50,070000
1,036010	-115,235602	382,607	-0,180306	22,540000	50,070000
1,026024	-122,921738	383,107	-0,183365	22,540000	50,070000
1,015995	-134,931248	383,609	-0,188145	22,540000	50,070000
1,006008	-143,382930	384,109	-0,191508	22,540000	50,070000
0,996004	-155,324965	384,610	-0,196261	22,540000	50,070000
0,985995	-165,264801	385,113	-0,200217	22,540000	50,070000
0,975993	-173,799908	385,617	-0,203614	22,540000	50,070000
0,966017	-184,145827	386,119	-0,207732	22,540000	50,070000
0,955988	-196,122213	386,621	-0,212499	22,540000	50,070000
0,946032	-206,152834	387,124	-0,216491	22,540000	50,070000
0,935990	-214,472018	387,626	-0,219802	22,540000	50,070000
0,926054	-225,143049	388,128	-0,224049	22,540000	50,070000
0,916015	-234,816661	388,628	-0,227899	22,530000	50,095000
0,906005	-245,296306	389,130	-0,232070	22,530000	50,095000
0,895975	-254,994455	389,630	-0,235930	22,530000	50,095000
0,885961	-266,596655	390,132	-0,240547	22,530000	50,095000
0,875981	-275,280210	390,632	-0,244003	22,530000	50,095000
0,865988	-284,729311	391,134	-0,247764	22,530000	50,095000
0,855986	-297,262681	391,637	-0,252752	22,530000	50,095000
0,845970	-306,828331	392,138	-0,256560	22,530000	50,095000
0,836005	-317,116589	392,638	-0,260654	22,520000	50,085000
0,826017	-324,927862	393,138	-0,263763	22,520000	50,085000
0,815987	-335,349845	393,641	-0,267911	22,520000	50,085000
0,805970	-346,727534	394,144	-0,272439	22,520000	50,085000
0,795981	-355,860111	394,646	-0,276074	22,530000	50,095000
0,785952	-365,617148	395,148	-0,279958	22,530000	50,095000
0,775962	-374,135080	395,649	-0,283348	22,530000	50,095000
0,765981	0,249048	396,149	-0,134343	22,530000	50,095000
0,755992	0,000000	396,649	-0,134442	22,540000	50,095000
0,745969	0,224511	397,150	-0,134353	22,540000	50,095000
0,736003	0,182799	397,650	-0,134369	22,540000	50,095000
0,725979	0,125137	398,152	-0,134392	22,540000	50,095000
0,716011	0,224511	398,653	-0,134353	22,540000	50,110000
0,706022	0,092013	399,154	-0,134405	22,540000	50,110000
0,695999	0,107962	399,655	-0,134399	22,540000	50,110000
0,685980	0,283399	400,159	-0,134329	22,540000	50,110000
0,675969	0,182799	400,660	-0,134369	22,540000	50,110000
0,666004	0,332473	401,162	-0,134310	22,540000	50,110000
0,656011	0,806032	401,663	-0,134121	22,540000	50,110000
0,645957	0,323885	402,166	-0,134313	22,540000	50,110000
0,644004	0,149674	402,267	-0,134382	22,520000	50,110000