File: Nanoindentation Datenauswertung/data/PDMS/13.09/APM-PDMS-150ms,3um,7nms,9cycles,1,5um offset,5x1-2
Quasi static measurement routine
Tip parameters (shape,radius, material...)
13.09.2022

Piezo position[nm]	MEMS displ.[nm]	Time[ms]	Cap [pf]	Temp [°C]	Rh [%]
eoh

X-Pos [um]	Y-Pos [um]
0,000278	10,000814

POC
2,102017
0,613102	-0,071738	2,705	-0,075814	22,300000	52,035000
0,625143	0,234884	4,507	-0,075685	22,300000	52,035000
0,637102	-0,188602	6,314	-0,075864	22,290000	52,040000
0,649167	0,164303	8,118	-0,075715	22,300000	52,035000
0,661121	0,070581	9,921	-0,075754	22,310000	52,035000
0,673187	-0,032398	11,725	-0,075798	22,290000	52,015000
0,685141	-0,180502	13,526	-0,075860	22,300000	52,010000
0,697162	0,006942	15,330	-0,075781	22,300000	52,035000
0,709078	0,171246	17,133	-0,075712	22,300000	52,020000
0,721121	-0,149261	18,935	-0,075847	22,300000	52,020000
0,733158	-0,211743	20,738	-0,075874	22,300000	52,020000
0,745163	-0,400344	22,539	-0,075953	22,290000	52,030000
0,757141	-0,259182	24,342	-0,075894	22,290000	52,015000
0,769146	0,077523	26,145	-0,075751	22,290000	52,015000
0,781114	-0,141162	27,950	-0,075844	22,290000	52,005000
0,793179	-0,313564	29,752	-0,075917	22,290000	52,005000
0,805140	-0,008099	31,554	-0,075788	22,300000	52,020000
0,817130	0,000000	33,358	-0,075784	22,310000	52,035000
0,829107	-0,392245	35,161	-0,075950	22,290000	52,030000
0,841141	-0,118021	36,962	-0,075834	22,300000	52,035000
0,853126	-0,211743	38,766	-0,075874	22,300000	52,035000
0,865111	0,031241	40,567	-0,075771	22,300000	52,035000
0,877114	0,000000	42,370	-0,075784	22,290000	52,030000
0,889092	-0,071738	44,173	-0,075814	22,290000	52,055000
0,901160	-0,063639	45,974	-0,075811	22,290000	52,055000
0,913145	0,218685	47,778	-0,075692	22,290000	52,070000
0,925140	-0,305465	49,580	-0,075913	22,310000	52,020000
0,937098	-0,101822	51,385	-0,075827	22,310000	52,020000
0,949102	-0,204800	53,190	-0,075871	22,290000	52,030000
0,961117	-0,109921	54,994	-0,075831	22,300000	52,045000
0,973153	-0,313564	56,796	-0,075917	22,300000	52,045000
0,985097	-0,344805	58,598	-0,075930	22,300000	52,045000
0,997098	-0,344805	60,401	-0,075930	22,300000	52,045000
1,009160	-0,196701	62,204	-0,075867	22,300000	52,045000
1,021102	-0,344805	64,006	-0,075930	22,290000	52,040000
1,033121	-0,447784	65,808	-0,075973	22,290000	52,040000
1,045119	0,179345	67,612	-0,075708	22,290000	52,030000
1,057126	-0,016199	69,415	-0,075791	22,290000	52,055000
1,069182	-0,211743	71,219	-0,075874	22,290000	52,055000
1,081107	-0,180502	73,024	-0,075860	22,300000	52,060000
1,093139	-0,275381	74,829	-0,075900	22,300000	52,060000
1,105137	-0,392245	76,631	-0,075950	22,300000	52,060000
1,117122	0,046283	78,434	-0,075765	22,290000	52,015000
1,129073	-0,369104	80,238	-0,075940	22,290000	52,015000
1,141139	-0,352905	82,042	-0,075933	22,300000	52,085000
1,153108	-0,211743	83,844	-0,075874	22,300000	52,045000
1,165132	-0,344805	85,644	-0,075930	22,300000	52,045000
1,177106	-0,517208	87,445	-0,076002	22,290000	52,070000
1,189101	-0,305465	89,246	-0,075913	22,300000	52,020000
1,201109	-0,282324	91,052	-0,075903	22,300000	52,045000
1,213137	-0,188602	92,856	-0,075864	22,300000	52,045000
1,225110	-0,259182	94,660	-0,075894	22,300000	52,045000
1,237116	-0,517208	96,462	-0,076002	22,300000	52,035000
1,249132	-0,071738	98,266	-0,075814	22,300000	52,035000
1,261100	-0,259182	100,067	-0,075894	22,300000	52,035000
1,273154	-0,329763	101,872	-0,075923	22,300000	52,035000
1,285097	-0,244141	103,676	-0,075887	22,300000	52,075000
1,297150	-0,352905	105,479	-0,075933	22,300000	52,075000
1,309106	-0,329763	107,282	-0,075923	22,300000	52,045000
1,321087	-0,556548	109,084	-0,076019	22,300000	52,060000
1,333110	-0,165460	110,886	-0,075854	22,300000	52,060000
1,345054	-0,470925	112,688	-0,075983	22,300000	52,045000
1,357109	-0,423486	114,491	-0,075963	22,300000	52,045000
1,369124	-0,470925	116,297	-0,075983	22,300000	52,035000
1,381116	-0,377203	118,104	-0,075943	22,290000	52,040000
1,393081	-0,298523	119,907	-0,075910	22,290000	52,055000
1,405149	-0,487124	121,709	-0,075990	22,290000	52,055000
1,417128	-0,454726	123,514	-0,075976	22,290000	52,030000
1,429117	-0,447784	125,316	-0,075973	22,290000	52,040000
1,441104	-0,659527	127,120	-0,076063	22,290000	52,040000
1,453072	-0,556548	128,920	-0,076019	22,290000	52,040000
1,465094	-0,620187	130,723	-0,076046	22,300000	52,075000
1,477081	-0,556548	132,526	-0,076019	22,300000	52,035000
1,489113	-0,517208	134,332	-0,076002	22,290000	52,030000
1,501083	-0,470925	136,139	-0,075983	22,290000	52,030000
1,513145	-0,541506	137,944	-0,076013	22,310000	52,020000
1,525154	-0,713909	139,747	-0,076085	22,290000	52,040000
1,537060	-0,666469	141,549	-0,076065	22,300000	52,010000
1,549059	-0,720851	143,355	-0,076088	22,290000	52,040000
1,561040	-0,479025	145,158	-0,075986	22,310000	52,060000
1,573094	-0,329763	146,960	-0,075923	22,290000	52,040000
1,585048	-0,651427	148,765	-0,076059	22,290000	52,040000
1,597095	-0,682668	150,568	-0,076072	22,290000	52,040000
1,609081	-0,587789	152,372	-0,076032	22,300000	52,035000
1,621155	-0,720851	154,174	-0,076088	22,290000	52,040000
1,633067	-0,753249	155,977	-0,076102	22,290000	52,040000
1,645096	-0,776390	157,780	-0,076112	22,300000	52,035000
1,657143	-0,971934	159,585	-0,076194	22,290000	52,040000
1,669110	-0,878212	161,388	-0,076155	22,290000	52,040000
1,681124	-0,792589	163,192	-0,076119	22,300000	52,075000
1,693047	-0,728951	164,995	-0,076092	22,290000	52,015000
1,705050	-0,894411	166,796	-0,076162	22,290000	52,015000
1,717066	-0,815731	168,596	-0,076128	22,290000	52,040000
1,729027	-0,784490	170,399	-0,076115	22,290000	52,040000
1,741055	-1,129295	172,200	-0,076261	22,310000	52,075000
1,753098	-1,309797	174,004	-0,076337	22,310000	52,075000
1,765059	-1,098054	175,807	-0,076248	22,300000	52,020000
1,777056	-1,081855	177,610	-0,076241	22,290000	52,030000
1,789084	-0,971934	179,415	-0,076194	22,300000	52,075000
1,801096	-1,285499	181,217	-0,076327	22,300000	52,075000
1,813020	-176,189694	183,018	-0,150136	22,300000	52,075000
1,825061	-180,085530	184,823	-0,151780	22,300000	52,075000
1,837065	-174,316406	186,625	-0,149346	22,290000	52,030000
1,849123	-168,587780	188,428	-0,146928	22,300000	52,060000
1,861071	-161,423236	190,229	-0,143905	22,300000	52,045000
1,873016	-154,447293	192,030	-0,140961	22,300000	52,045000
1,885093	-147,049023	193,833	-0,137839	22,300000	52,075000
1,897042	-139,736374	195,633	-0,134753	22,290000	52,055000
1,909049	-132,282564	197,436	-0,131607	22,290000	52,055000
1,921037	-124,843796	199,240	-0,128468	22,300000	52,045000
1,933019	-116,754758	201,044	-0,125055	22,300000	52,060000
1,945124	-109,254665	202,848	-0,121890	22,300000	52,060000
1,957082	-101,666636	204,650	-0,118688	22,300000	52,060000
1,969088	-93,060390	206,455	-0,115056	22,290000	52,070000
1,981001	-85,629721	208,257	-0,111920	22,290000	52,070000
1,993046	-78,215251	210,062	-0,108791	22,300000	52,060000
2,005072	-70,362254	211,864	-0,105477	22,300000	52,060000
2,017036	-61,951551	213,667	-0,101928	22,300000	52,060000
2,029005	-54,505841	215,468	-0,098786	22,300000	52,060000
2,041031	-46,785906	217,272	-0,095528	22,300000	52,060000
2,052971	-39,268457	219,074	-0,092355	22,300000	52,075000
2,065062	-31,352979	220,876	-0,089015	22,300000	52,075000
2,077073	-22,495649	222,680	-0,085277	22,300000	52,060000
2,089016	-15,104321	224,484	-0,082158	22,290000	52,080000
2,100966	-7,046523	226,288	-0,078758	22,300000	52,060000
2,113029	0,328606	228,090	-0,075646	22,300000	52,085000
2,125054	8,636330	229,892	-0,072140	22,300000	52,085000
2,137026	16,506683	231,692	-0,068818	22,300000	52,045000
2,149035	24,164137	233,496	-0,065587	22,300000	52,085000
2,161107	32,292515	235,298	-0,062157	22,290000	52,030000
2,173084	39,683844	237,102	-0,059038	22,290000	52,030000
2,185041	48,508775	238,907	-0,055313	22,290000	52,030000
2,197075	55,790183	240,710	-0,052241	22,290000	52,055000
2,209117	64,232126	242,512	-0,048678	22,290000	52,055000
2,221060	70,996325	244,314	-0,045824	22,290000	52,015000
2,233046	79,547032	246,117	-0,042215	22,290000	52,015000
2,245102	86,961502	247,920	-0,039086	22,300000	52,075000
2,257024	95,372205	249,723	-0,035537	22,300000	52,035000
2,269085	103,100239	251,526	-0,032276	22,300000	52,035000
2,268992	101,901520	253,329	-0,032782	22,290000	52,095000
2,269103	101,665479	255,133	-0,032881	22,290000	52,070000
2,269034	100,481802	256,937	-0,033381	22,290000	52,070000
2,269033	100,059473	258,738	-0,033559	22,300000	52,020000
2,269074	99,494826	260,542	-0,033797	22,300000	52,020000
2,264027	95,841973	262,345	-0,035339	22,290000	52,055000
2,252036	85,887746	264,148	-0,039540	22,300000	52,020000
2,240026	76,898512	265,954	-0,043333	22,290000	52,070000
2,228008	67,539016	267,756	-0,047283	22,290000	52,040000
2,237051	73,904028	269,440	-0,044597	22,290000	52,055000
2,249066	83,129304	271,243	-0,040704	22,290000	52,080000
2,261022	92,817406	273,045	-0,036615	22,300000	52,085000
2,273080	100,286258	274,850	-0,033463	22,300000	52,085000
2,285129	109,488392	276,652	-0,029580	22,300000	52,085000
2,297011	117,725535	278,455	-0,026104	22,290000	52,040000
2,309077	125,712752	280,257	-0,022733	22,290000	52,070000
2,321141	133,683770	282,062	-0,019370	22,300000	52,060000
2,333042	142,642921	283,864	-0,015589	22,290000	52,030000
2,345062	150,833781	285,668	-0,012132	22,300000	52,075000
2,357075	158,694877	287,472	-0,008815	22,300000	52,075000
2,369065	167,716510	289,277	-0,005008	22,290000	52,055000
2,381011	175,068498	291,078	-0,001905	22,290000	52,040000
2,393082	183,321840	292,880	0,001578	22,290000	52,040000
2,405096	191,348397	294,681	0,004965	22,290000	52,040000
2,417070	199,813481	296,483	0,008537	22,300000	52,060000
2,429046	207,894420	298,286	0,011947	22,300000	52,060000
2,435980	213,333781	300,089	0,014243	22,290000	52,040000
2,435997	212,478710	301,892	0,013882	22,300000	52,045000
2,435958	211,640995	303,694	0,013528	22,300000	52,045000
2,436027	211,279991	305,498	0,013376	22,300000	52,035000
2,436065	210,825265	307,302	0,013184	22,300000	52,060000
2,436055	210,794024	309,102	0,013171	22,300000	52,060000
2,426073	202,555724	310,905	0,009694	22,300000	52,060000
2,414063	193,958734	312,707	0,006066	22,300000	52,075000
2,402080	184,443035	314,512	0,002051	22,290000	52,040000
2,390032	175,758109	316,314	-0,001614	22,290000	52,055000
2,378020	166,619613	318,114	-0,005471	22,290000	52,055000
2,366067	156,939610	319,920	-0,009556	22,290000	52,030000
2,354077	148,967436	321,723	-0,012920	22,300000	52,060000
2,361082	153,184936	323,417	-0,011140	22,300000	52,060000
2,373071	163,342806	325,217	-0,006854	22,300000	52,060000
2,385036	171,525566	327,023	-0,003400	22,300000	52,035000
2,397060	180,539100	328,826	0,000403	22,300000	52,035000
2,409065	189,404528	330,627	0,004145	22,300000	52,045000
2,421040	198,997751	332,433	0,008193	22,300000	52,075000
2,433030	207,126129	334,236	0,011623	22,300000	52,085000
2,445076	216,029741	336,040	0,015380	22,290000	52,070000
2,457050	224,337465	337,845	0,018886	22,290000	52,080000
2,469001	233,657620	339,651	0,022819	22,290000	52,080000
2,481027	241,354414	341,452	0,026067	22,300000	52,060000
2,493070	249,936361	343,256	0,029689	22,300000	52,060000
2,505013	258,002259	345,056	0,033093	22,300000	52,060000
2,517050	267,266875	346,860	0,037002	22,300000	52,060000
2,529005	273,129721	348,665	0,039477	22,300000	52,060000
2,540998	281,524224	350,468	0,043019	22,300000	52,085000
2,553026	289,362180	352,273	0,046327	22,290000	52,055000
2,565080	298,132729	354,075	0,050028	22,300000	52,085000
2,577074	305,445377	355,877	0,053114	22,290000	52,055000
2,589043	314,858098	357,680	0,057086	22,290000	52,055000
2,601067	322,782833	359,484	0,060430	22,310000	52,060000
2,603056	323,841547	361,286	0,060877	22,300000	52,075000
2,603042	323,300041	363,092	0,060648	22,290000	52,070000
2,603018	322,868456	364,894	0,060466	22,290000	52,070000
2,603049	322,524807	366,696	0,060321	22,290000	52,070000
2,603049	322,406787	368,498	0,060271	22,290000	52,070000
2,600053	320,352997	370,298	0,059405	22,290000	52,070000
2,588025	310,915979	372,102	0,055422	22,290000	52,070000
2,576110	300,640088	373,903	0,051086	22,300000	52,060000
2,564043	292,074339	375,710	0,047471	22,300000	52,045000
2,552025	282,581781	377,515	0,043465	22,300000	52,060000
2,540081	273,152862	379,319	0,039486	22,300000	52,045000
2,528028	264,789599	381,122	0,035957	22,300000	52,045000
2,516069	255,109597	382,925	0,031872	22,300000	52,045000
2,504053	246,276566	384,728	0,028145	22,300000	52,060000
2,491957	238,226868	386,532	0,024748	22,290000	52,070000
2,480104	229,032833	388,334	0,020868	22,310000	52,060000
2,487022	233,327857	390,021	0,022680	22,310000	52,060000
2,499015	243,501925	391,824	0,026974	22,290000	52,040000
2,510986	252,280574	393,630	0,030678	22,290000	52,055000
2,523106	261,576431	395,432	0,034601	22,290000	52,095000
2,535063	269,923495	397,233	0,038124	22,290000	52,095000
2,547036	279,313074	399,034	0,042086	22,300000	52,060000
2,559096	288,868113	400,837	0,046118	22,300000	52,060000
2,571066	296,917811	402,644	0,049515	22,300000	52,035000
2,583039	306,801457	404,447	0,053686	22,300000	52,085000
2,595001	314,475109	406,250	0,056924	22,290000	52,070000
2,607045	323,433103	408,051	0,060705	22,300000	52,085000
2,619024	332,407296	409,852	0,064492	22,300000	52,085000
2,631082	341,931094	411,657	0,068511	22,300000	52,060000
2,643000	350,514199	413,460	0,072133	22,300000	52,060000
2,655092	359,073006	415,268	0,075745	22,290000	52,040000
2,667042	366,996584	417,073	0,079088	22,290000	52,070000
2,679089	375,602831	418,877	0,082720	22,290000	52,070000
2,691051	384,718185	420,679	0,086567	22,290000	52,070000
2,703006	393,677336	422,482	0,090348	22,300000	52,045000
2,715068	402,040599	424,284	0,093877	22,300000	52,045000
2,727015	410,403862	426,086	0,097406	22,290000	52,055000
2,739067	418,711585	427,888	0,100912	22,290000	52,040000
2,751118	427,670736	429,689	0,104693	22,300000	52,075000
2,762976	435,830356	431,492	0,108136	22,300000	52,075000
2,769982	441,959327	433,295	0,110723	22,290000	52,080000
2,770060	440,690027	435,096	0,110187	22,300000	52,075000
2,769985	440,383405	436,901	0,110058	22,300000	52,075000
2,769988	439,631313	438,707	0,109740	22,300000	52,100000
2,769968	439,670653	440,512	0,109757	22,300000	52,100000
2,770083	439,309649	442,314	0,109604	22,290000	52,040000
2,760059	431,840797	444,115	0,106453	22,290000	52,040000
2,747978	421,721110	445,917	0,102182	22,290000	52,040000
2,736018	412,809399	447,721	0,098421	22,290000	52,080000
2,723962	403,921986	449,523	0,094671	22,290000	52,040000
2,712066	394,005943	451,326	0,090486	22,290000	52,070000
2,700002	385,706318	453,131	0,086984	22,290000	52,070000
2,687998	376,464844	454,933	0,083084	22,290000	52,070000
2,676114	366,433094	456,734	0,078851	22,290000	52,095000
2,664041	357,810649	458,540	0,075212	22,300000	52,075000
2,652017	348,938278	460,341	0,071468	22,290000	52,055000
2,640050	339,901603	462,146	0,067654	22,300000	52,060000
2,628022	331,247917	463,948	0,064002	22,300000	52,060000
2,616041	321,912720	465,752	0,060063	22,300000	52,045000
2,604070	312,899187	467,555	0,056259	22,300000	52,075000
2,613013	319,436602	469,240	0,059018	22,300000	52,045000
2,625018	329,578273	471,043	0,063298	22,300000	52,045000
2,637068	337,995918	472,844	0,066850	22,300000	52,045000
2,649098	347,817082	474,650	0,070995	22,290000	52,080000
2,661046	356,925494	476,453	0,074838	22,290000	52,055000
2,673020	365,687944	478,255	0,078536	22,290000	52,040000
2,685021	374,246751	480,059	0,082148	22,290000	52,040000
2,697013	384,578181	481,867	0,086508	22,290000	52,095000
2,709012	392,854663	483,668	0,090000	22,290000	52,070000
2,720997	401,695794	485,471	0,093731	22,290000	52,040000
2,733009	410,819248	487,274	0,097582	22,290000	52,080000
2,745021	419,143171	489,080	0,101094	22,290000	52,080000
2,757001	428,305965	490,883	0,104961	22,290000	52,080000
2,769015	437,240818	492,687	0,108731	22,300000	52,085000
2,781089	445,870205	494,490	0,112373	22,290000	52,040000
2,793056	455,573349	496,291	0,116468	22,290000	52,040000
2,805003	464,195794	498,096	0,120106	22,310000	52,035000
2,817037	472,073089	499,897	0,123431	22,300000	52,085000
2,829042	481,408286	501,698	0,127370	22,300000	52,085000
2,840953	489,464927	503,501	0,130770	22,300000	52,085000
2,852990	498,683261	505,305	0,134660	22,300000	52,085000
2,864974	506,629980	507,106	0,138014	22,300000	52,100000
2,876975	516,185019	508,913	0,142046	22,300000	52,100000
2,889015	524,116697	510,716	0,145393	22,300000	52,035000
2,901012	533,279491	512,520	0,149260	22,300000	52,035000
2,912995	541,470351	514,323	0,152716	22,290000	52,040000
2,925049	551,158453	516,126	0,156805	22,300000	52,100000
2,936982	558,729127	517,928	0,160000	22,300000	52,075000
2,937002	559,073932	519,733	0,160145	22,310000	52,075000
2,936981	558,454902	521,539	0,159884	22,290000	52,055000
2,936997	558,126296	523,342	0,159745	22,290000	52,070000
2,936971	557,522308	525,148	0,159490	22,290000	52,070000
2,936983	557,404288	526,952	0,159440	22,290000	52,070000
2,931945	553,877555	528,760	0,157952	22,290000	52,095000
2,920024	543,594722	530,564	0,153613	22,310000	52,085000
2,908008	534,102164	532,371	0,149607	22,290000	52,080000
2,895980	524,594565	534,176	0,145595	22,290000	52,080000
2,883996	516,176920	535,980	0,142042	22,300000	52,045000
2,872007	506,481876	537,782	0,137951	22,300000	52,085000
2,860008	496,958077	539,586	0,133932	22,310000	52,060000
2,848091	487,795283	541,388	0,130065	22,300000	52,100000
2,836047	479,055974	543,192	0,126377	22,300000	52,100000
2,823961	470,097980	545,000	0,122597	22,300000	52,100000
2,812037	460,590381	546,802	0,118585	22,290000	52,070000
2,800021	451,427586	548,604	0,114718	22,290000	52,070000
2,788007	442,484634	550,407	0,110944	22,300000	52,085000
2,775983	433,894587	552,209	0,107319	22,300000	52,060000
2,764070	424,763033	554,013	0,103466	22,300000	52,060000
2,751979	416,219268	555,817	0,099860	22,300000	52,035000
2,739989	407,276316	557,620	0,096086	22,310000	52,075000
2,728028	398,474526	559,425	0,092372	22,310000	52,075000
2,739072	407,049532	561,138	0,095991	22,300000	52,075000
2,750984	415,811982	562,942	0,099688	22,300000	52,075000
2,763052	425,986050	564,748	0,103982	22,290000	52,070000
2,775029	434,819081	566,552	0,107709	22,290000	52,070000
2,787029	443,863855	568,358	0,111526	22,290000	52,055000
2,799017	452,862346	570,164	0,115324	22,300000	52,100000
2,811042	461,946460	571,969	0,119157	22,290000	52,110000
2,823022	471,109255	573,775	0,123024	22,290000	52,110000
2,835032	481,070424	575,576	0,127228	22,290000	52,080000
2,847008	489,732209	577,379	0,130883	22,300000	52,115000
2,858991	498,149854	579,185	0,134435	22,300000	52,115000
2,870962	507,163387	580,990	0,138239	22,300000	52,115000
2,883025	516,068156	582,792	0,141997	22,290000	52,110000
2,895075	525,457735	584,596	0,145959	22,290000	52,040000
2,907000	533,851081	586,398	0,149501	22,290000	52,080000
2,919043	543,499843	588,205	0,153573	22,300000	52,100000
2,930983	551,557640	590,006	0,156973	22,300000	52,085000
2,943032	561,143920	591,809	0,161019	22,300000	52,085000
2,955018	570,133155	593,616	0,164812	22,300000	52,060000
2,967086	578,888663	595,418	0,168507	22,290000	52,095000
2,978973	587,283166	597,222	0,172049	22,310000	52,085000
2,991022	596,390421	599,026	0,175893	22,310000	52,085000
3,002998	604,745585	600,830	0,179418	22,310000	52,085000
3,014948	613,415469	602,637	0,183077	22,290000	52,070000
3,027015	622,217260	604,443	0,186792	22,300000	52,100000
3,038973	631,872964	606,246	0,190866	22,290000	52,055000
3,051053	641,004517	608,048	0,194720	22,290000	52,040000
3,062978	649,500842	609,852	0,198305	22,290000	52,070000
3,074973	658,341973	611,656	0,202036	22,300000	52,085000
3,086984	666,807057	613,460	0,205608	22,310000	52,075000
3,099028	675,961752	615,264	0,209472	22,290000	52,070000
3,103990	679,332281	617,065	0,210894	22,290000	52,055000
3,104039	678,956235	618,873	0,210735	22,290000	52,055000
3,103985	678,713252	620,680	0,210633	22,300000	52,075000
3,104037	678,447127	622,484	0,210521	22,300000	52,075000
3,103956	678,156704	624,286	0,210398	22,300000	52,075000
3,103960	677,851239	626,090	0,210269	22,300000	52,075000
3,091977	669,143171	627,895	0,206594	22,290000	52,080000
3,080012	658,891578	629,698	0,202268	22,290000	52,080000
3,067965	650,034249	631,503	0,198530	22,300000	52,100000
3,056021	640,784675	633,306	0,194627	22,310000	52,075000
3,044014	631,418237	635,109	0,190674	22,300000	52,085000
3,031968	621,268467	636,916	0,186391	22,300000	52,085000
3,020001	612,795283	638,720	0,182815	22,300000	52,045000
3,007987	602,559890	640,523	0,178496	22,300000	52,075000
2,996044	594,063564	642,327	0,174911	22,290000	52,040000
2,984083	585,088215	644,134	0,171123	22,290000	52,040000
2,972050	576,122121	645,937	0,167339	22,310000	52,075000
2,960005	566,317156	647,742	0,163202	22,300000	52,060000
2,948081	557,553549	649,547	0,159503	22,300000	52,060000
2,936006	548,226451	651,354	0,155567	22,300000	52,075000
2,923989	539,722027	653,156	0,151979	22,290000	52,055000
2,912033	530,458568	654,961	0,148069	22,290000	52,055000
2,899962	521,115271	656,765	0,144126	22,300000	52,075000
2,888058	512,391005	658,568	0,140445	22,300000	52,075000
2,876061	503,597314	660,375	0,136734	22,320000	52,085000
2,864087	494,152196	662,179	0,132748	22,320000	52,085000
2,853062	485,475368	663,982	0,129086	22,290000	52,055000
2,865090	495,586956	665,675	0,133354	22,290000	52,110000
2,877055	504,851572	667,478	0,137263	22,290000	52,110000
2,888992	514,116188	669,280	0,141173	22,300000	52,085000
2,901000	523,223443	671,086	0,145016	22,290000	52,095000
2,913012	532,363096	672,891	0,148873	22,290000	52,095000
2,924992	541,524733	674,695	0,152739	22,290000	52,040000
2,937029	550,986050	676,497	0,156732	22,300000	52,060000
2,948985	559,732302	678,300	0,160423	22,300000	52,060000
2,961004	569,858931	680,105	0,164696	22,290000	52,055000
2,973004	578,653779	681,907	0,168408	22,290000	52,070000
2,985002	587,964677	683,709	0,172337	22,290000	52,110000
2,996987	596,359181	685,510	0,175879	22,290000	52,110000
3,009023	605,295190	687,316	0,179650	22,300000	52,085000
3,021056	614,466084	689,117	0,183521	22,300000	52,085000
3,033006	623,440277	690,922	0,187308	22,300000	52,085000
3,045034	632,774317	692,725	0,191247	22,300000	52,115000
3,057028	641,419903	694,527	0,194895	22,300000	52,085000
3,069021	650,316573	696,332	0,198649	22,300000	52,085000
3,080989	659,369446	698,134	0,202470	22,300000	52,085000
3,092990	668,845805	699,937	0,206469	22,300000	52,115000
3,105020	678,179845	701,738	0,210408	22,300000	52,075000
3,117051	686,426244	703,542	0,213888	22,300000	52,075000
3,128990	696,019466	705,344	0,217936	22,300000	52,075000
3,140974	704,170986	707,149	0,221376	22,300000	52,075000
3,153076	713,223860	708,952	0,225196	22,300000	52,075000
3,165026	721,759525	710,755	0,228798	22,300000	52,075000
3,176995	730,569415	712,555	0,232516	22,300000	52,075000
3,188989	739,817832	714,358	0,236419	22,290000	52,070000
3,201015	748,714501	716,161	0,240173	22,290000	52,070000
3,213024	757,861097	717,963	0,244033	22,290000	52,080000
3,225011	766,004517	719,764	0,247470	22,300000	52,100000
3,236932	775,605839	721,567	0,251521	22,300000	52,100000
3,248926	783,969102	723,371	0,255051	22,290000	52,095000
3,261023	792,677170	725,177	0,258726	22,290000	52,095000
3,270966	800,570664	726,984	0,262057	22,290000	52,095000
3,270993	800,076598	728,789	0,261848	22,300000	52,075000
3,270973	799,754934	730,593	0,261712	22,290000	52,095000
3,270959	799,378888	732,397	0,261554	22,290000	52,095000
3,271018	799,073423	734,198	0,261425	22,300000	52,060000
3,270951	798,681178	736,002	0,261259	22,300000	52,045000
3,264004	793,657203	737,809	0,259139	22,300000	52,075000
3,252019	784,031583	739,616	0,255077	22,290000	52,070000
3,239935	774,305298	741,417	0,250973	22,290000	52,070000
3,227983	764,421653	743,221	0,246802	22,290000	52,070000
3,216026	755,901029	745,026	0,243206	22,290000	52,070000
3,203954	746,049782	746,827	0,239049	22,300000	52,060000
3,192008	736,831448	748,630	0,235159	22,300000	52,085000
3,179999	727,794774	750,432	0,231345	22,300000	52,085000
3,168015	718,513959	752,232	0,227429	22,300000	52,085000
3,155956	708,669653	754,037	0,223274	22,290000	52,070000
3,143990	699,421236	755,840	0,219372	22,290000	52,080000
3,132062	691,199135	757,641	0,215902	22,300000	52,115000
3,119985	681,612855	759,444	0,211856	22,300000	52,085000
3,108035	672,936028	761,248	0,208195	22,290000	52,070000
3,096029	663,617030	763,052	0,204262	22,290000	52,070000
3,083970	654,055049	764,854	0,200227	22,290000	52,070000
3,072005	645,542524	766,657	0,196635	22,300000	52,100000
3,059986	636,819415	768,462	0,192954	22,290000	52,055000
3,047989	626,935769	770,266	0,188783	22,300000	52,075000
3,036031	618,086539	772,070	0,185048	22,290000	52,080000
3,023992	609,496492	773,872	0,181423	22,300000	52,100000
3,012012	600,130054	775,676	0,177471	22,300000	52,060000
3,000021	591,492567	777,482	0,173826	22,290000	52,095000
2,988006	581,632063	779,287	0,169665	22,300000	52,060000
2,981089	576,238985	780,974	0,167389	22,300000	52,060000
2,993033	586,680335	782,775	0,171795	22,300000	52,060000
3,004968	595,497168	784,578	0,175516	22,300000	52,060000
3,017024	604,902945	786,384	0,179485	22,300000	52,060000
3,028976	614,512367	788,187	0,183540	22,290000	52,055000
3,040985	623,542099	789,990	0,187351	22,300000	52,060000
3,053012	633,158462	791,792	0,191409	22,290000	52,070000
3,064996	642,102571	793,593	0,195183	22,310000	52,085000
3,077031	652,260441	795,398	0,199470	22,310000	52,085000
3,089067	661,242734	797,200	0,203260	22,290000	52,150000
3,101018	669,699719	799,002	0,206829	22,290000	52,150000
3,113050	678,399687	800,806	0,210500	22,300000	52,125000
3,125007	688,816739	802,608	0,214896	22,300000	52,085000
3,137018	697,446127	804,410	0,218538	22,290000	52,070000
3,149040	705,942452	806,213	0,222124	22,300000	52,085000
3,161009	714,862263	808,016	0,225888	22,310000	52,085000
3,172977	723,898937	809,820	0,229701	22,300000	52,125000
3,184963	732,912470	811,622	0,233505	22,300000	52,100000
3,196978	742,702394	813,425	0,237636	22,290000	52,070000
3,209025	751,113096	815,226	0,241186	22,300000	52,075000
3,220959	760,542015	817,028	0,245165	22,300000	52,075000
3,233014	768,974702	818,832	0,248723	22,300000	52,075000
3,245036	778,035675	820,636	0,252547	22,300000	52,100000
3,257009	787,879980	822,440	0,256701	22,300000	52,075000
3,268981	795,569831	824,244	0,259946	22,290000	52,080000
3,280971	804,990651	826,045	0,263922	22,300000	52,125000
3,293022	813,604997	827,847	0,267557	22,300000	52,100000
3,304989	822,500509	829,650	0,271311	22,290000	52,095000
3,316969	831,389079	831,453	0,275062	22,290000	52,070000
3,328983	840,622454	833,258	0,278958	22,290000	52,080000
3,340945	849,306224	835,064	0,282623	22,290000	52,095000
3,352936	858,116114	836,868	0,286341	22,290000	52,095000
3,364979	866,628638	838,669	0,289933	22,300000	52,100000
3,376936	876,088798	840,473	0,293925	22,300000	52,125000
3,388955	884,820007	842,276	0,297610	22,290000	52,080000
3,401006	893,481792	844,082	0,301265	22,300000	52,115000
3,412931	902,306724	845,885	0,304989	22,290000	52,120000
3,425007	912,260950	847,691	0,309190	22,290000	52,120000
3,436945	920,302549	849,495	0,312583	22,290000	52,110000
3,437934	921,078940	851,300	0,312911	22,290000	52,110000
3,437980	920,914636	853,104	0,312842	22,300000	52,085000
3,437911	920,225026	854,908	0,312551	22,300000	52,085000
3,437948	919,855922	856,713	0,312395	22,300000	52,085000
3,437942	919,840880	858,517	0,312389	22,300000	52,085000
3,433983	916,744576	860,320	0,311082	22,290000	52,110000
3,421954	907,683603	862,125	0,307258	22,300000	52,085000
3,409982	896,844222	863,931	0,302684	22,290000	52,095000
3,397957	888,590880	865,734	0,299201	22,290000	52,095000
3,386015	878,651696	867,537	0,295007	22,290000	52,110000
3,373982	869,552540	869,338	0,291167	22,290000	52,070000
3,361972	860,578347	871,145	0,287380	22,290000	52,070000
3,350002	851,211909	872,948	0,283427	22,290000	52,070000
3,337992	841,860514	874,755	0,279481	22,310000	52,115000
3,325979	832,134229	876,555	0,275376	22,290000	52,110000
3,313981	823,519883	878,358	0,271741	22,290000	52,095000
3,302017	813,604997	880,162	0,267557	22,290000	52,095000
3,289996	803,924994	881,962	0,263472	22,300000	52,075000
3,277986	795,044524	883,765	0,259725	22,290000	52,095000
3,265999	786,587539	885,569	0,256156	22,290000	52,135000
3,253964	777,142421	887,372	0,252170	22,300000	52,115000
3,241955	767,352497	889,175	0,248039	22,290000	52,080000
3,230034	758,456985	890,977	0,244285	22,290000	52,080000
3,218040	750,070581	892,778	0,240746	22,290000	52,080000
3,206003	740,405621	894,580	0,236667	22,310000	52,060000
3,194045	731,525150	896,385	0,232919	22,300000	52,115000
3,182013	722,958244	898,188	0,229304	22,300000	52,115000
3,170013	713,051457	899,992	0,225124	22,300000	52,115000
3,158024	704,908037	901,794	0,221687	22,300000	52,115000
3,146058	695,118113	903,597	0,217556	22,290000	52,095000
3,133935	686,731709	905,400	0,214017	22,300000	52,100000
3,122006	677,247251	907,204	0,210014	22,290000	52,070000
3,109998	668,233718	909,009	0,206210	22,290000	52,070000
3,108950	667,151862	910,697	0,205754	22,300000	52,075000
3,121024	677,866280	912,502	0,210275	22,300000	52,075000
3,133048	687,421320	914,305	0,214308	22,310000	52,115000
3,145056	697,014542	916,105	0,218356	22,300000	52,100000
3,157011	705,722610	917,909	0,222031	22,290000	52,070000
3,168988	715,002268	919,714	0,225947	22,300000	52,075000
3,180979	725,278158	921,520	0,230283	22,300000	52,115000
3,193016	734,191027	923,322	0,234044	22,300000	52,115000
3,205012	743,275141	925,124	0,237878	22,300000	52,085000
3,217023	752,554799	926,925	0,241794	22,300000	52,085000
3,229090	761,246668	928,726	0,245462	22,310000	52,085000
3,240958	770,323839	930,528	0,249292	22,290000	52,070000
3,252941	779,799041	932,332	0,253291	22,290000	52,095000
3,265036	788,797532	934,133	0,257088	22,290000	52,095000
3,277005	798,649937	935,934	0,261246	22,300000	52,100000
3,289017	807,366104	937,735	0,264924	22,290000	52,110000
3,300965	816,473360	939,537	0,268768	22,300000	52,100000
3,312959	825,260108	941,342	0,272476	22,290000	52,110000
3,324951	835,048874	943,145	0,276606	22,290000	52,095000
3,336969	843,694461	944,949	0,280255	22,290000	52,095000
3,348963	852,348147	946,754	0,283907	22,290000	52,095000
3,360989	861,604663	948,560	0,287813	22,290000	52,110000
3,372961	870,595055	950,363	0,291607	22,290000	52,110000
3,384935	879,828430	952,168	0,295503	22,290000	52,110000
3,396870	888,520300	953,975	0,299171	22,310000	52,115000
3,408991	898,348406	955,776	0,303319	22,310000	52,100000
3,420920	906,641088	957,577	0,306818	22,310000	52,100000
3,432920	915,600239	959,381	0,310599	22,300000	52,100000
3,444940	924,543191	961,185	0,314373	22,300000	52,100000
3,456952	933,454902	962,987	0,318134	22,300000	52,100000
3,468907	942,100489	964,788	0,321782	22,300000	52,115000
3,480938	952,203977	966,590	0,326046	22,290000	52,110000
3,492889	960,018791	968,393	0,329344	22,290000	52,110000
3,504952	968,922403	970,194	0,333101	22,300000	52,060000
3,516943	978,461243	971,998	0,337126	22,300000	52,100000
3,528919	986,557224	973,804	0,340543	22,300000	52,100000
3,540692	995,821840	975,605	0,344453	22,300000	52,125000
3,552943	1004,444285	977,407	0,348091	22,290000	52,120000
3,564901	1013,567739	979,214	0,351941	22,290000	52,120000
3,576891	1023,521966	981,017	0,356142	22,290000	52,120000
3,588828	1032,197636	982,818	0,359803	22,290000	52,120000
3,600860	1040,153612	984,620	0,363161	22,300000	52,085000
3,604902	1043,264959	986,424	0,364474	22,300000	52,085000
3,604860	1042,755850	988,226	0,364259	22,300000	52,085000
3,604866	1042,818332	990,028	0,364285	22,300000	52,075000
3,604874	1042,356663	991,831	0,364090	22,300000	52,100000
3,604950	1042,050041	993,634	0,363961	22,300000	52,100000
3,603916	1041,783916	995,436	0,363849	22,290000	52,095000
3,591921	1031,601748	997,239	0,359552	22,290000	52,080000
3,579895	1022,440110	999,044	0,355686	22,290000	52,080000
3,567895	1012,438444	1000,846	0,351465	22,290000	52,080000
3,555927	1002,837122	1002,650	0,347413	22,310000	52,100000
3,543935	993,886071	1004,450	0,343636	22,300000	52,115000
3,531915	983,861263	1006,253	0,339405	22,290000	52,080000
3,520031	975,003934	1008,054	0,335667	22,290000	52,080000
3,507858	966,343306	1009,856	0,332013	22,290000	52,080000
3,495969	956,310399	1011,661	0,327779	22,290000	52,080000
3,483973	946,952061	1013,464	0,323830	22,290000	52,120000
3,471938	937,985967	1015,267	0,320046	22,290000	52,095000
3,459944	928,493409	1017,068	0,316040	22,310000	52,085000
3,447957	919,739059	1018,872	0,312346	22,310000	52,085000
3,435915	910,136580	1020,674	0,308293	22,310000	52,085000
3,423971	900,771299	1022,474	0,304341	22,310000	52,125000
3,412013	892,493659	1024,277	0,300848	22,310000	52,125000
3,399918	882,775474	1026,081	0,296747	22,290000	52,095000
3,387944	874,294191	1027,885	0,293168	22,290000	52,095000
3,375946	865,374380	1029,687	0,289404	22,290000	52,120000
3,363961	856,063481	1031,488	0,285475	22,300000	52,100000
3,351980	847,590297	1033,288	0,281899	22,290000	52,095000
3,339986	837,079523	1035,090	0,277463	22,300000	52,125000
3,327934	828,653779	1036,894	0,273908	22,300000	52,125000
3,316022	819,248001	1038,695	0,269938	22,300000	52,125000
3,303965	810,414970	1040,500	0,266211	22,300000	52,100000
3,291988	801,032333	1042,305	0,262251	22,300000	52,075000
3,280003	792,645929	1044,109	0,258712	22,300000	52,075000
3,268011	783,553716	1045,913	0,254875	22,300000	52,085000
3,256070	773,380804	1047,716	0,250583	22,300000	52,100000
3,243990	765,189944	1049,522	0,247126	22,300000	52,075000
3,231975	755,752925	1051,323	0,243144	22,300000	52,115000
3,219965	747,107339	1053,125	0,239495	22,300000	52,115000
3,207998	738,634155	1054,927	0,235919	22,300000	52,115000
3,196017	729,597480	1056,732	0,232106	22,290000	52,120000
3,183989	719,956818	1058,533	0,228038	22,300000	52,115000
3,172003	711,570414	1060,335	0,224499	22,310000	52,125000
3,159984	702,000333	1062,137	0,220460	22,290000	52,120000
3,148005	693,542191	1063,939	0,216891	22,290000	52,120000
3,135981	684,443035	1065,741	0,213051	22,290000	52,120000
3,124014	675,405204	1067,548	0,209237	22,300000	52,115000
3,112031	665,521558	1069,351	0,205066	22,300000	52,115000
3,100011	656,751009	1071,154	0,201365	22,310000	52,140000
3,087972	648,450228	1072,958	0,197862	22,310000	52,140000
3,075999	639,679678	1074,760	0,194161	22,290000	52,135000
3,064046	630,972767	1076,560	0,190486	22,300000	52,125000
3,051970	621,197886	1078,367	0,186361	22,300000	52,125000
3,040020	612,466677	1080,173	0,182677	22,300000	52,125000
3,028050	603,688028	1081,976	0,178972	22,300000	52,125000
3,016049	594,721934	1083,780	0,175188	22,290000	52,110000
3,004017	586,005767	1085,581	0,171510	22,290000	52,120000
2,992048	577,595064	1087,385	0,167961	22,290000	52,120000
2,980084	568,417228	1089,187	0,164088	22,290000	52,110000
2,968024	560,211326	1090,992	0,160625	22,290000	52,110000
2,956113	551,283416	1092,795	0,156857	22,290000	52,110000
2,944013	542,575348	1094,596	0,153183	22,300000	52,115000
2,932055	533,162628	1096,403	0,149210	22,300000	52,125000
2,920020	524,438361	1098,205	0,145529	22,300000	52,125000
2,908119	515,738392	1100,006	0,141857	22,300000	52,115000
2,896013	506,795440	1101,811	0,138083	22,290000	52,110000
2,884048	497,593306	1103,614	0,134200	22,300000	52,115000
2,872056	488,862096	1105,420	0,130516	22,300000	52,115000
2,860017	480,475692	1107,222	0,126977	22,300000	52,125000
2,848066	471,774567	1109,022	0,123305	22,300000	52,125000
2,836035	462,706652	1110,827	0,119478	22,300000	52,140000
2,824085	454,170986	1112,630	0,115876	22,290000	52,110000
2,812039	445,173652	1114,433	0,112079	22,300000	52,100000
2,800033	436,339464	1116,236	0,108351	22,300000	52,100000
2,788074	427,270392	1118,038	0,104524	22,290000	52,120000
2,776020	418,719685	1119,840	0,100916	22,290000	52,120000
2,764067	409,369446	1121,645	0,096970	22,300000	52,115000
2,752047	400,802540	1123,448	0,093354	22,300000	52,115000
2,740069	392,196294	1125,252	0,089723	22,290000	52,150000
2,728067	383,644429	1127,055	0,086114	22,290000	52,150000
2,716127	374,560315	1128,858	0,082280	22,300000	52,125000
2,704080	366,087132	1130,663	0,078705	22,290000	52,080000
2,692051	357,183520	1132,464	0,074947	22,290000	52,080000
2,680117	348,687195	1134,267	0,071362	22,300000	52,100000
2,668119	339,227035	1136,068	0,067370	22,300000	52,100000
2,656056	331,663303	1137,870	0,064178	22,300000	52,075000
2,644119	322,876555	1139,673	0,060470	22,300000	52,100000
2,632086	314,169644	1141,477	0,056795	22,300000	52,100000
2,620061	305,445377	1143,282	0,053114	22,290000	52,120000
2,608081	296,957152	1145,084	0,049532	22,300000	52,100000
2,596067	288,232885	1146,887	0,045850	22,300000	52,100000
2,584034	278,459160	1148,692	0,041726	22,300000	52,100000
2,572070	270,856089	1150,496	0,038517	22,290000	52,110000
2,560066	262,148021	1152,300	0,034842	22,290000	52,110000
2,548044	252,812824	1154,102	0,030903	22,300000	52,100000
2,536067	244,207735	1155,905	0,027271	22,290000	52,120000
2,524077	236,823349	1157,710	0,024155	22,300000	52,125000
2,512064	228,303882	1159,510	0,020560	22,300000	52,125000
2,500114	219,815656	1161,316	0,016978	22,290000	52,080000
2,488063	210,323099	1163,117	0,012972	22,310000	52,100000
2,476095	202,242160	1164,922	0,009562	22,310000	52,100000
2,464078	193,049282	1166,727	0,005683	22,300000	52,115000
2,452060	184,513616	1168,532	0,002081	22,300000	52,115000
2,440071	177,137330	1170,336	-0,001032	22,310000	52,140000
2,428094	168,711585	1172,138	-0,004588	22,310000	52,115000
2,416090	159,197043	1173,939	-0,008603	22,300000	52,125000
2,404116	151,359088	1175,743	-0,011911	22,300000	52,100000
2,392102	142,478617	1177,549	-0,015658	22,300000	52,100000
2,380091	134,302799	1179,352	-0,019108	22,300000	52,115000
2,368066	126,065656	1181,157	-0,022584	22,300000	52,085000
2,356093	117,114605	1182,962	-0,026362	22,300000	52,085000
2,344135	109,542774	1184,762	-0,029557	22,300000	52,085000
2,332101	101,266291	1186,564	-0,033050	22,290000	52,080000
2,320074	92,323339	1188,367	-0,036824	22,300000	52,125000
2,308092	83,308649	1190,172	-0,040628	22,300000	52,115000
2,296093	76,051540	1191,972	-0,043690	22,300000	52,115000
2,284080	66,818165	1193,773	-0,047587	22,310000	52,115000
2,272071	58,086956	1195,574	-0,051271	22,300000	52,100000
2,260070	49,746834	1197,378	-0,054791	22,290000	52,110000
2,248073	42,120622	1199,180	-0,058009	22,300000	52,125000
2,236107	32,707901	1200,983	-0,061981	22,300000	52,125000
2,224020	25,003008	1202,787	-0,065233	22,300000	52,125000
2,212122	15,863355	1204,588	-0,069090	22,290000	52,110000
2,200050	8,463927	1206,390	-0,072212	22,290000	52,110000
2,188056	-0,940693	1208,193	-0,076181	22,290000	52,120000
2,176111	-8,425744	1209,998	-0,079340	22,300000	52,100000
2,164102	-16,672143	1211,803	-0,082820	22,290000	52,110000
2,152097	-23,930410	1213,605	-0,085883	22,290000	52,120000
2,140119	-32,958984	1215,408	-0,089693	22,300000	52,115000
2,128067	-40,067989	1217,213	-0,092693	22,290000	52,135000
2,116025	-48,925318	1219,017	-0,096431	22,290000	52,135000
2,104129	-56,684593	1220,821	-0,099705	22,290000	52,135000
2,092135	-65,517624	1222,622	-0,103433	22,300000	52,100000
2,080018	-73,552281	1224,428	-0,106823	22,290000	52,095000
2,068075	-82,087946	1226,233	-0,110425	22,310000	52,085000
2,056101	-90,019624	1228,036	-0,113772	22,290000	52,095000
2,044049	-96,901844	1229,840	-0,116677	22,290000	52,095000
2,032102	-105,398169	1231,645	-0,120262	22,300000	52,115000
2,020063	-113,392328	1233,447	-0,123636	22,300000	52,115000
2,008041	-122,547023	1235,250	-0,127499	22,300000	52,125000
1,996072	-129,460484	1237,051	-0,130417	22,300000	52,125000
1,984081	-138,270374	1238,855	-0,134134	22,300000	52,125000
1,972065	-145,622362	1240,658	-0,137237	22,300000	52,115000
1,960106	-153,342297	1242,461	-0,140495	22,290000	52,080000
1,948103	-161,611837	1244,264	-0,143984	22,310000	52,085000
1,936105	-170,727192	1246,068	-0,147831	22,310000	52,085000
1,924118	-177,851239	1247,869	-0,150837	22,310000	52,100000
1,912125	-185,870853	1249,673	-0,154222	22,300000	52,140000
1,900110	-194,154278	1251,475	-0,157717	22,300000	52,115000
[...]
2,301159	115,679845	277,373	-0,026838	22,310000	52,140000
2,305165	117,592473	277,976	-0,026031	22,310000	52,140000
2,309200	121,339048	278,578	-0,024450	22,310000	52,140000
2,313150	123,768883	279,180	-0,023425	22,300000	52,155000
2,317141	125,845814	279,784	-0,022548	22,300000	52,155000
2,321176	129,043941	280,385	-0,021199	22,300000	52,155000
2,325245	132,202727	280,986	-0,019866	22,300000	52,155000
2,329168	135,118530	281,587	-0,018635	22,300000	52,155000
2,333181	137,039257	282,188	-0,017825	22,300000	52,155000
2,337177	139,766458	282,789	-0,016674	22,300000	52,155000
2,341200	143,388070	283,391	-0,015146	22,300000	52,140000
2,345177	145,778566	283,993	-0,014137	22,300000	52,140000
2,349203	148,811232	284,593	-0,012857	22,300000	52,140000
2,353175	151,868196	285,193	-0,011567	22,300000	52,155000
2,357192	154,486634	285,795	-0,010462	22,300000	52,155000
2,361149	156,281241	286,395	-0,009705	22,300000	52,155000
2,365217	158,937861	286,995	-0,008583	22,300000	52,155000
2,369187	162,285249	287,595	-0,007171	22,310000	52,115000
2,373145	165,286674	288,196	-0,005904	22,310000	52,115000
2,377136	168,171236	288,797	-0,004687	22,310000	52,115000
2,381167	170,349989	289,397	-0,003768	22,300000	52,115000
2,385162	173,211410	290,000	-0,002560	22,300000	52,115000
2,389197	175,859930	290,601	-0,001442	22,300000	52,115000
2,393185	179,520883	291,202	0,000103	22,300000	52,115000
2,397114	182,208744	291,802	0,001237	22,300000	52,115000
2,401232	184,349313	292,405	0,002140	22,300000	52,115000
2,405180	186,880970	293,005	0,003208	22,300000	52,115000
2,409228	190,179762	293,606	0,004601	22,300000	52,100000
2,413189	192,468435	294,210	0,005566	22,300000	52,100000
2,417209	195,902603	294,811	0,007016	22,300000	52,100000
2,421168	197,994576	295,414	0,007898	22,300000	52,140000
2,425169	201,545607	296,015	0,009397	22,300000	52,140000
2,429207	203,410795	296,617	0,010184	22,300000	52,140000
2,433242	206,193535	297,218	0,011358	22,300000	52,140000
2,437194	209,469185	297,819	0,012741	22,300000	52,140000
2,441152	212,440527	298,422	0,013995	22,300000	52,140000
2,445205	214,133312	299,023	0,014709	22,300000	52,140000
2,448199	216,789933	299,624	0,015830	22,300000	52,165000
2,448116	216,656870	300,225	0,015774	22,300000	52,165000
2,448152	216,312065	300,826	0,015628	22,300000	52,165000
2,448156	216,656870	301,427	0,015774	22,290000	52,110000
2,448178	215,896679	302,028	0,015453	22,290000	52,110000
2,448188	215,811056	302,630	0,015417	22,290000	52,110000
2,448161	215,473193	303,231	0,015274	22,300000	52,140000
2,448178	215,669894	303,831	0,015357	22,300000	52,140000
2,448203	215,512533	304,432	0,015291	22,300000	52,140000
2,448188	214,854164	305,032	0,015013	22,300000	52,140000
2,448196	214,814823	305,634	0,014997	22,300000	52,125000
2,448178	214,392495	306,234	0,014818	22,300000	52,125000
2,448183	214,345055	306,836	0,014798	22,300000	52,125000
2,448184	214,446877	307,439	0,014841	22,290000	52,150000
2,448148	214,195794	308,040	0,014735	22,290000	52,150000
2,448114	214,156454	308,640	0,014719	22,290000	52,150000
2,448230	214,007192	309,241	0,014656	22,300000	52,125000
2,446242	212,276224	309,843	0,013925	22,300000	52,125000
2,442230	209,140579	310,443	0,012602	22,300000	52,125000
2,438152	205,817489	311,043	0,011200	22,300000	52,125000
2,434229	203,105330	311,643	0,010055	22,300000	52,125000
2,430199	200,463751	312,245	0,008940	22,300000	52,125000
2,426165	196,881480	312,847	0,007429	22,300000	52,125000
2,422134	193,762033	313,447	0,006112	22,300000	52,115000
2,418223	190,909869	314,048	0,004909	22,300000	52,115000
2,414224	186,896012	314,648	0,003215	22,300000	52,115000
2,410155	184,106330	315,251	0,002038	22,290000	52,135000
2,406200	181,589714	315,852	0,000976	22,290000	52,135000
2,402131	178,557048	316,453	-0,000304	22,290000	52,135000
2,398146	175,836789	317,055	-0,001452	22,290000	52,135000
2,394146	172,192036	317,655	-0,002990	22,300000	52,155000
2,390160	169,213751	318,255	-0,004247	22,300000	52,155000
2,386175	166,823256	318,855	-0,005256	22,300000	52,155000
2,382179	163,656370	319,455	-0,006592	22,300000	52,125000
2,378170	160,129638	320,056	-0,008081	22,300000	52,125000
2,374223	157,496159	320,657	-0,009192	22,300000	52,125000
2,370202	154,767800	321,258	-0,010343	22,300000	52,125000
2,366133	151,876296	321,860	-0,011563	22,300000	52,125000
2,365111	149,971768	322,344	-0,012367	22,300000	52,125000
2,369166	153,670903	322,945	-0,010806	22,300000	52,125000
2,373164	156,539266	323,546	-0,009596	22,300000	52,140000
2,377168	160,027816	324,149	-0,008124	22,300000	52,140000
2,381180	162,605756	324,750	-0,007036	22,300000	52,140000
2,385156	165,898761	325,350	-0,005646	22,300000	52,140000
2,389162	168,711585	325,950	-0,004459	22,300000	52,140000
2,393159	172,310056	326,550	-0,002940	22,300000	52,140000
2,397204	175,342723	327,150	-0,001661	22,300000	52,115000
2,401196	178,501509	327,751	-0,000328	22,300000	52,115000
2,405199	181,284249	328,351	0,000847	22,300000	52,115000
2,409131	183,745325	328,952	0,001885	22,300000	52,115000
2,413163	187,147095	329,553	0,003321	22,300000	52,125000
2,417147	190,133479	330,155	0,004581	22,300000	52,125000
2,421183	192,162970	330,756	0,005438	22,300000	52,125000
2,425218	195,925744	331,359	0,007025	22,290000	52,135000
2,429189	198,206318	331,961	0,007988	22,290000	52,135000
2,433230	201,294524	332,563	0,009291	22,290000	52,135000
2,437178	204,868696	333,166	0,010799	22,290000	52,150000
2,441171	207,446636	333,767	0,011887	22,290000	52,150000
2,445191	210,582281	334,368	0,013210	22,290000	52,150000
2,449117	213,106996	334,970	0,014276	22,290000	52,150000
2,453176	215,496334	335,570	0,015284	22,290000	52,175000
2,457215	218,608838	336,174	0,016598	22,290000	52,175000
2,461176	221,312898	336,776	0,017739	22,290000	52,175000
2,465251	223,938278	337,379	0,018847	22,290000	52,150000
2,469191	227,771632	337,979	0,020464	22,290000	52,150000
2,473155	229,597480	338,581	0,021235	22,290000	52,150000
2,477151	232,214760	339,181	0,022339	22,290000	52,150000
2,481187	235,632729	339,782	0,023782	22,290000	52,150000
2,485200	237,803382	340,385	0,024698	22,290000	52,150000
2,489184	240,774724	340,987	0,025952	22,290000	52,150000
2,493157	243,109680	341,589	0,026937	22,290000	52,135000
2,497151	245,884321	342,189	0,028108	22,290000	52,135000
2,501141	248,510858	342,789	0,029216	22,290000	52,135000
2,505158	251,387320	343,391	0,030430	22,300000	52,125000
2,509144	254,114522	343,993	0,031581	22,300000	52,125000
2,513228	257,038424	344,594	0,032815	22,300000	52,125000
2,517150	260,683177	345,197	0,034353	22,300000	52,115000
2,521163	262,908212	345,798	0,035292	22,300000	52,115000
2,525175	265,738392	346,402	0,036486	22,300000	52,115000
2,529212	268,253851	347,003	0,037548	22,300000	52,115000
2,533222	271,256433	347,604	0,038815	22,300000	52,115000
2,537166	273,968593	348,207	0,039959	22,300000	52,115000
2,541151	276,899437	348,807	0,041196	22,300000	52,115000
2,545144	280,332448	349,408	0,042645	22,290000	52,135000
2,549230	282,363096	350,009	0,043502	22,290000	52,135000
2,553247	285,152779	350,609	0,044679	22,290000	52,135000
2,557182	288,240984	351,211	0,045982	22,290000	52,135000
2,561205	291,462252	351,811	0,047342	22,290000	52,135000
2,565140	294,378055	352,412	0,048572	22,290000	52,135000
2,569177	297,027733	353,013	0,049690	22,290000	52,135000
2,573145	299,872954	353,614	0,050891	22,290000	52,160000
2,577188	302,726276	354,215	0,052095	22,290000	52,160000
2,581146	304,913128	354,815	0,053018	22,290000	52,160000
2,585185	307,702810	355,417	0,054195	22,310000	52,155000
2,589150	310,697293	356,017	0,055459	22,310000	52,155000
2,593186	314,036582	356,620	0,056868	22,310000	52,155000
2,597174	316,786924	357,223	0,058029	22,300000	52,115000
2,601174	319,797606	357,824	0,059299	22,300000	52,115000
2,605201	321,497334	358,425	0,060017	22,300000	52,115000
2,609191	325,299448	359,025	0,061621	22,300000	52,115000
2,613169	328,269633	359,625	0,062875	22,300000	52,115000
2,615149	329,085364	360,227	0,063219	22,300000	52,115000
2,615154	328,896762	360,831	0,063139	22,300000	52,115000
2,615171	329,029824	361,431	0,063195	22,300000	52,115000
2,615172	328,363355	362,034	0,062914	22,300000	52,115000
2,615161	328,599396	362,636	0,063014	22,300000	52,115000
2,615130	328,262691	363,237	0,062872	22,310000	52,140000
2,615100	328,026650	363,837	0,062772	22,310000	52,140000
2,615196	327,862346	364,439	0,062703	22,310000	52,140000
2,615151	328,223350	365,039	0,062855	22,310000	52,140000
2,615175	327,791765	365,640	0,062673	22,300000	52,155000
2,615225	327,493243	366,241	0,062547	22,300000	52,155000
2,615157	327,768624	366,841	0,062663	22,300000	52,155000
2,615101	327,525641	367,444	0,062561	22,300000	52,155000
2,615146	326,937852	368,045	0,062312	22,300000	52,155000
2,615163	326,992234	368,645	0,062335	22,300000	52,155000
2,615133	327,070914	369,248	0,062369	22,300000	52,125000
2,615116	327,164636	369,848	0,062408	22,300000	52,125000
2,612136	325,009025	370,449	0,061499	22,300000	52,125000
2,608162	321,552873	371,049	0,060040	22,300000	52,125000
2,604149	318,527149	371,651	0,058763	22,300000	52,115000
2,600146	314,796773	372,251	0,057189	22,300000	52,115000
2,596144	312,547440	372,852	0,056240	22,300000	52,115000
2,592193	309,419894	373,452	0,054920	22,300000	52,165000
2,588156	306,259951	374,053	0,053586	22,300000	52,165000
2,584156	302,616354	374,655	0,052049	22,300000	52,165000
2,580261	299,457568	375,256	0,050716	22,310000	52,165000
2,576152	296,330023	375,858	0,049396	22,310000	52,165000
2,572183	294,276233	376,459	0,048529	22,310000	52,165000
2,568159	290,247334	377,062	0,046829	22,310000	52,165000
2,564146	287,943619	377,666	0,045857	22,310000	52,165000
2,560225	284,556891	378,267	0,044428	22,310000	52,165000
2,556226	281,954652	378,868	0,043330	22,310000	52,165000
2,552140	279,282990	379,469	0,042202	22,300000	52,155000
2,548130	275,771299	380,069	0,040720	22,300000	52,155000
2,544157	272,008525	380,673	0,039132	22,300000	52,155000
2,540166	269,759192	381,273	0,038183	22,300000	52,155000
2,536186	266,725368	381,875	0,036903	22,300000	52,155000
2,532189	263,018134	382,475	0,035338	22,300000	52,155000
2,528185	260,494576	383,075	0,034273	22,300000	52,155000
2,524152	257,719935	383,676	0,033103	22,300000	52,140000
2,520164	254,561149	384,278	0,031770	22,300000	52,140000
2,516123	251,574765	384,879	0,030509	22,300000	52,140000
2,512108	249,090547	385,480	0,029461	22,300000	52,140000
2,508147	246,096064	386,080	0,028197	22,300000	52,140000
2,504141	242,937278	386,683	0,026864	22,300000	52,140000
2,500182	239,105080	387,284	0,025247	22,300000	52,140000
2,496209	237,020050	387,885	0,024367	22,300000	52,140000
2,492176	233,994326	388,487	0,023090	22,300000	52,140000
2,491202	231,933594	388,969	0,022221	22,300000	52,140000
2,495157	236,134895	389,570	0,023994	22,300000	52,140000
2,499137	239,057640	390,171	0,025227	22,300000	52,140000
2,503145	242,145846	390,771	0,026530	22,300000	52,140000
2,507142	245,516375	391,372	0,027953	22,300000	52,155000
2,511135	248,189194	391,972	0,029081	22,300000	52,155000
2,515177	250,853914	392,573	0,030205	22,300000	52,155000
2,519188	254,138820	393,174	0,031591	22,290000	52,135000
2,523175	257,233968	393,776	0,032897	22,290000	52,135000
2,527209	260,369613	394,379	0,034221	22,290000	52,135000
2,531144	264,060649	394,981	0,035778	22,290000	52,135000
2,535156	266,114438	395,583	0,036645	22,290000	52,135000
2,539143	270,041515	396,184	0,038302	22,290000	52,135000
2,543173	273,051040	396,785	0,039572	22,290000	52,135000
2,547188	276,053623	397,385	0,040839	22,300000	52,115000
2,551208	278,004434	397,985	0,041663	22,300000	52,115000
2,555142	281,351822	398,587	0,043075	22,300000	52,115000
2,559187	284,909795	399,187	0,044577	22,290000	52,160000
2,563164	287,355830	399,788	0,045609	22,290000	52,160000
2,567161	290,490318	400,388	0,046932	22,290000	52,160000
2,571179	292,873871	400,989	0,047938	22,290000	52,160000
2,575191	295,993317	401,590	0,049254	22,290000	52,160000
2,579137	299,253925	402,191	0,050630	22,290000	52,160000
2,583234	302,059806	402,792	0,051814	22,290000	52,160000
2,587166	305,085530	403,392	0,053091	22,290000	52,135000
2,591215	307,804632	403,993	0,054238	22,290000	52,135000
2,595143	310,610514	404,595	0,055422	22,290000	52,135000
2,599175	313,667478	405,195	0,056712	22,290000	52,135000
2,603199	316,668904	405,796	0,057979	22,290000	52,135000
2,607214	320,243076	406,398	0,059487	22,290000	52,135000
2,611158	322,429928	406,998	0,060410	22,290000	52,135000
2,615171	326,138320	407,598	0,061975	22,310000	52,140000
2,619157	329,218426	408,200	0,063275	22,310000	52,140000
2,623187	331,193535	408,800	0,064108	22,310000	52,140000
2,627197	334,516625	409,402	0,065511	22,290000	52,135000
2,631154	337,580532	410,003	0,066804	22,290000	52,135000
2,635147	340,136487	410,604	0,067882	22,290000	52,135000
2,639163	343,272132	411,205	0,069206	22,300000	52,140000
2,643154	346,642661	411,807	0,070628	22,300000	52,140000
2,647211	348,844555	412,407	0,071557	22,300000	52,140000
2,651167	352,645512	413,007	0,073161	22,300000	52,140000
2,655225	354,605580	413,607	0,073988	22,300000	52,125000
2,659204	358,289673	414,207	0,075543	22,300000	52,125000
2,663151	360,491567	414,807	0,076472	22,300000	52,125000
2,667161	363,571673	415,408	0,077772	22,290000	52,120000
2,671162	366,801040	416,010	0,079135	22,290000	52,120000
2,675185	369,606922	416,610	0,080319	22,290000	52,120000
2,679138	372,350322	417,210	0,081477	22,290000	52,120000
2,683243	375,658370	417,810	0,082873	22,290000	52,120000
2,687172	378,526733	418,410	0,084083	22,290000	52,120000
2,691157	380,603664	419,011	0,084959	22,290000	52,120000
2,695091	383,338964	419,612	0,086114	22,290000	52,135000
2,699202	386,231626	420,212	0,087334	22,290000	52,135000
2,703209	389,469092	420,813	0,088701	22,290000	52,135000
2,707166	392,792182	421,413	0,090103	22,300000	52,165000
2,711147	395,315740	422,015	0,091168	22,300000	52,165000
2,715168	398,443285	422,617	0,092488	22,300000	52,165000
2,719186	400,606996	423,218	0,093401	22,300000	52,125000
2,723134	403,600322	423,819	0,094664	22,300000	52,125000
2,727193	406,578606	424,419	0,095921	22,300000	52,125000
2,731173	409,236384	425,021	0,097042	22,300000	52,125000
2,735136	412,104747	425,621	0,098253	22,300000	52,125000
2,739160	414,808807	426,221	0,099394	22,300000	52,125000
2,743177	418,852747	426,821	0,101101	22,300000	52,125000
2,747192	420,883396	427,422	0,101958	22,300000	52,115000
2,751184	423,516875	428,022	0,103069	22,300000	52,115000
2,755151	427,067906	428,623	0,104567	22,300000	52,115000
2,759156	430,171153	429,223	0,105877	22,300000	52,115000
2,763172	432,804632	429,824	0,106988	22,300000	52,115000
2,767175	435,477451	430,427	0,108116	22,300000	52,115000
2,771205	437,861004	431,029	0,109122	22,300000	52,115000
2,775160	440,885571	431,630	0,110398	22,300000	52,140000
2,779170	443,707651	432,230	0,111589	22,300000	52,140000
2,782152	446,457994	432,830	0,112750	22,300000	52,140000
2,782097	446,011367	433,432	0,112562	22,300000	52,125000
2,782155	445,815823	434,033	0,112479	22,300000	52,125000
2,782148	445,580939	434,637	0,112380	22,300000	52,125000
2,782242	445,321757	435,238	0,112271	22,300000	52,155000
2,782161	445,008192	435,838	0,112138	22,300000	52,155000
2,782151	444,843889	436,438	0,112069	22,300000	52,155000
2,782132	444,976951	437,040	0,112125	22,300000	52,155000
2,782086	444,546523	437,641	0,111943	22,300000	52,180000
2,782204	444,624047	438,242	0,111976	22,300000	52,180000
2,782164	444,490984	438,842	0,111920	22,300000	52,180000
2,782147	444,413461	439,442	0,111887	22,300000	52,180000
2,782189	444,310482	440,044	0,111844	22,300000	52,180000
2,782211	444,279241	440,646	0,111831	22,300000	52,180000
2,782109	443,989975	441,247	0,111708	22,300000	52,155000
2,782141	443,816416	441,849	0,111635	22,300000	52,155000
2,782142	443,998075	442,451	0,111712	22,300000	52,155000
2,780182	443,300365	443,051	0,111417	22,300000	52,155000
2,776178	439,608172	443,652	0,109859	22,290000	52,135000
2,772131	435,799115	444,254	0,108252	22,290000	52,135000
2,768161	432,679669	444,858	0,106936	22,290000	52,135000
2,764194	429,849489	445,460	0,105741	22,290000	52,120000
2,760124	427,169727	446,062	0,104610	22,290000	52,120000
2,756215	423,735560	446,663	0,103161	22,290000	52,120000
2,752178	420,867197	447,265	0,101951	22,300000	52,155000
2,748116	416,916978	447,865	0,100284	22,300000	52,155000
2,744173	414,683844	448,467	0,099341	22,300000	52,155000
2,740192	411,500759	449,068	0,097998	22,300000	52,155000
2,736170	407,558640	449,668	0,096334	22,300000	52,155000
2,732242	404,384812	450,270	0,094995	22,300000	52,155000
2,728228	401,209827	450,871	0,093655	22,300000	52,155000
2,724172	399,187278	451,472	0,092802	22,300000	52,140000
2,720119	395,300698	452,073	0,091162	22,300000	52,140000
2,716130	393,465594	452,673	0,090387	22,300000	52,140000
2,712171	389,938861	453,274	0,088899	22,300000	52,140000
2,708183	386,317249	453,877	0,087371	22,300000	52,140000
2,704126	384,028575	454,479	0,086405	22,300000	52,140000
2,700190	380,925328	455,079	0,085095	22,300000	52,140000
2,696162	377,170653	455,680	0,083511	22,300000	52,125000
2,692209	374,310390	456,281	0,082304	22,300000	52,125000
2,688150	371,911795	456,882	0,081292	22,300000	52,125000
2,684154	368,431344	457,482	0,079823	22,300000	52,180000
2,680150	366,040849	458,083	0,078814	22,300000	52,180000
2,676190	363,116947	458,685	0,077580	22,300000	52,180000
2,672208	359,112346	459,286	0,075890	22,300000	52,180000
2,668210	356,603830	459,887	0,074832	22,300000	52,180000
2,664160	353,359421	460,487	0,073462	22,300000	52,180000
2,660197	350,655361	461,088	0,072321	22,300000	52,180000
2,656158	348,444211	461,690	0,071388	22,310000	52,155000
2,652088	344,244067	462,291	0,069616	22,310000	52,155000
2,648105	341,774891	462,891	0,068574	22,310000	52,155000
2,644167	338,247001	463,493	0,067085	22,290000	52,135000
2,640178	336,076348	464,094	0,066169	22,290000	52,135000
2,636187	332,283490	464,694	0,064568	22,290000	52,135000
2,632208	330,088539	465,296	0,063642	22,290000	52,175000
2,628198	326,350063	465,898	0,062064	22,290000	52,175000
2,624168	324,248834	466,500	0,061178	22,290000	52,175000
2,620211	320,572840	467,100	0,059626	22,290000	52,175000
2,616170	317,798199	467,702	0,058456	22,290000	52,150000
2,617158	317,908120	468,199	0,058502	22,290000	52,150000
2,621199	321,356172	468,801	0,059957	22,290000	52,150000
2,625180	325,048365	469,401	0,061515	22,300000	52,165000
2,629212	328,300874	470,002	0,062888	22,300000	52,165000
2,633166	331,600822	470,602	0,064280	22,300000	52,165000
2,637176	334,273641	471,203	0,065408	22,290000	52,135000
2,641151	337,588631	471,803	0,066807	22,290000	52,135000
2,645216	339,979127	472,404	0,067816	22,290000	52,135000
2,649193	343,899261	473,005	0,069470	22,290000	52,135000
2,653204	346,500342	473,605	0,070568	22,300000	52,125000
2,657195	349,228701	474,205	0,071719	22,300000	52,125000
2,661149	352,716093	474,808	0,073191	22,300000	52,125000
2,665187	356,298365	475,408	0,074703	22,300000	52,125000
2,669196	358,728201	476,008	0,075728	22,300000	52,125000
2,673170	361,604663	476,610	0,076942	22,300000	52,125000
2,677234	365,523641	477,212	0,078596	22,300000	52,155000
2,681152	367,741734	477,812	0,079532	22,300000	52,155000
2,685234	371,887496	478,413	0,081281	22,300000	52,155000
2,689233	373,988726	479,013	0,082168	22,300000	52,155000
2,693183	377,758442	479,613	0,083759	22,290000	52,190000
2,697153	379,616688	480,214	0,084543	22,290000	52,190000
2,701172	383,645586	480,815	0,086243	22,290000	52,190000
2,705196	386,129804	481,417	0,087292	22,290000	52,190000
2,709167	388,919487	482,021	0,088469	22,290000	52,190000
2,713179	391,820248	482,621	0,089693	22,290000	52,190000
2,717163	394,798532	483,222	0,090950	22,300000	52,165000
2,721193	397,737476	483,822	0,092190	22,300000	52,165000
2,725142	400,370955	484,424	0,093301	22,300000	52,165000
2,729172	403,545940	485,027	0,094641	22,300000	52,165000
2,733183	406,617947	485,627	0,095938	22,300000	52,140000
2,737150	410,184020	486,227	0,097442	22,300000	52,140000
2,741170	413,209743	486,827	0,098719	22,300000	52,140000