File: Nanoindentation Datenauswertung/data/PDMS/13.09/APM-PDMS-150ms,3um,20nms,9cycles,1,5um offset,5x1-4
Quasi static measurement routine
Tip parameters (shape,radius, material...)
13.09.2022

Piezo position[nm]	MEMS displ.[nm]	Time[ms]	Cap [pf]	Temp [°C]	Rh [%]
eoh

X-Pos [um]	Y-Pos [um]
0,000094	0,000889

POC
2,171980
0,684099	-0,140005	1,649	-0,075609	22,300000	52,440000
0,699124	0,047440	2,399	-0,075530	22,300000	52,455000
0,714112	0,126120	3,149	-0,075497	22,300000	52,455000
0,729198	0,000000	3,901	-0,075550	22,300000	52,455000
0,744120	0,047440	4,651	-0,075530	22,310000	52,440000
0,759100	0,016199	5,402	-0,075543	22,310000	52,440000
0,774102	0,039340	6,152	-0,075533	22,310000	52,440000
0,789106	-0,006942	6,904	-0,075553	22,310000	52,440000
0,804031	0,149261	7,656	-0,075487	22,310000	52,440000
0,819023	0,094879	8,408	-0,075510	22,290000	52,465000
0,834098	0,165460	9,160	-0,075480	22,290000	52,465000
0,849126	0,251083	9,914	-0,075444	22,290000	52,465000
0,864060	0,000000	10,666	-0,075550	22,300000	52,470000
0,879077	0,157361	11,418	-0,075483	22,300000	52,470000
0,894074	-0,156204	12,172	-0,075616	22,300000	52,470000
0,909079	0,369104	12,923	-0,075394	22,300000	52,470000
0,924111	0,219842	13,676	-0,075457	22,300000	52,470000
0,939042	0,078680	14,428	-0,075517	22,300000	52,470000
0,954076	-0,124963	15,181	-0,075603	22,300000	52,470000
0,969063	0,275381	15,932	-0,075434	22,300000	52,470000
0,984099	0,063639	16,684	-0,075523	22,290000	52,475000
0,999024	0,219842	17,434	-0,075457	22,290000	52,475000
1,014082	0,126120	18,184	-0,075497	22,290000	52,475000
1,029051	0,196701	18,935	-0,075467	22,300000	52,495000
1,044064	0,055539	19,687	-0,075526	22,300000	52,495000
1,059050	0,086780	20,438	-0,075513	22,300000	52,480000
1,074080	0,102979	21,190	-0,075506	22,300000	52,480000
1,089052	0,180502	21,941	-0,075474	22,300000	52,480000
1,104108	0,165460	22,693	-0,075480	22,300000	52,455000
1,119100	0,094879	23,445	-0,075510	22,300000	52,455000
1,133991	-0,140005	24,197	-0,075609	22,300000	52,455000
1,149061	0,282324	24,948	-0,075431	22,310000	52,470000
1,164068	-0,046283	25,699	-0,075569	22,310000	52,470000
1,179086	0,157361	26,450	-0,075483	22,300000	52,440000
1,194070	-0,172403	27,202	-0,075623	22,300000	52,440000
1,209063	0,047440	27,954	-0,075530	22,300000	52,440000
1,224056	-0,101822	28,707	-0,075593	22,300000	52,440000
1,239097	0,032398	29,457	-0,075536	22,300000	52,440000
1,254100	0,063639	30,211	-0,075523	22,300000	52,440000
1,269098	-0,108764	30,963	-0,075596	22,300000	52,470000
1,284082	0,094879	31,716	-0,075510	22,300000	52,470000
1,299017	0,000000	32,469	-0,075550	22,300000	52,430000
1,314036	-0,069424	33,221	-0,075579	22,300000	52,430000
1,329076	0,086780	33,973	-0,075513	22,300000	52,430000
1,344082	0,134219	34,725	-0,075493	22,290000	52,465000
1,359074	-0,038183	35,476	-0,075566	22,290000	52,465000
1,374069	0,055539	36,226	-0,075526	22,290000	52,465000
1,389050	-0,133062	36,979	-0,075606	22,300000	52,440000
1,404001	0,063639	37,733	-0,075523	22,300000	52,440000
1,419031	-0,054382	38,487	-0,075573	22,290000	52,450000
1,434069	0,134219	39,239	-0,075493	22,290000	52,450000
1,449071	0,188602	39,990	-0,075470	22,290000	52,450000
1,464047	0,086780	40,741	-0,075513	22,300000	52,470000
1,479062	-0,069424	41,491	-0,075579	22,300000	52,470000
1,494008	-0,172403	42,243	-0,075623	22,300000	52,470000
1,509033	-0,133062	42,995	-0,075606	22,300000	52,455000
1,523993	0,000000	43,747	-0,075550	22,300000	52,455000
1,539021	0,032398	44,499	-0,075536	22,300000	52,455000
1,554080	-0,085623	45,250	-0,075586	22,300000	52,455000
1,568999	0,047440	46,002	-0,075530	22,300000	52,455000
1,584064	-0,234884	46,753	-0,075649	22,310000	52,470000
1,599060	0,109921	47,504	-0,075503	22,310000	52,470000
1,614022	0,016199	48,255	-0,075543	22,310000	52,470000
1,629066	0,032398	49,007	-0,075536	22,310000	52,455000
1,644041	0,180502	49,758	-0,075474	22,310000	52,455000
1,659085	-0,046283	50,510	-0,075569	22,310000	52,455000
1,674062	0,032398	51,261	-0,075536	22,310000	52,455000
1,689050	-0,187444	52,011	-0,075629	22,310000	52,455000
1,704024	-0,148104	52,761	-0,075612	22,290000	52,450000
1,719037	-6,199552	53,512	-0,078166	22,290000	52,450000
1,734008	-7,100905	54,267	-0,078546	22,290000	52,450000
1,749046	-8,590047	55,019	-0,079175	22,300000	52,430000
1,764076	-10,361513	55,769	-0,079922	22,300000	52,430000
1,779018	-11,113605	56,521	-0,080240	22,290000	52,465000
1,793987	-11,458410	57,272	-0,080385	22,290000	52,465000
1,809046	-214,399437	58,024	-0,166026	22,290000	52,465000
1,824062	-213,874130	58,776	-0,165805	22,290000	52,465000
1,839038	-209,539766	59,527	-0,163976	22,290000	52,465000
1,854032	-202,360180	60,278	-0,160946	22,290000	52,465000
1,869039	-194,121881	61,031	-0,157469	22,310000	52,455000
1,884022	-183,211919	61,782	-0,152865	22,310000	52,455000
1,898979	-174,927336	62,533	-0,149369	22,300000	52,440000
1,914006	-168,045116	63,285	-0,146465	22,300000	52,440000
1,929035	-156,923412	64,037	-0,141771	22,300000	52,440000
1,944059	-149,540183	64,788	-0,138656	22,300000	52,430000
1,959025	-140,871455	65,541	-0,134998	22,300000	52,430000
1,974008	-131,380054	66,292	-0,130992	22,300000	52,430000
1,989018	-121,683853	67,042	-0,126900	22,300000	52,495000
2,003985	-110,130563	67,794	-0,122025	22,300000	52,495000
2,019040	-100,686602	68,546	-0,118040	22,290000	52,465000
2,034061	-93,436436	69,298	-0,114980	22,290000	52,465000
2,048999	-83,341047	70,049	-0,110720	22,290000	52,465000
2,064016	-73,754767	70,800	-0,106674	22,290000	52,465000
2,079040	-63,777399	71,552	-0,102464	22,290000	52,465000
2,094014	-53,478368	72,302	-0,098118	22,290000	52,465000
2,109046	-42,277982	73,052	-0,093391	22,310000	52,440000
2,124010	-34,118363	73,804	-0,089948	22,310000	52,440000
2,139015	-24,257859	74,558	-0,085787	22,310000	52,440000
2,153968	-12,305382	75,309	-0,080743	22,310000	52,440000
2,168970	-4,020799	76,059	-0,077247	22,310000	52,440000
2,183964	5,353738	76,812	-0,073291	22,290000	52,435000
2,199011	15,434084	77,565	-0,069037	22,290000	52,435000
2,214008	25,951801	78,318	-0,064598	22,300000	52,455000
2,228999	37,748075	79,071	-0,059620	22,300000	52,455000
2,243973	45,405528	79,822	-0,056389	22,300000	52,455000
2,259036	57,342963	80,574	-0,051351	22,300000	52,455000
2,274038	65,103395	81,328	-0,048076	22,300000	52,455000
2,289028	75,386228	82,079	-0,043737	22,300000	52,455000
2,303982	87,840871	82,829	-0,038481	22,300000	52,470000
2,319030	95,647586	83,580	-0,035187	22,300000	52,470000
2,334007	107,803706	84,331	-0,030057	22,300000	52,470000
2,339968	110,766949	85,083	-0,028806	22,300000	52,470000
2,340025	110,061139	85,837	-0,029104	22,300000	52,470000
2,339989	109,371529	86,590	-0,029395	22,290000	52,435000
2,339985	108,768698	87,344	-0,029649	22,290000	52,435000
2,340012	108,415793	88,094	-0,029798	22,290000	52,435000
2,339964	107,851146	88,848	-0,030037	22,290000	52,450000
2,339954	107,404519	89,599	-0,030225	22,290000	52,450000
2,340018	107,090955	90,350	-0,030357	22,290000	52,450000
2,339981	106,526307	91,104	-0,030596	22,290000	52,450000
2,340020	106,110921	91,856	-0,030771	22,290000	52,450000
2,340001	105,891079	92,609	-0,030864	22,290000	52,450000
2,340001	105,562472	93,360	-0,031002	22,290000	52,450000
2,340009	105,444452	94,113	-0,031052	22,290000	52,450000
2,337039	104,378795	94,864	-0,031502	22,300000	52,440000
2,321977	93,444535	95,615	-0,036116	22,300000	52,440000
2,307064	80,802447	96,366	-0,041451	22,300000	52,415000
2,300956	73,097554	96,999	-0,044703	22,300000	52,415000
2,315949	85,011848	97,750	-0,039675	22,300000	52,415000
2,331004	95,897512	98,501	-0,035081	22,300000	52,415000
2,346042	106,933594	99,255	-0,030424	22,300000	52,415000
2,360950	118,698626	100,007	-0,025459	22,300000	52,415000
2,376029	131,012108	100,758	-0,020263	22,320000	52,430000
2,391069	141,898928	101,511	-0,015668	22,320000	52,430000
2,406040	150,482033	102,263	-0,012046	22,320000	52,430000
2,420940	163,296523	103,013	-0,006639	22,300000	52,480000
2,436106	173,854737	103,766	-0,002183	22,300000	52,480000
2,450952	182,554706	104,516	0,001488	22,300000	52,440000
2,466009	192,814398	105,266	0,005818	22,300000	52,440000
2,480977	204,062222	106,016	0,010564	22,300000	52,440000
2,495961	213,264357	106,769	0,014448	22,300000	52,455000
2,508016	223,484708	107,521	0,018761	22,300000	52,455000
2,507969	222,089288	108,272	0,018172	22,300000	52,455000
2,508072	221,823164	109,025	0,018060	22,300000	52,480000
2,507999	221,125454	109,776	0,017765	22,300000	52,480000
2,507982	220,106080	110,526	0,017335	22,300000	52,480000
2,508075	219,894337	111,278	0,017246	22,300000	52,480000
2,507963	219,432668	112,032	0,017051	22,300000	52,480000
2,507958	219,330846	112,786	0,017008	22,310000	52,470000
2,507986	218,695618	113,537	0,016740	22,310000	52,470000
2,508001	218,562556	114,289	0,016684	22,310000	52,470000
2,508017	217,849804	115,041	0,016383	22,300000	52,480000
2,508023	217,864846	115,793	0,016389	22,300000	52,480000
2,507988	217,418219	116,545	0,016201	22,300000	52,455000
2,508039	217,237717	117,299	0,016125	22,300000	52,455000
2,496021	209,039914	118,053	0,012665	22,300000	52,455000
2,481031	195,644578	118,806	0,007012	22,290000	52,425000
2,466004	186,583605	119,556	0,003188	22,290000	52,425000
2,451042	172,984625	120,308	-0,002550	22,290000	52,425000
2,435969	161,667376	121,061	-0,007326	22,290000	52,425000
2,424044	152,825089	121,811	-0,011058	22,290000	52,425000
2,439037	164,652603	122,449	-0,006066	22,310000	52,415000
2,454020	176,581939	123,200	-0,001032	22,310000	52,415000
2,469030	186,396160	123,952	0,003109	22,310000	52,415000
2,484035	199,210651	124,704	0,008517	22,300000	52,470000
2,499015	210,426077	125,456	0,013250	22,300000	52,470000
2,514036	220,427744	126,208	0,017471	22,300000	52,470000
2,529043	232,718084	126,960	0,022657	22,290000	52,475000
2,543969	241,339372	127,712	0,026295	22,290000	52,475000
2,558950	254,358662	128,465	0,031790	22,300000	52,455000
2,574036	265,151761	129,215	0,036344	22,300000	52,455000
2,589005	274,282157	129,968	0,040197	22,300000	52,455000
2,603951	285,718583	130,719	0,045023	22,300000	52,470000
2,618999	294,599054	131,472	0,048771	22,300000	52,470000
2,634076	307,523465	132,222	0,054225	22,300000	52,470000
2,648970	318,613929	132,972	0,058905	22,300000	52,470000
2,664022	327,847305	133,724	0,062802	22,300000	52,470000
2,675975	336,908277	134,474	0,066625	22,300000	52,470000
2,676033	336,163128	135,224	0,066311	22,300000	52,470000
2,676017	335,732700	135,974	0,066129	22,300000	52,470000
2,675985	334,987550	136,724	0,065815	22,300000	52,440000
2,675966	334,665886	137,474	0,065679	22,300000	52,440000
2,675929	334,188018	138,226	0,065478	22,300000	52,440000
2,675954	333,961234	138,976	0,065382	22,300000	52,440000
2,675996	333,349147	139,726	0,065124	22,300000	52,440000
2,675992	332,910619	140,478	0,064938	22,310000	52,480000
2,675934	332,887478	141,229	0,064929	22,310000	52,480000
2,676008	332,613253	141,979	0,064813	22,310000	52,480000
2,675971	332,111087	142,730	0,064601	22,300000	52,440000
2,675973	331,954884	143,482	0,064535	22,300000	52,440000
2,676007	331,718843	144,234	0,064436	22,300000	52,440000
2,663962	324,468676	144,985	0,061376	22,300000	52,440000
2,648939	311,771049	145,736	0,056018	22,300000	52,440000
2,634017	298,697377	146,488	0,050500	22,300000	52,455000
2,618909	289,307798	147,240	0,046538	22,300000	52,455000
2,603971	278,162952	147,992	0,041835	22,300000	52,455000
2,588980	266,647845	148,743	0,036976	22,300000	52,455000
2,574020	255,706642	149,496	0,032358	22,300000	52,455000
2,558962	244,616179	150,248	0,027678	22,300000	52,455000
2,553000	235,029899	150,884	0,023633	22,300000	52,440000
2,567971	250,063639	151,635	0,029977	22,300000	52,440000
2,583005	259,351396	152,386	0,033896	22,320000	52,480000
2,598016	271,202051	153,136	0,038897	22,320000	52,480000
2,612995	284,950293	153,886	0,044699	22,320000	52,480000
2,627977	293,924485	154,637	0,048486	22,300000	52,455000
2,643040	304,975609	155,388	0,053150	22,300000	52,455000
2,657963	316,152853	156,139	0,057867	22,300000	52,455000
2,672977	328,717417	156,891	0,063169	22,310000	52,495000
2,687994	341,085280	157,645	0,068388	22,310000	52,495000
2,703038	351,847138	158,397	0,072930	22,310000	52,495000
2,718008	362,860078	159,148	0,077577	22,310000	52,495000
2,732981	371,504508	159,899	0,081225	22,310000	52,495000
2,748024	384,907944	160,651	0,086881	22,310000	52,470000
2,762972	394,486124	161,401	0,090923	22,310000	52,470000
2,777981	404,565314	162,152	0,095177	22,310000	52,470000
2,793024	414,809964	162,905	0,099500	22,310000	52,455000
2,807949	428,415886	163,657	0,105242	22,310000	52,455000
2,822984	439,107163	164,408	0,109753	22,290000	52,410000
2,837966	447,196201	165,160	0,113167	22,290000	52,410000
2,843988	453,356413	165,912	0,115767	22,290000	52,410000
2,844011	452,839205	166,662	0,115548	22,300000	52,430000
2,843972	451,962150	167,413	0,115178	22,300000	52,430000
2,843991	451,561806	168,164	0,115009	22,300000	52,430000
2,844015	451,343121	168,914	0,114917	22,300000	52,430000
2,843956	451,013357	169,664	0,114778	22,300000	52,430000
2,844013	450,464909	170,416	0,114546	22,300000	52,480000
2,843967	450,331846	171,166	0,114490	22,300000	52,480000
2,843974	449,869020	171,916	0,114295	22,300000	52,480000
2,843992	449,852821	172,671	0,114288	22,310000	52,440000
2,843972	449,609838	173,424	0,114186	22,310000	52,440000
2,844017	449,226849	174,174	0,114024	22,310000	52,440000
2,843967	448,920227	174,926	0,113895	22,300000	52,470000
2,840966	448,905186	175,676	0,113888	22,300000	52,470000
2,825964	436,780306	176,427	0,108771	22,300000	52,470000
2,810979	425,117095	177,180	0,103850	22,300000	52,470000
2,796008	411,133970	177,931	0,097949	22,300000	52,470000
2,780959	401,987374	178,683	0,094089	22,300000	52,440000
2,765976	388,215992	179,434	0,088277	22,300000	52,440000
2,751005	379,107579	180,184	0,084434	22,300000	52,440000
2,736014	366,582355	180,936	0,079148	22,310000	52,440000
2,720962	356,424485	181,689	0,074861	22,310000	52,440000
2,705993	345,035499	182,440	0,070055	22,310000	52,455000
2,690954	332,432751	183,190	0,064737	22,310000	52,455000
2,675970	322,580347	183,940	0,060579	22,310000	52,455000
2,687976	328,341371	184,576	0,063010	22,310000	52,455000
2,702980	342,183335	185,327	0,068852	22,310000	52,455000
2,717979	354,308214	186,079	0,073968	22,310000	52,455000
2,732987	363,666553	186,832	0,077917	22,300000	52,480000
2,748008	375,102979	187,584	0,082744	22,300000	52,480000
2,763002	386,553290	188,335	0,087576	22,300000	52,480000
2,777997	399,729941	189,088	0,093136	22,300000	52,480000
2,792999	409,456226	189,839	0,097241	22,300000	52,480000
2,807981	421,856487	190,589	0,102474	22,300000	52,430000
2,823003	431,778316	191,342	0,106661	22,300000	52,430000
2,838007	444,978108	192,092	0,112231	22,300000	52,430000
2,852954	456,413378	192,842	0,117057	22,300000	52,455000
2,867985	465,490549	193,592	0,120887	22,300000	52,455000
2,882960	476,659693	194,344	0,125601	22,300000	52,470000
2,897981	487,021207	195,099	0,129973	22,300000	52,470000
2,913007	500,102979	195,849	0,135494	22,300000	52,470000
2,928015	509,069072	196,600	0,139277	22,300000	52,495000
2,942962	520,049615	197,350	0,143911	22,300000	52,495000
2,957944	533,257507	198,102	0,149485	22,300000	52,495000
2,972980	541,910036	198,852	0,153136	22,300000	52,495000
2,987837	555,618937	199,602	0,158921	22,300000	52,495000
3,002927	564,225183	200,353	0,162553	22,300000	52,470000
3,011958	572,588446	201,104	0,166083	22,300000	52,470000
3,011919	571,772715	201,855	0,165738	22,300000	52,470000
3,011918	571,311047	202,606	0,165543	22,310000	52,480000
3,011911	570,792682	203,357	0,165325	22,310000	52,480000
3,011954	570,337955	204,109	0,165133	22,310000	52,480000
3,011946	570,189851	204,860	0,165070	22,300000	52,440000
3,011922	569,711983	205,611	0,164869	22,300000	52,440000
3,012007	569,649502	206,364	0,164842	22,300000	52,440000
3,011895	569,170477	207,115	0,164640	22,300000	52,440000
3,011963	568,998075	207,868	0,164567	22,300000	52,440000
3,011953	568,919394	208,619	0,164534	22,300000	52,440000
3,011942	568,700709	209,370	0,164442	22,300000	52,440000
3,011930	568,630128	210,120	0,164412	22,300000	52,440000
3,011935	568,426485	210,871	0,164326	22,310000	52,470000
2,996924	556,410369	211,624	0,159255	22,310000	52,470000
2,981983	545,147503	212,374	0,154502	22,310000	52,470000
2,966980	535,153936	213,124	0,150285	22,310000	52,470000
2,951933	522,550031	213,875	0,144966	22,310000	52,470000
2,936952	509,445118	214,626	0,139436	22,310000	52,470000
2,921984	499,945618	215,377	0,135427	22,310000	52,470000
2,906977	488,878295	216,129	0,130757	22,310000	52,470000
2,891992	475,060630	216,881	0,124926	22,300000	52,440000
2,876948	464,996483	217,632	0,120679	22,300000	52,440000
2,862015	452,612420	218,382	0,115453	22,300000	52,470000
2,846928	441,034832	219,133	0,110567	22,300000	52,470000
2,831963	432,209901	219,886	0,106843	22,300000	52,470000
2,816968	420,710993	220,637	0,101990	22,300000	52,470000
2,801953	408,162628	221,390	0,096695	22,300000	52,470000
2,813960	415,013607	222,024	0,099586	22,300000	52,470000
2,828908	427,029723	222,774	0,104657	22,310000	52,455000
2,843959	439,067822	223,526	0,109737	22,310000	52,455000
2,858973	450,645411	224,278	0,114623	22,310000	52,455000
2,873971	463,679743	225,029	0,120123	22,290000	52,450000
2,888937	476,346129	225,779	0,125468	22,290000	52,450000
2,903967	485,523965	226,529	0,129341	22,290000	52,475000
2,918967	499,170385	227,281	0,135100	22,290000	52,475000
2,934009	510,620696	228,034	0,139932	22,290000	52,475000
2,948959	520,551781	228,786	0,144123	22,290000	52,475000
2,963979	530,906352	229,536	0,148493	22,290000	52,475000
2,978992	542,725766	230,287	0,153480	22,290000	52,475000
2,993947	555,807539	231,037	0,159001	22,300000	52,430000
3,008951	565,338279	231,787	0,163023	22,300000	52,430000
3,023933	577,699200	232,539	0,168239	22,300000	52,430000
3,038979	589,431835	233,290	0,173190	22,300000	52,430000
3,053994	600,444776	234,040	0,177838	22,300000	52,430000
3,068956	609,167885	234,791	0,181519	22,310000	52,455000
3,083957	622,077255	235,542	0,186967	22,310000	52,455000
3,098913	630,918385	236,292	0,190698	22,310000	52,455000
3,113916	642,361754	237,042	0,195527	22,310000	52,480000
3,128963	653,680160	237,793	0,200303	22,310000	52,480000
3,143986	664,621362	238,544	0,204920	22,310000	52,480000
3,158951	677,750574	239,296	0,210461	22,310000	52,480000
3,173882	686,388061	240,048	0,214106	22,310000	52,480000
3,179919	692,720675	240,800	0,216778	22,300000	52,405000
3,179913	692,039164	241,550	0,216491	22,300000	52,405000
3,179928	691,568239	242,302	0,216292	22,300000	52,405000
3,179905	691,169052	243,055	0,216124	22,300000	52,455000
3,179896	691,160952	243,807	0,216120	22,300000	52,455000
3,179918	690,392661	244,559	0,215796	22,300000	52,455000
3,179935	690,345222	245,310	0,215776	22,300000	52,455000
3,179941	689,922893	246,061	0,215598	22,300000	52,455000
3,179914	689,757433	246,814	0,215528	22,300000	52,455000
3,179885	689,342047	247,564	0,215353	22,300000	52,455000
3,179914	689,264523	248,317	0,215320	22,300000	52,455000
3,179919	689,295764	249,070	0,215333	22,300000	52,480000
3,179979	688,801698	249,821	0,215125	22,300000	52,480000
3,176924	688,025307	250,572	0,214797	22,290000	52,465000
3,161947	676,558797	251,324	0,209958	22,290000	52,465000
3,146949	664,542682	252,077	0,204887	22,290000	52,465000
3,131898	652,715168	252,828	0,199896	22,310000	52,455000
3,116899	639,163627	253,581	0,194177	22,310000	52,455000
3,101887	629,452384	254,332	0,190079	22,310000	52,470000
3,086955	618,330680	255,082	0,185386	22,310000	52,470000
3,071960	606,683668	255,836	0,180471	22,310000	52,470000
3,056923	595,483283	256,587	0,175744	22,300000	52,480000
3,041985	583,796931	257,338	0,170813	22,300000	52,480000
3,026965	571,059964	258,089	0,165438	22,300000	52,480000
3,011945	558,989466	258,839	0,160344	22,300000	52,495000
2,997000	547,671060	259,590	0,155567	22,300000	52,495000
2,981993	536,219592	260,343	0,150735	22,300000	52,495000
2,966958	524,596879	261,093	0,145830	22,300000	52,495000
2,952007	514,915719	261,844	0,141745	22,300000	52,495000
2,936932	504,578505	262,596	0,137382	22,300000	52,470000
2,931013	495,877379	263,229	0,133710	22,300000	52,470000
2,945989	508,105237	263,979	0,138871	22,300000	52,470000
2,960981	520,215075	264,731	0,143981	22,300000	52,455000
2,975948	533,265606	265,485	0,149488	22,300000	52,455000
2,990938	543,635219	266,237	0,153864	22,300000	52,455000
3,005953	555,305372	266,988	0,158789	22,300000	52,455000
3,020971	568,472767	267,738	0,164346	22,300000	52,455000
3,035960	578,435093	268,491	0,168550	22,300000	52,455000
3,050994	590,050865	269,241	0,173452	22,300000	52,455000
3,065912	603,571164	269,992	0,179157	22,300000	52,455000
3,080972	612,828838	270,745	0,183064	22,300000	52,495000
3,095949	624,318489	271,495	0,187913	22,300000	52,495000
3,110995	635,620696	272,246	0,192682	22,300000	52,495000
3,125957	646,797939	272,997	0,197399	22,310000	52,470000
3,140950	659,433085	273,748	0,202731	22,310000	52,470000
3,155893	669,881378	274,499	0,207140	22,310000	52,470000
3,170949	683,142495	275,251	0,212736	22,310000	52,470000
3,185968	692,423310	276,001	0,216653	22,310000	52,470000
3,200922	702,980367	276,752	0,221108	22,300000	52,455000
3,215905	714,267532	277,503	0,225871	22,300000	52,455000
3,230944	725,476016	278,254	0,230601	22,300000	52,455000
3,245908	736,770124	279,005	0,235367	22,290000	52,465000
3,260916	747,571321	279,756	0,239925	22,290000	52,465000
3,275908	758,826089	280,508	0,244675	22,300000	52,440000
3,290943	770,849147	281,258	0,249749	22,300000	52,440000
3,305896	781,251157	282,009	0,254138	22,300000	52,440000
3,320909	794,238050	282,759	0,259619	22,300000	52,440000
3,335884	805,249833	283,509	0,264266	22,300000	52,440000
3,347856	814,295764	284,261	0,268083	22,300000	52,440000
3,347912	813,402510	285,012	0,267706	22,300000	52,470000
3,347892	812,484958	285,763	0,267319	22,300000	52,470000
3,347875	812,484958	286,515	0,267319	22,300000	52,470000
3,347908	811,756007	287,266	0,267011	22,300000	52,470000
3,347905	811,670385	288,016	0,266975	22,300000	52,470000
3,347797	811,356820	288,766	0,266843	22,300000	52,455000
3,347883	811,074496	289,516	0,266724	22,300000	52,455000
3,347932	810,760932	290,266	0,266591	22,300000	52,455000
3,347917	810,690351	291,016	0,266562	22,300000	52,455000
3,347881	810,290007	291,769	0,266393	22,300000	52,455000
3,347910	810,235625	292,520	0,266370	22,300000	52,470000
3,347893	810,196284	293,270	0,266353	22,300000	52,470000
3,347894	809,828338	294,022	0,266198	22,300000	52,470000
3,335915	802,420811	294,776	0,263072	22,310000	52,470000
3,320893	790,616438	295,526	0,258090	22,310000	52,470000
3,305909	778,688259	296,277	0,253057	22,310000	52,470000
3,290844	766,852646	297,027	0,248062	22,300000	52,470000
3,275923	752,697118	297,780	0,242088	22,300000	52,470000
3,260888	741,222508	298,531	0,237246	22,300000	52,470000
3,245885	730,672393	299,284	0,232794	22,300000	52,470000
3,230902	717,990966	300,035	0,227442	22,300000	52,470000
3,215978	708,051781	300,785	0,223248	22,290000	52,450000
3,200957	697,627786	301,535	0,218849	22,290000	52,450000
3,185915	685,682252	302,288	0,213808	22,290000	52,450000
3,170908	674,560547	303,038	0,209115	22,300000	52,480000
3,155905	662,708734	303,790	0,204113	22,300000	52,480000
3,140919	650,866179	304,541	0,199116	22,300000	52,480000
3,125904	638,199793	305,292	0,193771	22,300000	52,480000
3,110972	629,327422	306,044	0,190026	22,300000	52,480000
3,095971	615,595379	306,794	0,184231	22,310000	52,470000
3,080954	606,761191	307,546	0,180503	22,310000	52,470000
3,065888	593,367012	308,298	0,174851	22,310000	52,470000
3,053910	584,391662	309,048	0,171063	22,300000	52,470000
3,068953	596,885645	309,684	0,176336	22,300000	52,470000
3,083906	608,705060	310,434	0,181324	22,300000	52,470000
3,098957	620,932918	311,185	0,186484	22,300000	52,470000
3,113926	630,126953	311,935	0,190364	22,300000	52,470000
3,128930	642,306215	312,689	0,195503	22,310000	52,480000
3,143957	653,593380	313,442	0,200267	22,310000	52,480000
3,158869	667,067397	314,194	0,205953	22,310000	52,480000
3,173887	679,474600	314,946	0,211188	22,300000	52,470000
3,188918	688,480034	315,699	0,214989	22,300000	52,470000
3,203926	702,063972	316,450	0,220721	22,300000	52,495000
3,218929	711,335530	317,202	0,224634	22,300000	52,495000
3,233922	723,602729	317,954	0,229811	22,300000	52,495000
3,248885	736,503999	318,706	0,235255	22,300000	52,470000
3,263910	745,501333	319,457	0,239052	22,300000	52,470000
3,278882	757,665553	320,208	0,244185	22,300000	52,470000
3,293872	770,340038	320,959	0,249534	22,300000	52,470000
3,308897	779,251749	321,711	0,253294	22,300000	52,470000
3,323883	792,983792	322,461	0,259089	22,300000	52,455000
3,338901	802,177827	323,214	0,262969	22,300000	52,455000
3,353875	815,448201	323,964	0,268569	22,300000	52,455000
3,368891	824,296273	324,717	0,272303	22,300000	52,440000
3,383893	836,006924	325,467	0,277245	22,300000	52,440000
3,398869	849,143078	326,218	0,282789	22,300000	52,440000
3,413895	860,374704	326,968	0,287528	22,300000	52,440000
3,428893	871,520707	327,719	0,292232	22,300000	52,440000
3,443815	880,652260	328,471	0,296085	22,290000	52,425000
3,458825	893,121945	329,226	0,301348	22,290000	52,425000
3,473826	902,401603	329,977	0,305264	22,290000	52,425000
3,488788	914,355237	330,728	0,310308	22,310000	52,480000
3,503870	927,146586	331,480	0,315706	22,310000	52,480000
3,515814	935,682252	332,231	0,319308	22,310000	52,480000
3,515829	935,329347	332,983	0,319159	22,290000	52,490000
3,515810	934,552957	333,735	0,318832	22,290000	52,490000
3,515822	934,091288	334,486	0,318637	22,290000	52,490000
3,515849	933,785823	335,240	0,318508	22,290000	52,490000
3,515797	933,526640	335,991	0,318398	22,290000	52,490000
3,515863	933,472258	336,741	0,318375	22,300000	52,440000
3,515858	932,970092	337,491	0,318164	22,300000	52,440000
3,515822	932,797690	338,241	0,318091	22,300000	52,440000
3,515814	932,579004	338,992	0,317999	22,290000	52,475000
3,515850	932,218000	339,744	0,317846	22,290000	52,475000
3,515765	932,093037	340,494	0,317793	22,290000	52,475000
3,515848	931,904436	341,244	0,317714	22,290000	52,475000
3,515779	931,998158	341,994	0,317753	22,290000	52,475000
3,503815	922,020790	342,747	0,313543	22,310000	52,480000
3,488810	910,984708	343,499	0,308886	22,310000	52,480000
3,473811	900,639394	344,251	0,304520	22,310000	52,480000
3,458872	888,301614	345,002	0,299313	22,300000	52,495000
3,443898	874,443452	345,755	0,293465	22,300000	52,495000
3,428869	865,431076	346,506	0,289662	22,300000	52,495000
3,413854	853,807205	347,257	0,284757	22,300000	52,495000
3,398824	841,454384	348,010	0,279544	22,300000	52,495000
3,383874	830,692526	348,762	0,275002	22,300000	52,495000
3,368915	817,101646	349,512	0,269267	22,300000	52,495000
3,353865	807,735208	350,264	0,265314	22,300000	52,495000
3,338848	796,252499	351,014	0,260469	22,300000	52,495000
3,323897	782,379295	351,767	0,254614	22,300000	52,495000
3,308837	773,303281	352,519	0,250784	22,290000	52,450000
3,293881	761,930493	353,271	0,245985	22,290000	52,450000
3,278836	750,713909	354,022	0,241251	22,290000	52,450000
3,263861	739,349221	354,772	0,236456	22,290000	52,450000
3,248882	726,267449	355,522	0,230935	22,290000	52,450000
3,233917	716,022799	356,273	0,226612	22,290000	52,450000
3,218957	705,630045	357,025	0,222226	22,300000	52,470000
3,203919	691,773039	357,777	0,216378	22,300000	52,470000
3,188921	682,892569	358,529	0,212631	22,300000	52,455000
3,182917	674,042182	359,167	0,208896	22,300000	52,455000
3,197963	688,974100	359,919	0,215197	22,300000	52,455000
3,212942	698,803364	360,672	0,219345	22,300000	52,470000
3,227901	712,527307	361,424	0,225137	22,300000	52,470000
3,242929	724,911369	362,174	0,230363	22,300000	52,470000
3,257914	735,586447	362,924	0,234868	22,300000	52,510000
3,272919	748,260932	363,675	0,240216	22,300000	52,510000
3,287924	757,980274	364,426	0,244318	22,300000	52,480000
3,302888	768,929576	365,176	0,248938	22,300000	52,480000
3,317935	781,172477	365,927	0,254105	22,300000	52,480000
3,332945	791,926235	366,678	0,258643	22,300000	52,480000
3,347905	803,573247	367,429	0,263558	22,300000	52,480000
3,362877	817,579513	368,181	0,269469	22,300000	52,480000
3,377922	828,827338	368,932	0,274215	22,300000	52,440000
3,392833	837,965834	369,684	0,278072	22,300000	52,440000
3,407887	849,080596	370,436	0,282762	22,310000	52,480000
3,422862	860,704467	371,188	0,287667	22,310000	52,480000
3,437899	873,589538	371,940	0,293105	22,310000	52,480000
3,452883	885,651936	372,691	0,298195	22,310000	52,480000
3,467851	895,105154	373,443	0,302185	22,310000	52,480000
3,482859	906,658444	374,194	0,307060	22,310000	52,480000
3,497897	917,184260	374,944	0,311502	22,310000	52,470000
3,512855	928,494566	375,695	0,316275	22,310000	52,470000
3,527902	939,789831	376,447	0,321042	22,310000	52,440000
3,542883	952,244474	377,198	0,326297	22,310000	52,440000
3,557861	962,143161	377,951	0,330475	22,310000	52,440000
3,572777	973,962576	378,701	0,335462	22,300000	52,470000
3,587856	987,060547	379,451	0,340990	22,300000	52,470000
3,602869	998,543256	380,201	0,345835	22,300000	52,470000
3,617837	1009,602479	380,954	0,350502	22,300000	52,470000
3,632844	1020,551781	381,704	0,355123	22,300000	52,470000
3,647815	1031,720925	382,456	0,359836	22,300000	52,455000
3,662850	1040,397753	383,210	0,363498	22,300000	52,455000
3,677839	1051,880461	383,960	0,368344	22,300000	52,455000
3,683802	1058,181835	384,712	0,371003	22,300000	52,455000
3,683826	1057,892569	385,464	0,370881	22,300000	52,455000
3,683823	1057,076838	386,217	0,370537	22,300000	52,455000
3,683777	1056,489050	386,969	0,370289	22,310000	52,495000
3,683886	1056,183584	387,722	0,370160	22,310000	52,495000
3,683786	1056,198626	388,473	0,370166	22,300000	52,480000
3,683823	1056,152344	389,225	0,370146	22,300000	52,480000
3,683889	1055,384053	389,977	0,369822	22,300000	52,480000
3,683804	1055,062389	390,729	0,369687	22,300000	52,480000
3,683798	1055,493974	391,480	0,369869	22,300000	52,480000
3,683813	1054,929326	392,230	0,369630	22,300000	52,480000
3,683800	1054,788165	392,983	0,369571	22,300000	52,480000
3,683836	1054,474600	393,735	0,369438	22,300000	52,480000
3,680803	1052,742474	394,488	0,368708	22,310000	52,480000
3,665830	1042,356663	395,238	0,364325	22,310000	52,480000
3,650855	1030,497908	395,988	0,359320	22,310000	52,480000
3,635778	1015,990632	396,740	0,353198	22,310000	52,480000
3,620864	1006,067647	397,490	0,349011	22,310000	52,480000
3,605810	992,813472	398,240	0,343417	22,310000	52,480000
3,590820	980,774215	398,992	0,338337	22,310000	52,480000
3,575837	970,491382	399,742	0,333998	22,310000	52,480000
3,560819	957,385312	400,493	0,328467	22,310000	52,480000
3,545859	948,097554	401,245	0,324547	22,310000	52,480000
3,530788	934,279889	401,996	0,318716	22,310000	52,480000
3,515845	925,030315	402,749	0,314813	22,300000	52,455000
3,500871	911,282074	403,500	0,309011	22,300000	52,455000
3,485834	900,262191	404,250	0,304361	22,300000	52,455000
3,470887	888,396494	405,002	0,299354	22,300000	52,470000
3,455859	877,124371	405,752	0,294597	22,300000	52,470000
3,440870	867,194442	406,503	0,290406	22,300000	52,495000
3,425853	856,746149	407,256	0,285997	22,300000	52,495000
3,410893	845,216001	408,007	0,281131	22,300000	52,495000
3,395880	832,597055	408,759	0,275806	22,290000	52,450000
3,380910	823,003832	409,511	0,271758	22,290000	52,450000
3,365903	810,910193	410,264	0,266654	22,290000	52,450000
3,350885	798,109588	411,016	0,261252	22,290000	52,450000
3,335897	786,376953	411,768	0,256301	22,290000	52,450000
3,320836	777,081096	412,519	0,252378	22,290000	52,465000
3,305873	764,046764	413,271	0,246878	22,290000	52,465000
3,290922	754,703467	414,023	0,242935	22,290000	52,465000
3,275926	741,731617	414,774	0,237461	22,310000	52,470000
3,260896	732,537581	415,525	0,233581	22,310000	52,470000
3,245988	720,334021	416,276	0,228431	22,310000	52,470000
3,230896	707,698876	417,027	0,223099	22,300000	52,495000
3,215895	698,677244	417,779	0,219292	22,300000	52,495000
3,200882	687,304456	418,530	0,214493	22,300000	52,495000
3,185901	676,104071	419,282	0,209766	22,300000	52,495000
3,170914	663,360162	420,032	0,204388	22,300000	52,495000
3,155980	651,258423	420,783	0,199281	22,300000	52,495000
3,140971	641,898928	421,534	0,195332	22,300000	52,495000
3,125883	631,514274	422,286	0,190949	22,300000	52,495000
3,110950	618,095796	423,036	0,185287	22,300000	52,495000
3,095909	607,623204	423,788	0,180867	22,300000	52,495000
3,080938	595,969250	424,538	0,175949	22,300000	52,470000
3,065958	586,767115	425,289	0,172066	22,300000	52,470000
3,050923	573,787165	426,039	0,166588	22,300000	52,470000
3,035950	564,451968	426,790	0,162649	22,290000	52,475000
3,020962	551,739299	427,542	0,157284	22,290000	52,475000
3,005945	542,584605	428,293	0,153421	22,290000	52,475000
2,990965	530,043182	429,044	0,148128	22,310000	52,440000
2,975990	520,912785	429,795	0,144275	22,310000	52,440000
2,960984	509,297014	430,546	0,139374	22,310000	52,440000
2,945954	499,216667	431,297	0,135120	22,310000	52,440000
2,930974	486,911286	432,047	0,129927	22,310000	52,440000
2,915918	477,215084	432,799	0,125835	22,290000	52,475000
2,900945	465,968417	433,550	0,121089	22,290000	52,475000
2,885891	452,824163	434,301	0,115542	22,290000	52,475000
2,871004	444,021216	435,054	0,111827	22,300000	52,470000
2,855968	432,084938	435,805	0,106790	22,300000	52,470000
2,840970	419,582855	436,557	0,101514	22,310000	52,455000
2,825981	409,142661	437,309	0,097108	22,310000	52,455000
2,810952	400,560713	438,060	0,093487	22,310000	52,455000
2,795974	387,157277	438,813	0,087831	22,310000	52,470000
2,780953	378,472351	439,566	0,084166	22,310000	52,470000
2,765992	368,040257	440,316	0,079763	22,310000	52,470000
2,751012	356,652427	441,067	0,074958	22,300000	52,440000
2,735963	346,086113	441,818	0,070499	22,300000	52,440000
2,720965	335,442276	442,569	0,066007	22,300000	52,440000
2,705989	323,662202	443,320	0,061036	22,300000	52,440000
2,690986	313,614253	444,070	0,056795	22,300000	52,440000
2,676016	300,351979	444,821	0,051199	22,300000	52,455000
2,660972	291,596471	445,571	0,047504	22,300000	52,455000
2,646030	281,000074	446,322	0,043032	22,300000	52,455000
2,630968	270,198876	447,072	0,038474	22,290000	52,475000
2,615954	259,461317	447,824	0,033943	22,290000	52,475000
2,601038	247,758766	448,577	0,029004	22,290000	52,475000
2,585946	238,173643	449,330	0,024959	22,290000	52,475000
2,571000	227,349304	450,083	0,020392	22,290000	52,475000
2,555978	216,203301	450,835	0,015688	22,300000	52,455000
2,540980	203,231450	451,586	0,010214	22,300000	52,455000
2,525948	192,595712	452,338	0,005726	22,300000	52,455000
2,511021	183,166793	453,090	0,001747	22,310000	52,480000
2,495986	171,378619	453,841	-0,003228	22,310000	52,480000
2,480949	161,956642	454,591	-0,007204	22,300000	52,470000
2,465995	152,621445	455,341	-0,011144	22,300000	52,470000
2,451025	141,609662	456,091	-0,015791	22,300000	52,470000
2,436013	130,831605	456,842	-0,020339	22,310000	52,470000
2,420989	119,599980	457,592	-0,025079	22,310000	52,470000
2,406007	109,803114	458,343	-0,029213	22,310000	52,470000
2,391005	99,190518	459,094	-0,033691	22,310000	52,470000
2,376013	86,955717	459,845	-0,038854	22,310000	52,470000
2,360996	76,891569	460,598	-0,043102	22,310000	52,470000
2,346013	66,246575	461,349	-0,047594	22,310000	52,470000
2,331008	55,697617	462,099	-0,052045	22,310000	52,470000
2,316046	47,083272	462,851	-0,055681	22,310000	52,470000
2,301032	34,879712	463,603	-0,060831	22,310000	52,470000
2,286031	26,500250	464,354	-0,064367	22,310000	52,470000
2,271031	16,146836	465,104	-0,068736	22,300000	52,495000
2,256042	3,417969	465,854	-0,074107	22,300000	52,495000
2,241016	-6,669320	466,606	-0,078364	22,300000	52,495000
2,225953	-14,703977	467,357	-0,081755	22,300000	52,495000
2,211015	-25,065490	468,109	-0,086127	22,300000	52,495000
2,196040	-36,563241	468,861	-0,090979	22,300000	52,470000
2,181078	-45,279408	469,614	-0,094658	22,300000	52,470000
2,165959	-55,977627	470,365	-0,099172	22,310000	52,480000
2,151024	-67,908120	471,116	-0,104207	22,310000	52,480000
2,135994	-78,128471	471,868	-0,108520	22,310000	52,480000
2,121036	-86,232551	472,618	-0,111940	22,290000	52,490000
2,105995	-98,726535	473,369	-0,117212	22,290000	52,490000
2,091041	-108,625222	474,120	-0,121390	22,290000	52,490000
2,075982	-116,362513	474,870	-0,124655	22,310000	52,470000
2,061009	-127,131313	475,622	-0,129199	22,310000	52,470000
2,046010	-136,294107	476,374	-0,133066	22,310000	52,480000
2,031040	-146,412637	477,125	-0,137336	22,310000	52,480000
2,016062	-158,827940	477,875	-0,142575	22,310000	52,480000
2,001022	-166,501592	478,626	-0,145813	22,310000	52,480000
1,986032	-178,728293	479,378	-0,150973	22,310000	52,480000
1,971024	-188,894263	480,129	-0,155263	22,310000	52,480000
1,956066	-196,638496	480,880	-0,158531	22,310000	52,495000
1,940999	-207,094889	481,630	-0,162944	22,310000	52,495000
1,926036	-217,315240	482,380	-0,167257	22,310000	52,470000
1,911041	-229,377638	483,133	-0,172347	22,310000	52,470000
1,896042	-238,877138	483,885	-0,176356	22,310000	52,470000
1,881017	-247,310982	484,637	-0,179915	22,310000	52,495000
1,865998	-258,158462	485,389	-0,184493	22,310000	52,495000
1,851039	-265,824015	486,140	-0,187728	22,310000	52,495000
1,836015	-277,502268	486,892	-0,192656	22,310000	52,480000
1,821063	-285,427003	487,644	-0,196000	22,310000	52,480000
1,806027	-295,349989	488,396	-0,200187	22,290000	52,490000
1,791034	-305,665220	489,148	-0,204541	22,290000	52,490000
1,776051	-313,753101	489,898	-0,207954	22,290000	52,490000
1,761043	-323,418061	490,648	-0,212032	22,310000	52,480000
1,746027	-333,011284	491,400	-0,216081	22,310000	52,480000
1,731034	-342,535082	492,152	-0,220100	22,310000	52,480000
1,716097	-354,173995	492,903	-0,225011	22,300000	52,510000
1,701050	-361,635904	493,656	-0,228160	22,300000	52,510000
1,686041	-372,671986	494,408	-0,232817	22,300000	52,510000
1,671032	-381,638079	495,159	-0,236601	22,300000	52,510000
1,656088	-390,707152	495,909	-0,240428	22,300000	52,510000
1,641022	-399,751925	496,659	-0,244245	22,300000	52,470000
1,626044	-411,665062	497,410	-0,249272	22,300000	52,470000
1,611041	-419,135071	498,160	-0,252425	22,300000	52,470000
1,596068	-429,176077	498,911	-0,256662	22,300000	52,495000
1,581031	-439,325848	499,662	-0,260945	22,300000	52,495000
1,566048	-445,533499	500,414	-0,263565	22,300000	52,480000
1,551052	-455,801290	501,166	-0,267898	22,300000	52,480000
1,536062	-464,509358	501,916	-0,271573	22,300000	52,480000
1,521051	-474,988892	502,667	-0,275995	22,300000	52,470000
1,506054	-484,096147	503,420	-0,279838	22,300000	52,470000
1,491040	-490,335040	504,172	-0,282471	22,300000	52,470000
1,476060	-500,124963	504,922	-0,286603	22,310000	52,510000
1,461046	-509,859347	505,672	-0,290710	22,310000	52,510000
1,446043	-516,552966	506,423	-0,293535	22,310000	52,510000
1,431053	-526,224869	507,175	-0,297617	22,310000	52,510000
1,416040	-536,516958	507,927	-0,301960	22,310000	52,510000
1,401064	-545,451811	508,679	-0,305730	22,290000	52,475000
1,386042	-551,910545	509,430	-0,308456	22,290000	52,475000
1,371015	-559,748500	510,182	-0,311764	22,290000	52,475000
1,356061	-566,622621	510,934	-0,314665	22,310000	52,440000
1,341079	-575,376972	511,686	-0,318359	22,310000	52,440000
1,326043	-584,250500	512,438	-0,322104	22,300000	52,440000
1,311082	-590,645596	513,192	-0,324802	22,300000	52,440000
1,296080	-597,237393	513,943	-0,327584	22,300000	52,440000
1,281035	-606,618872	514,694	-0,331543	22,300000	52,495000
1,266050	-612,223693	515,444	-0,333908	22,300000	52,495000
1,251053	-621,299707	516,197	-0,337738	22,300000	52,495000
1,236062	-628,581115	516,949	-0,340811	22,300000	52,470000
1,221108	-633,355163	517,700	-0,342826	22,300000	52,470000
1,206091	-642,634821	518,451	-0,346742	22,310000	52,495000
1,191083	-647,650696	519,202	-0,348858	22,310000	52,495000
1,176027	-652,244242	519,953	-0,350797	22,310000	52,495000
1,161084	-660,451301	520,703	-0,354260	22,300000	52,470000
1,146088	-665,184853	521,454	-0,356258	22,300000	52,470000
1,131089	-673,421995	522,206	-0,359734	22,300000	52,470000
1,116079	-680,281074	522,957	-0,362628	22,300000	52,470000
1,101076	-685,446210	523,709	-0,364808	22,300000	52,470000
[...]
3,358511	816,975526	285,755	0,269340	22,290000	52,555000
3,358446	816,387737	286,505	0,269092	22,290000	52,555000
3,358474	815,987393	287,258	0,268923	22,290000	52,555000
3,358535	815,980450	288,009	0,268920	22,290000	52,555000
3,358558	815,619446	288,759	0,268768	22,300000	52,535000
3,358575	815,337122	289,510	0,268648	22,300000	52,535000
3,358474	815,227201	290,260	0,268602	22,300000	52,535000
3,358503	814,780574	291,011	0,268414	22,300000	52,535000
3,358521	814,937935	291,763	0,268480	22,300000	52,535000
3,358478	814,749334	292,513	0,268400	22,300000	52,535000
3,358464	814,279565	293,265	0,268202	22,300000	52,560000
3,358546	814,490151	294,017	0,268291	22,300000	52,560000
3,346509	804,732626	294,767	0,264173	22,300000	52,575000
3,331543	795,405528	295,518	0,260237	22,300000	52,575000
3,316542	782,151353	296,269	0,254644	22,300000	52,575000
3,301563	771,632479	297,020	0,250205	22,300000	52,575000
3,286504	759,382637	297,772	0,245036	22,300000	52,575000
3,271509	746,770633	298,523	0,239713	22,300000	52,575000
3,256587	733,783740	299,273	0,234233	22,290000	52,540000
3,241576	722,895762	300,024	0,229638	22,290000	52,540000
3,226539	711,279991	300,777	0,224736	22,320000	52,575000
3,211426	700,831698	301,529	0,220327	22,320000	52,575000
3,196571	688,127129	302,282	0,214966	22,320000	52,575000
3,181595	679,528982	303,032	0,211337	22,310000	52,560000
3,166545	665,961243	303,787	0,205612	22,310000	52,560000
3,151543	655,263024	304,537	0,201097	22,310000	52,560000
3,136642	644,759192	305,290	0,196665	22,310000	52,560000
3,121547	633,936010	306,042	0,192097	22,310000	52,560000
3,106576	622,931169	306,793	0,187453	22,310000	52,560000
3,091552	609,795014	307,546	0,181910	22,310000	52,560000
3,076564	598,296107	308,297	0,177057	22,310000	52,560000
3,064570	588,952810	309,049	0,173114	22,300000	52,520000
3,079614	600,788424	309,682	0,178109	22,300000	52,520000
3,094633	611,110597	310,434	0,182465	22,300000	52,520000
3,109588	624,458494	311,185	0,188098	22,300000	52,585000
3,124581	637,470842	311,937	0,193589	22,300000	52,585000
3,139654	647,173985	312,687	0,197684	22,310000	52,575000
3,154609	660,318239	313,437	0,203230	22,310000	52,575000
3,169600	669,888320	314,189	0,207269	22,310000	52,575000
3,184570	683,792765	314,940	0,213137	22,300000	52,545000
3,199570	695,572840	315,690	0,218108	22,300000	52,545000
3,214579	704,492650	316,441	0,221872	22,300000	52,545000
3,229569	715,975359	317,192	0,226718	22,300000	52,575000
3,244575	727,967176	317,942	0,231778	22,300000	52,575000
3,259544	740,939027	318,695	0,237252	22,300000	52,585000
3,274512	752,429836	319,447	0,242102	22,300000	52,585000
3,289502	762,195461	320,199	0,246223	22,300000	52,585000
3,304564	773,302123	320,950	0,250910	22,300000	52,560000
3,319515	784,290766	321,702	0,255547	22,300000	52,560000
3,334585	796,940953	322,455	0,260885	22,300000	52,560000
3,349516	806,614013	323,205	0,264967	22,300000	52,560000
3,364520	819,742067	323,955	0,270507	22,300000	52,560000
3,379512	831,350896	324,708	0,275406	22,290000	52,570000
3,394504	840,332031	325,460	0,279196	22,290000	52,570000
3,409511	851,540516	326,210	0,283926	22,290000	52,570000
3,424552	862,561556	326,960	0,288577	22,310000	52,575000
3,439553	875,971934	327,712	0,294236	22,310000	52,575000
3,454542	887,313481	328,463	0,299022	22,310000	52,575000
3,469536	896,052790	329,213	0,302710	22,310000	52,560000
3,484510	907,488059	329,963	0,307536	22,310000	52,560000
3,499522	919,072590	330,715	0,312425	22,300000	52,560000
3,514540	931,888237	331,465	0,317833	22,300000	52,560000
3,526568	940,611347	332,217	0,321514	22,300000	52,560000
3,526522	939,765532	332,967	0,321157	22,300000	52,560000
3,526507	939,475109	333,720	0,321035	22,300000	52,560000
3,526523	939,028482	334,470	0,320846	22,300000	52,560000
3,526530	938,957901	335,221	0,320816	22,310000	52,600000
3,526478	938,370113	335,971	0,320568	22,310000	52,600000
3,526509	938,002166	336,721	0,320413	22,310000	52,600000
3,526494	937,876046	337,473	0,320360	22,310000	52,600000
3,526534	937,343796	338,225	0,320135	22,310000	52,600000
3,526568	937,265116	338,977	0,320102	22,290000	52,555000
3,526546	937,217676	339,729	0,320082	22,290000	52,555000
3,526507	937,029075	340,480	0,320002	22,290000	52,555000
3,526523	936,810390	341,231	0,319910	22,300000	52,545000
3,526534	936,779149	341,981	0,319897	22,300000	52,545000
3,514564	929,395920	342,731	0,316781	22,310000	52,575000
3,499552	917,286082	343,482	0,311671	22,310000	52,575000
3,484552	905,724693	344,232	0,306792	22,310000	52,575000
3,469529	893,199469	344,984	0,301506	22,310000	52,575000
3,454527	879,679169	345,736	0,295801	22,310000	52,575000
3,439530	870,289590	346,490	0,291838	22,310000	52,575000
3,424490	856,933594	347,241	0,286202	22,300000	52,520000
3,409555	844,572673	347,991	0,280986	22,300000	52,520000
3,394561	834,830189	348,744	0,276875	22,290000	52,540000
3,379512	821,812056	349,496	0,271381	22,290000	52,540000
3,364560	812,500000	350,247	0,267451	22,290000	52,540000
3,349559	799,606829	350,997	0,262010	22,300000	52,585000
3,334566	787,254008	351,749	0,256797	22,300000	52,585000
3,319568	777,440943	352,501	0,252656	22,300000	52,585000
3,304558	764,695877	353,252	0,247278	22,300000	52,560000
3,289593	755,133896	354,003	0,243243	22,300000	52,560000
3,274505	744,176494	354,754	0,238619	22,300000	52,560000
3,259532	733,046690	355,506	0,233922	22,300000	52,560000
3,244559	720,332864	356,258	0,228557	22,300000	52,560000
3,229568	710,097471	357,010	0,224237	22,300000	52,575000
3,214595	696,615355	357,761	0,218548	22,300000	52,575000
3,199604	685,548032	358,512	0,213877	22,300000	52,575000
3,193564	679,011774	359,144	0,211119	22,310000	52,560000
3,208644	693,244826	359,894	0,217125	22,310000	52,560000
3,223582	703,583198	360,647	0,221488	22,310000	52,560000
3,238667	715,395670	361,400	0,226473	22,310000	52,560000
3,253575	729,173995	362,152	0,232288	22,310000	52,560000
3,268596	741,433094	362,903	0,237461	22,300000	52,575000
3,283582	750,878212	363,656	0,241447	22,300000	52,575000
3,298524	762,369020	364,407	0,246296	22,300000	52,575000
3,313524	773,921153	365,160	0,251171	22,300000	52,535000
3,328603	787,167228	365,912	0,256761	22,300000	52,535000
3,343542	797,012691	366,666	0,260916	22,310000	52,545000
3,358535	808,667802	367,417	0,265834	22,310000	52,545000
3,373590	821,851396	368,168	0,271397	22,310000	52,545000
3,388505	833,827014	368,921	0,276451	22,310000	52,545000
3,403606	843,264033	369,671	0,280434	22,310000	52,545000
3,418504	854,221434	370,421	0,285058	22,310000	52,545000
3,433482	865,790923	371,172	0,289940	22,290000	52,570000
3,448514	876,833947	371,922	0,294600	22,290000	52,570000
3,463517	890,347305	372,674	0,300303	22,300000	52,520000
3,478536	901,618271	373,425	0,305059	22,300000	52,520000
3,493520	912,677494	374,175	0,309726	22,300000	52,520000
3,508528	922,145753	374,927	0,313722	22,310000	52,545000
3,523489	933,439860	375,679	0,318488	22,310000	52,545000
3,538516	944,828847	376,430	0,323294	22,310000	52,545000
3,553545	956,232875	377,181	0,328106	22,300000	52,560000
3,568525	967,260858	377,931	0,332760	22,300000	52,560000
3,583555	980,475692	378,683	0,338337	22,310000	52,560000
3,598477	992,091464	379,434	0,343239	22,310000	52,560000
3,613453	1001,418561	380,186	0,347175	22,310000	52,560000
3,628526	1012,211660	380,937	0,351729	22,310000	52,560000
3,643492	1023,435186	381,687	0,356466	22,310000	52,560000
3,658487	1035,498741	382,438	0,361557	22,310000	52,560000
3,673488	1045,945877	383,189	0,365965	22,310000	52,575000
3,688497	1058,894587	383,941	0,371430	22,310000	52,575000
3,694514	1063,268291	384,692	0,373275	22,300000	52,545000
3,694432	1062,084614	385,442	0,372776	22,300000	52,545000
3,694425	1061,912211	386,192	0,372703	22,300000	52,545000
3,694494	1061,739809	386,943	0,372630	22,300000	52,545000
3,694470	1061,465584	387,694	0,372515	22,300000	52,545000
3,694455	1061,073339	388,446	0,372349	22,300000	52,545000
3,694531	1060,948376	389,198	0,372296	22,310000	52,545000
3,694488	1060,807215	389,950	0,372237	22,310000	52,545000
3,694524	1060,398771	390,701	0,372064	22,310000	52,575000
3,694491	1060,352488	391,453	0,372045	22,310000	52,575000
3,694471	1060,140745	392,204	0,371956	22,310000	52,575000
3,694524	1059,976442	392,956	0,371886	22,290000	52,555000
3,694463	1059,913961	393,709	0,371860	22,290000	52,555000
3,691507	1058,965168	394,460	0,371459	22,290000	52,555000
3,676480	1045,538590	395,210	0,365793	22,310000	52,575000
3,661496	1035,318239	395,961	0,361480	22,310000	52,575000
3,646486	1021,586197	396,713	0,355686	22,310000	52,575000
3,631501	1009,476359	397,463	0,350575	22,310000	52,575000
3,616527	1000,047440	398,213	0,346596	22,310000	52,575000
3,601585	985,962493	398,965	0,340652	22,300000	52,560000
3,586533	976,180669	399,715	0,336524	22,300000	52,560000
3,571495	964,713002	400,467	0,331685	22,300000	52,560000
3,556496	953,442036	401,220	0,326929	22,300000	52,560000
3,541470	941,152853	401,971	0,321743	22,300000	52,560000
3,526541	928,087280	402,723	0,316229	22,300000	52,535000
3,511543	918,336697	403,474	0,312114	22,300000	52,535000
3,496513	907,527399	404,224	0,307553	22,300000	52,535000
3,481520	893,473693	404,977	0,301622	22,300000	52,560000
3,466525	884,029732	405,729	0,297637	22,300000	52,560000
3,451478	870,634395	406,481	0,291984	22,300000	52,560000
3,436503	861,730783	407,233	0,288227	22,310000	52,560000
3,421581	850,435519	407,983	0,283460	22,310000	52,560000
3,406539	836,703477	408,735	0,277665	22,310000	52,560000
3,391553	827,172736	409,487	0,273643	22,310000	52,560000
3,376600	814,333947	410,237	0,268225	22,310000	52,560000
3,361576	805,148012	410,987	0,264349	22,310000	52,535000
3,346577	791,368530	411,738	0,258534	22,310000	52,535000
3,331525	782,198793	412,489	0,254664	22,310000	52,535000
3,316566	769,179502	413,239	0,249170	22,310000	52,535000
3,301589	759,813065	413,989	0,245217	22,310000	52,535000
3,286569	747,374620	414,741	0,239968	22,300000	52,545000
3,271542	737,592797	415,492	0,235840	22,300000	52,545000
3,256552	726,093889	416,245	0,230988	22,300000	52,545000
3,241601	715,207068	416,997	0,226394	22,300000	52,560000
3,226650	701,867271	417,751	0,220764	22,300000	52,560000
3,211514	692,978701	418,502	0,217013	22,300000	52,560000
3,196575	679,136737	419,253	0,211172	22,310000	52,560000
3,181621	669,558557	420,003	0,207130	22,310000	52,560000
3,166640	659,431928	420,753	0,202856	22,300000	52,520000
3,151614	647,832355	421,504	0,197961	22,300000	52,520000
3,136566	637,219759	422,256	0,193483	22,300000	52,520000
3,121617	625,203643	423,008	0,188412	22,310000	52,535000
3,106647	613,070664	423,759	0,183292	22,310000	52,535000
3,091621	600,952727	424,509	0,178178	22,310000	52,535000
3,076625	592,206476	425,259	0,174487	22,300000	52,575000
3,061566	579,210327	426,012	0,169003	22,300000	52,575000
3,046579	570,431678	426,764	0,165298	22,300000	52,575000
3,031651	557,577847	427,516	0,159874	22,300000	52,575000
3,016645	545,962076	428,270	0,154972	22,300000	52,575000
3,001606	536,368854	429,022	0,150924	22,310000	52,575000
2,986719	523,788091	429,774	0,145615	22,310000	52,575000
2,971619	515,424828	430,524	0,142085	22,310000	52,575000
2,956646	502,955143	431,274	0,136823	22,300000	52,545000
2,941616	493,368863	432,026	0,132778	22,300000	52,545000
2,926641	482,646346	432,778	0,128253	22,310000	52,575000
2,911660	471,391578	433,529	0,123503	22,310000	52,575000
2,896621	460,426077	434,280	0,118876	22,310000	52,575000
2,881629	449,759099	435,032	0,114375	22,310000	52,585000
2,866664	438,620039	435,783	0,109674	22,310000	52,585000
2,851670	426,966084	436,533	0,104756	22,310000	52,585000
2,836635	416,713335	437,285	0,100429	22,290000	52,595000
2,821610	405,403029	438,038	0,095656	22,290000	52,595000
2,806607	393,263107	438,789	0,090533	22,300000	52,545000
2,791672	381,505017	439,540	0,085571	22,300000	52,545000
2,776573	373,174152	440,291	0,082056	22,300000	52,545000
2,761627	362,341714	441,041	0,077484	22,300000	52,545000
2,746598	348,907037	441,793	0,071815	22,300000	52,545000
2,731633	340,089048	442,545	0,068094	22,300000	52,545000
2,716595	329,719435	443,297	0,063718	22,300000	52,560000
2,701645	317,633896	444,049	0,058618	22,300000	52,560000
2,686618	305,438435	444,800	0,053471	22,310000	52,545000
2,671635	296,894670	445,552	0,049866	22,310000	52,545000
2,656672	283,734218	446,302	0,044312	22,310000	52,545000
2,641650	275,488975	447,054	0,040833	22,300000	52,575000
2,626646	262,282240	447,805	0,035259	22,300000	52,575000
2,611655	253,644753	448,557	0,031614	22,300000	52,575000
2,596726	243,212659	449,308	0,027212	22,290000	52,540000
2,581647	229,817323	450,060	0,021559	22,290000	52,540000
2,566649	221,320997	450,813	0,017974	22,290000	52,540000
2,551645	208,631470	451,563	0,012619	22,290000	52,540000
2,536654	199,641079	452,314	0,008825	22,290000	52,540000
2,521633	188,550615	453,068	0,004145	22,310000	52,560000
2,506659	176,455819	453,821	-0,000959	22,310000	52,560000
2,491644	165,114272	454,573	-0,005746	22,310000	52,560000
2,476641	156,720925	455,323	-0,009288	22,310000	52,585000
2,461660	143,709734	456,074	-0,014778	22,310000	52,585000
2,446659	135,095388	456,826	-0,018414	22,300000	52,560000
2,431681	125,085623	457,577	-0,022638	22,300000	52,560000
2,416629	112,044348	458,328	-0,028141	22,300000	52,560000
2,401691	102,434927	459,080	-0,032196	22,290000	52,570000
2,386661	91,187102	459,830	-0,036943	22,290000	52,570000
2,371708	82,001166	460,581	-0,040819	22,290000	52,570000
2,356745	72,743493	461,332	-0,044726	22,310000	52,520000
2,341599	62,163294	462,084	-0,049191	22,310000	52,520000
2,326622	49,316406	462,834	-0,054612	22,300000	52,585000
2,311652	40,851322	463,584	-0,058185	22,300000	52,585000
2,296689	28,216177	464,335	-0,063517	22,300000	52,585000
2,281609	20,064657	465,087	-0,066957	22,300000	52,535000
2,266704	9,891745	465,838	-0,071250	22,300000	52,535000
2,251672	-0,336706	466,590	-0,075566	22,300000	52,535000
2,236599	-13,042432	467,341	-0,080928	22,300000	52,535000
2,221650	-21,318915	468,091	-0,084420	22,300000	52,535000
2,206680	-31,853988	468,843	-0,088866	22,310000	52,545000
2,191671	-43,790266	469,594	-0,093903	22,310000	52,545000
2,176608	-52,522632	470,345	-0,097588	22,310000	52,545000
2,161650	-63,002166	471,096	-0,102011	22,290000	52,570000
2,146655	-72,439185	471,848	-0,105993	22,290000	52,570000
2,131609	-85,222434	472,599	-0,111388	22,290000	52,570000
2,116668	-93,428336	473,350	-0,114851	22,290000	52,570000
2,101633	-105,005924	474,101	-0,119736	22,290000	52,570000
2,086616	-113,571673	474,852	-0,123351	22,300000	52,535000
2,071625	-122,570164	475,602	-0,127148	22,300000	52,535000
2,056666	-132,038424	476,353	-0,131144	22,300000	52,535000
2,041688	-141,922069	477,103	-0,135315	22,300000	52,585000
2,026731	-151,986217	477,853	-0,139562	22,300000	52,585000
2,011665	-162,002925	478,603	-0,143789	22,300000	52,585000
1,996708	-172,357496	479,353	-0,148159	22,300000	52,585000
1,981743	-184,474276	480,105	-0,153272	22,300000	52,585000
1,966722	-195,228034	480,855	-0,157810	22,300000	52,545000
1,951634	-203,223350	481,609	-0,161184	22,300000	52,545000
1,936674	-215,175828	482,360	-0,166228	22,300000	52,545000
1,921700	-222,417895	483,112	-0,169284	22,300000	52,545000
1,906683	-232,317739	483,863	-0,173462	22,300000	52,545000
1,891691	-244,396336	484,615	-0,178559	22,300000	52,545000
1,876690	-251,692785	485,366	-0,181638	22,310000	52,600000
1,861689	-261,224683	486,117	-0,185661	22,310000	52,600000
1,846676	-273,513866	486,867	-0,190847	22,310000	52,600000
1,831749	-279,941360	487,619	-0,193559	22,310000	52,600000
1,816714	-291,925078	488,369	-0,198616	22,310000	52,600000
1,801650	-301,848064	489,119	-0,202804	22,300000	52,520000
1,786742	-310,524891	489,871	-0,206465	22,300000	52,520000
1,771671	-320,612180	490,621	-0,210722	22,300000	52,520000
1,756617	-328,371455	491,372	-0,213997	22,300000	52,520000
1,741642	-337,283166	492,124	-0,217757	22,300000	52,520000
1,726665	-349,025057	492,876	-0,222712	22,290000	52,555000
1,711724	-357,583864	493,627	-0,226324	22,290000	52,555000
1,696741	-369,340797	494,378	-0,231286	22,290000	52,555000
1,681747	-379,679169	495,129	-0,235648	22,300000	52,575000
1,666644	-387,814490	495,881	-0,239082	22,300000	52,575000
1,651721	-398,906111	496,631	-0,243762	22,300000	52,575000
1,636677	-405,097564	497,381	-0,246375	22,300000	52,560000
1,621755	-413,728108	498,133	-0,250017	22,300000	52,560000
1,606719	-425,006017	498,883	-0,254776	22,300000	52,560000
1,591732	-432,201801	499,635	-0,257813	22,300000	52,560000
1,576699	-443,558390	500,385	-0,262605	22,300000	52,560000
1,561694	-451,169561	501,137	-0,265817	22,300000	52,575000
1,546671	-461,499833	501,888	-0,270177	22,300000	52,575000
1,531685	-470,498325	502,640	-0,273974	22,300000	52,575000
1,516700	-477,042682	503,391	-0,276736	22,310000	52,545000
1,501695	-485,891912	504,143	-0,280470	22,310000	52,545000
1,486710	-497,374620	504,893	-0,285316	22,300000	52,575000
1,471729	-505,298199	505,645	-0,288660	22,300000	52,575000
1,456731	-511,146003	506,396	-0,291127	22,300000	52,575000
1,441672	-520,049615	507,150	-0,294885	22,300000	52,560000
1,426719	-527,692026	507,902	-0,298110	22,300000	52,560000
1,411754	-538,038498	508,654	-0,302476	22,300000	52,560000
1,396705	-546,456143	509,406	-0,306028	22,290000	52,540000
1,381707	-552,953060	510,158	-0,308770	22,290000	52,540000
1,366711	-560,587372	510,909	-0,311992	22,310000	52,585000
1,351712	-567,586456	511,659	-0,314945	22,310000	52,585000
1,336656	-577,478201	512,410	-0,319120	22,310000	52,585000
1,321694	-587,604830	513,161	-0,323393	22,300000	52,545000
1,306748	-593,452634	513,911	-0,325861	22,300000	52,545000
1,291749	-603,234458	514,662	-0,329989	22,300000	52,545000
1,276695	-609,010525	515,414	-0,332426	22,300000	52,545000
1,261769	-617,585530	516,166	-0,336045	22,300000	52,545000
1,246707	-622,217260	516,918	-0,338000	22,300000	52,585000
1,231714	-629,475526	517,668	-0,341062	22,300000	52,585000
1,216676	-635,660036	518,421	-0,343672	22,300000	52,585000
1,201700	-641,664044	519,172	-0,346206	22,300000	52,585000
1,186678	-647,902936	519,923	-0,348839	22,300000	52,585000
1,171705	-652,926911	520,675	-0,350959	22,300000	52,585000
1,156735	-659,597388	521,427	-0,353774	22,300000	52,585000
1,141657	-665,334114	522,179	-0,356195	22,300000	52,585000
1,126729	-674,222684	522,929	-0,359946	22,300000	52,585000
1,111696	-680,712659	523,681	-0,362685	22,300000	52,585000
1,096717	-686,904112	524,433	-0,365297	22,300000	52,585000
1,081702	-692,382813	525,185	-0,367609	22,300000	52,545000
1,066744	-701,020300	525,937	-0,371254	22,300000	52,545000
1,051764	-701,812889	526,688	-0,371589	22,300000	52,575000
1,036747	-707,424652	527,439	-0,373957	22,300000	52,575000
1,021773	-716,014699	528,189	-0,377582	22,300000	52,575000
1,006723	-718,091630	528,942	-0,378458	22,300000	52,575000
0,991723	-721,485301	529,694	-0,379891	22,300000	52,575000
0,976736	-720,207901	530,446	-0,379352	22,300000	52,575000
0,961697	-723,609671	531,197	-0,380787	22,300000	52,560000
0,946696	-723,649011	531,951	-0,380804	22,300000	52,560000
0,931782	-720,004258	532,702	-0,379266	22,310000	52,575000
0,916769	-718,178410	533,454	-0,378495	22,310000	52,575000
0,901735	-712,597888	534,206	-0,376140	22,310000	52,575000
0,886728	-674,990975	534,959	-0,360270	22,310000	52,560000
0,871716	-0,510265	535,710	-0,075639	22,310000	52,560000
0,856742	-0,259182	536,461	-0,075533	22,310000	52,560000
0,841702	-0,367947	537,212	-0,075579	22,310000	52,585000
0,826728	-0,078680	537,963	-0,075457	22,310000	52,585000
0,811706	-0,109921	538,714	-0,075470	22,310000	52,585000
0,796735	-0,062481	539,464	-0,075450	22,310000	52,585000
0,781722	-0,008099	540,215	-0,075427	22,310000	52,585000
0,766693	-0,141162	540,969	-0,075483	22,290000	52,555000
0,751710	-0,109921	541,719	-0,075470	22,290000	52,555000
0,736730	0,023141	542,471	-0,075414	22,290000	52,555000
0,721700	-0,078680	543,222	-0,075457	22,300000	52,545000
0,706736	0,149261	543,975	-0,075361	22,300000	52,545000
0,691712	0,211743	544,727	-0,075334	22,300000	52,545000
0,682707	0,118021	545,179	-0,075374	22,300000	52,545000