File: Nanoindentation Datenauswertung/data/PDMS/13.09/APM-PDMS-150ms,3um,20nms,9cycles,1,5um offset,5x1
Quasi static measurement routine
Tip parameters (shape,radius, material...)
13.09.2022

Piezo position[nm]	MEMS displ.[nm]	Time[ms]	Cap [pf]	Temp [°C]	Rh [%]
eoh

X-Pos [um]	Y-Pos [um]
0,000108	0,001048

POC
2,148031
0,660061	0,369104	0,843	-0,075959	22,280000	51,585000
0,675119	0,219842	1,594	-0,076022	22,290000	51,530000
0,690064	0,219842	2,345	-0,076022	22,290000	51,530000
0,705099	0,297366	3,098	-0,075990	22,290000	51,530000
0,720135	0,768291	3,851	-0,075791	22,290000	51,570000
0,735067	0,643328	4,603	-0,075844	22,290000	51,570000
0,750119	0,321664	5,355	-0,075979	22,290000	51,570000
0,765113	0,509108	6,107	-0,075900	22,290000	51,570000
0,780077	0,242984	6,858	-0,076013	22,290000	51,570000
0,795099	0,361004	7,611	-0,075963	22,300000	51,550000
0,810100	0,259182	8,363	-0,076006	22,300000	51,550000
0,825110	0,093722	9,116	-0,076076	22,300000	51,550000
0,840135	0,290423	9,869	-0,075993	22,290000	51,555000
0,855100	0,093722	10,621	-0,076076	22,290000	51,555000
0,870051	0,431585	11,371	-0,075933	22,290000	51,555000
0,885163	0,392245	12,122	-0,075950	22,290000	51,555000
0,900125	0,259182	12,874	-0,076006	22,290000	51,555000
0,915054	0,415386	13,627	-0,075940	22,300000	51,575000
0,930061	0,485967	14,377	-0,075910	22,300000	51,575000
0,945035	0,431585	15,128	-0,075933	22,300000	51,575000
0,960136	0,321664	15,879	-0,075979	22,300000	51,550000
0,975084	0,352905	16,629	-0,075966	22,300000	51,550000
0,990122	0,572747	17,380	-0,075874	22,300000	51,550000
1,005117	0,369104	18,132	-0,075959	22,290000	51,545000
1,020072	0,180502	18,884	-0,076039	22,290000	51,545000
1,035097	0,612087	19,634	-0,075857	22,290000	51,570000
1,050093	0,101822	20,384	-0,076072	22,290000	51,570000
1,065057	0,556548	21,137	-0,075880	22,290000	51,570000
1,080092	0,603988	21,889	-0,075860	22,290000	51,530000
1,095083	0,392245	22,641	-0,075950	22,290000	51,530000
1,110143	0,290423	23,391	-0,075993	22,290000	51,530000
1,125113	0,234884	24,142	-0,076016	22,290000	51,585000
1,140067	0,423486	24,894	-0,075937	22,290000	51,585000
1,155118	0,149261	25,644	-0,076052	22,290000	51,585000
1,170104	0,267282	26,395	-0,076002	22,290000	51,585000
1,185119	0,361004	27,146	-0,075963	22,290000	51,585000
1,200054	0,093722	27,898	-0,076076	22,290000	51,555000
1,215094	0,485967	28,650	-0,075910	22,290000	51,555000
1,230135	0,290423	29,400	-0,075993	22,290000	51,555000
1,245086	0,227942	30,151	-0,076019	22,290000	51,570000
1,260124	0,251083	30,903	-0,076009	22,290000	51,570000
1,275129	0,124963	31,654	-0,076063	22,300000	51,550000
1,290159	0,234884	32,407	-0,076016	22,300000	51,550000
1,305118	0,336706	33,161	-0,075973	22,300000	51,550000
1,320124	0,219842	33,912	-0,076022	22,290000	51,595000
1,335126	0,031241	34,663	-0,076102	22,290000	51,595000
1,350066	0,305465	35,414	-0,075986	22,290000	51,595000
1,365066	0,462826	36,165	-0,075920	22,290000	51,545000
1,380121	0,157361	36,916	-0,076049	22,290000	51,545000
1,395038	0,101822	37,668	-0,076072	22,290000	51,555000
1,410052	0,259182	38,419	-0,076006	22,290000	51,555000
1,425089	0,336706	39,170	-0,075973	22,290000	51,555000
1,440059	0,078680	39,922	-0,076082	22,290000	51,585000
1,455102	0,157361	40,673	-0,076049	22,290000	51,585000
1,470079	0,234884	41,426	-0,076016	22,290000	51,585000
1,485080	0,118021	42,176	-0,076065	22,280000	51,545000
1,500126	0,086780	42,929	-0,076079	22,280000	51,545000
1,515088	0,118021	43,681	-0,076065	22,290000	51,555000
1,530084	-0,008099	44,432	-0,076119	22,290000	51,555000
1,545099	0,039340	45,184	-0,076099	22,290000	51,555000
1,560068	0,172403	45,935	-0,076042	22,290000	51,545000
1,575105	-0,039340	46,687	-0,076132	22,290000	51,545000
1,590067	0,078680	47,439	-0,076082	22,290000	51,545000
1,605069	-0,085623	48,191	-0,076151	22,290000	51,545000
1,620120	0,024298	48,943	-0,076105	22,290000	51,545000
1,635046	0,063639	49,695	-0,076088	22,280000	51,585000
1,650041	-0,062481	50,445	-0,076142	22,280000	51,585000
1,665070	-0,054382	51,197	-0,076138	22,280000	51,585000
1,680098	0,070581	51,949	-0,076085	22,290000	51,555000
1,695087	0,157361	52,701	-0,076049	22,290000	51,555000
1,710053	-0,148104	53,453	-0,076178	22,290000	51,555000
1,725058	-0,046283	54,203	-0,076135	22,290000	51,555000
1,740027	0,008099	54,956	-0,076112	22,290000	51,555000
1,755079	0,124963	55,707	-0,076063	22,290000	51,545000
1,770032	0,000000	56,459	-0,076115	22,290000	51,545000
1,785081	-0,242984	57,211	-0,076218	22,290000	51,545000
1,800054	-0,164303	57,964	-0,076185	22,290000	51,570000
1,815074	-0,141162	58,715	-0,076175	22,290000	51,570000
1,830041	-0,093722	59,466	-0,076155	22,290000	51,570000
1,845025	-0,187444	60,218	-0,076194	22,290000	51,570000
1,860052	-0,274224	60,971	-0,076231	22,290000	51,570000
1,875039	-153,514699	61,721	-0,140898	22,290000	51,570000
1,890060	-158,005267	62,472	-0,142793	22,290000	51,570000
1,905006	-152,346064	63,223	-0,140405	22,290000	51,570000
1,920050	-146,734301	63,974	-0,138037	22,290000	51,570000
1,935033	-136,780074	64,726	-0,133836	22,290000	51,570000
1,950046	-130,023974	65,476	-0,130985	22,290000	51,570000
1,965105	-120,100989	66,227	-0,126798	22,290000	51,555000
1,980075	-109,606413	66,977	-0,122369	22,290000	51,555000
1,995054	-102,543691	67,731	-0,119389	22,290000	51,545000
2,010002	-91,476368	68,483	-0,114718	22,290000	51,545000
2,024989	-84,061898	69,234	-0,111589	22,290000	51,545000
2,040046	-73,652945	69,985	-0,107197	22,290000	51,545000
2,055025	-64,678753	70,737	-0,103410	22,290000	51,545000
2,070022	-54,755767	71,489	-0,099222	22,290000	51,545000
2,085015	-43,030074	72,240	-0,094274	22,290000	51,570000
2,100040	-35,113439	72,991	-0,090933	22,290000	51,570000
2,115044	-24,932427	73,742	-0,086637	22,290000	51,555000
2,129974	-12,924411	74,494	-0,081569	22,290000	51,555000
2,144967	-5,173236	75,245	-0,078298	22,290000	51,555000
2,160005	6,662378	75,995	-0,073304	22,290000	51,555000
2,175025	17,063231	76,747	-0,068915	22,290000	51,555000
2,190042	24,776224	77,497	-0,065660	22,290000	51,555000
2,205026	37,230867	78,250	-0,060404	22,290000	51,595000
2,220027	44,605996	79,003	-0,057292	22,290000	51,595000
2,235064	56,136145	79,756	-0,052426	22,290000	51,570000
2,250040	64,639412	80,506	-0,048837	22,290000	51,570000
2,265006	76,498167	81,257	-0,043833	22,290000	51,570000
2,280009	84,854488	82,009	-0,040307	22,290000	51,570000
2,295039	95,145420	82,759	-0,035964	22,290000	51,570000
2,310024	107,137237	83,512	-0,030903	22,290000	51,570000
2,316005	110,484625	84,264	-0,029491	22,290000	51,570000
2,315975	109,363429	85,014	-0,029964	22,290000	51,570000
2,316003	108,595138	85,765	-0,030288	22,290000	51,545000
2,315990	108,109171	86,516	-0,030493	22,290000	51,545000
2,316047	107,552623	87,268	-0,030728	22,290000	51,545000
2,315977	107,090955	88,019	-0,030923	22,290000	51,545000
2,316071	106,611930	88,770	-0,031125	22,290000	51,545000
2,315994	106,432585	89,523	-0,031201	22,290000	51,530000
2,316073	105,907277	90,274	-0,031422	22,290000	51,530000
2,316018	105,679336	91,025	-0,031519	22,290000	51,530000
2,315983	105,334531	91,775	-0,031664	22,290000	51,545000
2,316021	105,083447	92,526	-0,031770	22,290000	51,545000
2,316019	104,661119	93,279	-0,031948	22,290000	51,545000
2,313036	103,539923	94,031	-0,032421	22,290000	51,555000
2,297981	90,520633	94,783	-0,037916	22,290000	51,555000
2,283076	80,997991	95,535	-0,041934	22,290000	51,555000
2,277062	72,086280	96,187	-0,045695	22,290000	51,555000
2,292121	84,179919	96,939	-0,040591	22,290000	51,555000
2,307055	95,365262	97,691	-0,035871	22,290000	51,545000
2,322060	106,815573	98,444	-0,031039	22,290000	51,545000
2,337053	117,600572	99,194	-0,026488	22,290000	51,545000
2,352032	129,687269	99,945	-0,021387	22,290000	51,585000
2,367037	141,326181	100,696	-0,016476	22,290000	51,585000
2,381982	149,869946	101,448	-0,012870	22,290000	51,585000
2,397035	160,717426	102,200	-0,008292	22,290000	51,555000
2,412026	171,753508	102,951	-0,003635	22,290000	51,555000
2,427024	181,927577	103,703	0,000658	22,290000	51,530000
2,442050	191,803123	104,453	0,004826	22,290000	51,530000
2,457038	203,904862	105,203	0,009933	22,290000	51,530000
2,471986	214,211993	105,953	0,014282	22,290000	51,530000
2,484041	223,343546	106,704	0,018136	22,290000	51,530000
2,484019	222,324172	107,455	0,017706	22,290000	51,530000
2,484000	221,344139	108,207	0,017292	22,290000	51,555000
2,484029	220,639486	108,960	0,016995	22,290000	51,555000
2,484000	220,145420	109,711	0,016786	22,290000	51,545000
2,484043	219,620113	110,463	0,016564	22,290000	51,545000
2,484031	219,032324	111,213	0,016316	22,290000	51,545000
2,484013	218,679419	111,964	0,016167	22,290000	51,545000
2,484032	218,569498	112,715	0,016121	22,290000	51,545000
2,484029	218,147169	113,465	0,015943	22,290000	51,545000
2,484025	217,832448	114,217	0,015810	22,290000	51,555000
2,484025	217,676244	114,968	0,015744	22,290000	51,555000
2,484079	217,551281	115,719	0,015691	22,290000	51,545000
2,484016	216,924152	116,469	0,015427	22,290000	51,545000
2,471920	209,125537	117,221	0,012136	22,290000	51,545000
2,457040	195,479117	117,971	0,006377	22,290000	51,545000
2,442058	186,386904	118,722	0,002540	22,290000	51,545000
2,427023	173,258849	119,473	-0,003000	22,290000	51,545000
2,411988	164,017374	120,224	-0,006900	22,290000	51,595000
2,400090	152,707068	120,976	-0,011673	22,290000	51,595000
2,415023	162,175328	121,606	-0,007677	22,290000	51,570000
2,430037	173,987800	122,359	-0,002692	22,290000	51,570000
2,445037	187,696701	123,111	0,003093	22,290000	51,570000
2,460041	196,677836	123,861	0,006883	22,290000	51,570000
2,474999	209,078097	124,613	0,012116	22,290000	51,570000
2,490007	218,710660	125,363	0,016181	22,290000	51,570000
2,504983	230,193369	126,114	0,021026	22,290000	51,555000
2,520002	240,805965	126,865	0,025505	22,290000	51,555000
2,534978	251,544681	127,615	0,030037	22,290000	51,570000
2,550050	264,280491	128,366	0,035411	22,290000	51,570000
2,565002	273,067239	129,117	0,039119	22,290000	51,570000
2,580063	283,812898	129,869	0,043654	22,290000	51,570000
2,594991	296,636645	130,621	0,049065	22,290000	51,570000
2,610018	307,131220	131,374	0,053494	22,290000	51,570000
2,625041	315,619446	132,124	0,057076	22,290000	51,570000
2,640019	326,475026	132,876	0,061657	22,290000	51,570000
2,651975	336,562315	133,626	0,065914	22,290000	51,570000
2,651997	335,622778	134,376	0,065518	22,290000	51,570000
2,652029	335,018791	135,126	0,065263	22,290000	51,570000
2,651976	334,171819	135,879	0,064905	22,290000	51,595000
2,652021	333,733292	136,631	0,064720	22,290000	51,595000
2,651992	333,334105	137,382	0,064552	22,290000	51,595000
2,652003	333,106163	138,132	0,064456	22,300000	51,560000
2,652016	333,035582	138,884	0,064426	22,300000	51,560000
2,652002	332,337872	139,637	0,064131	22,290000	51,505000
2,651999	331,805622	140,389	0,063907	22,290000	51,505000
2,652018	331,789424	141,142	0,063900	22,290000	51,505000
2,651984	331,633220	141,894	0,063834	22,290000	51,570000
2,651971	331,170394	142,646	0,063639	22,290000	51,570000
2,652039	331,413378	143,396	0,063741	22,290000	51,570000
2,639981	323,904028	144,147	0,060572	22,290000	51,570000
2,624966	311,238800	144,901	0,055228	22,290000	51,570000
2,610051	298,265792	145,652	0,049753	22,290000	51,530000
2,594978	288,853071	146,404	0,045781	22,290000	51,530000
2,580016	275,011108	147,154	0,039939	22,290000	51,530000
2,564993	266,114438	147,905	0,036185	22,290000	51,585000
2,550062	253,112504	148,657	0,030698	22,290000	51,585000
2,535019	241,025807	149,410	0,025598	22,290000	51,585000
2,529016	234,739475	150,045	0,022945	22,290000	51,570000
2,544045	247,335280	150,796	0,028260	22,290000	51,570000
2,559029	258,763607	151,547	0,033083	22,290000	51,555000
2,574010	271,538757	152,299	0,038474	22,290000	51,555000
2,589032	284,361347	153,049	0,043885	22,290000	51,555000
2,604004	293,414220	153,801	0,047706	22,290000	51,545000
2,619011	304,410962	154,551	0,052346	22,290000	51,545000
2,633981	318,080522	155,303	0,058115	22,290000	51,545000
2,648988	329,625713	156,055	0,062987	22,290000	51,585000
2,663973	338,185676	156,805	0,066599	22,290000	51,585000
2,679092	349,338622	157,556	0,071306	22,290000	51,585000
2,693948	360,186102	158,307	0,075883	22,290000	51,585000
2,709009	371,253425	159,059	0,080554	22,290000	51,585000
2,723997	383,543765	159,810	0,085740	22,290000	51,570000
2,739002	395,065814	160,561	0,090603	22,290000	51,570000
2,753992	404,941360	161,312	0,094770	22,290000	51,570000
2,769004	414,362180	162,062	0,098746	22,280000	51,545000
2,784008	425,179576	162,813	0,103311	22,280000	51,545000
2,799004	438,346971	163,563	0,108867	22,280000	51,545000
2,813948	448,928327	164,314	0,113333	22,280000	51,545000
2,819986	452,440018	165,066	0,114814	22,280000	51,545000
2,819959	451,742308	165,817	0,114520	22,300000	51,535000
2,819959	450,942776	166,569	0,114183	22,300000	51,535000
2,819950	450,566730	167,319	0,114024	22,300000	51,535000
2,819990	450,268208	168,071	0,113898	22,290000	51,585000
2,820033	449,767199	168,821	0,113687	22,290000	51,585000
2,819987	449,335614	169,573	0,113504	22,290000	51,585000
2,819965	448,974609	170,324	0,113352	22,290000	51,585000
2,820029	448,583522	171,077	0,113187	22,290000	51,585000
2,819954	448,363679	171,828	0,113094	22,290000	51,545000
2,819917	448,278057	172,579	0,113058	22,290000	51,545000
2,819963	448,058214	173,329	0,112965	22,290000	51,545000
2,819959	448,002675	174,081	0,112942	22,290000	51,545000
2,816964	447,846471	174,833	0,112876	22,290000	51,545000
2,802023	435,971518	175,584	0,107865	22,290000	51,530000
2,787002	421,824089	176,335	0,101895	22,290000	51,530000
2,772006	411,917302	177,085	0,097714	22,290000	51,530000
2,757018	398,412045	177,836	0,092015	22,290000	51,555000
2,741976	386,906194	178,588	0,087159	22,290000	51,555000
2,726964	375,227942	179,340	0,082231	22,290000	51,555000
2,711981	366,777899	180,092	0,078665	22,290000	51,570000
2,696974	354,950385	180,843	0,073674	22,290000	51,570000
2,681992	343,789340	181,593	0,068964	22,300000	51,575000
2,666942	332,628295	182,344	0,064254	22,300000	51,575000
2,652002	320,150511	183,094	0,058988	22,300000	51,575000
2,664012	329,195285	183,731	0,062805	22,290000	51,555000
2,679017	339,368196	184,482	0,067098	22,290000	51,555000
2,694012	353,053956	185,233	0,072874	22,290000	51,555000
2,708986	362,569655	185,983	0,076889	22,300000	51,560000
2,724006	374,835697	186,734	0,082065	22,300000	51,560000
2,738982	388,104913	187,487	0,087665	22,300000	51,560000
2,753945	397,032824	188,237	0,091433	22,290000	51,545000
2,768999	410,349480	188,989	0,097052	22,290000	51,545000
2,783966	419,386154	189,740	0,100866	22,290000	51,545000
2,799069	432,875213	190,490	0,106558	22,290000	51,545000
2,814007	444,350979	191,242	0,111401	22,290000	51,545000
2,829041	454,367687	191,994	0,115628	22,290000	51,570000
2,843977	464,149511	192,745	0,119756	22,290000	51,570000
2,858986	475,607922	193,496	0,124591	22,290000	51,570000
2,873985	488,799615	194,246	0,130158	22,290000	51,570000
2,888970	499,819498	194,996	0,134809	22,290000	51,570000
2,903945	509,428919	195,746	0,138864	22,290000	51,545000
2,918972	521,617437	196,499	0,144007	22,290000	51,545000
2,933938	530,497908	197,250	0,147755	22,290000	51,545000
2,948961	541,424069	198,003	0,152366	22,290000	51,585000
2,963913	554,520883	198,755	0,157893	22,290000	51,585000
2,978950	563,072747	199,506	0,161501	22,290000	51,585000
2,987981	571,717176	200,257	0,165149	22,280000	51,570000
2,987963	570,792682	201,011	0,164759	22,280000	51,570000
2,987967	570,393495	201,762	0,164591	22,280000	51,570000
2,987950	569,679586	202,513	0,164290	22,280000	51,570000
2,987965	569,170477	203,263	0,164075	22,280000	51,570000
2,987982	569,068656	204,013	0,164032	22,290000	51,545000
2,987964	568,590788	204,764	0,163830	22,290000	51,545000
2,987999	568,692610	205,516	0,163873	22,290000	51,545000
2,987988	568,198543	206,268	0,163665	22,290000	51,545000
2,987979	568,252925	207,021	0,163688	22,290000	51,545000
2,988011	567,799356	207,771	0,163496	22,290000	51,570000
2,987940	567,830596	208,523	0,163509	22,290000	51,570000
2,987935	567,650094	209,273	0,163433	22,290000	51,570000
2,988021	567,211567	210,024	0,163248	22,290000	51,555000
2,973072	557,530408	210,775	0,159163	22,290000	51,555000
2,957981	543,195535	211,526	0,153113	22,290000	51,570000
2,942876	531,720925	212,277	0,148271	22,290000	51,570000
2,927918	522,032824	213,030	0,144183	22,290000	51,570000
2,913026	510,041006	213,782	0,139122	22,290000	51,570000
2,897987	496,911795	214,534	0,133582	22,290000	51,570000
2,882999	487,678419	215,286	0,129685	22,290000	51,570000
2,867947	476,118187	216,037	0,124807	22,290000	51,555000
2,853034	463,530482	216,791	0,119495	22,290000	51,555000
2,838000	453,395753	217,543	0,115218	22,290000	51,555000
2,822959	439,420727	218,295	0,109320	22,290000	51,555000
2,807964	429,317239	219,045	0,105057	22,290000	51,555000
2,793029	416,854497	219,796	0,099797	22,290000	51,555000
2,778000	407,950885	220,547	0,096040	22,290000	51,555000
2,789997	416,243567	221,183	0,099540	22,290000	51,555000
2,804987	427,020466	221,934	0,104087	22,300000	51,560000
2,819968	437,257016	222,686	0,108407	22,300000	51,560000
2,835044	451,765449	223,436	0,114530	22,300000	51,560000
2,849974	461,108746	224,187	0,118473	22,290000	51,555000
2,864936	472,457235	224,939	0,123262	22,290000	51,555000
2,880031	485,523965	225,691	0,128776	22,280000	51,530000
2,894949	497,523882	226,444	0,133840	22,280000	51,530000
2,909957	506,795440	227,198	0,137752	22,280000	51,530000
2,924939	520,198876	227,949	0,143409	22,290000	51,570000
2,939977	532,026390	228,700	0,148400	22,290000	51,570000
2,954960	540,757600	229,451	0,152084	22,290000	51,570000
2,969987	554,262857	230,201	0,157784	22,290000	51,585000
2,984989	565,478284	230,953	0,162517	22,290000	51,585000
2,999978	574,398095	231,705	0,166281	22,290000	51,585000
3,014985	585,606580	232,456	0,171011	22,290000	51,585000
3,029981	598,672153	233,208	0,176524	22,290000	51,585000
3,044959	607,795607	233,959	0,180375	22,290000	51,585000
3,059969	619,427577	234,712	0,185283	22,290000	51,585000
3,074824	631,113929	235,463	0,190215	22,290000	51,585000
3,089983	643,756017	236,215	0,195550	22,290000	51,595000
3,104976	652,299782	236,965	0,199155	22,290000	51,595000
3,119917	665,647678	237,716	0,204788	22,290000	51,545000
3,134989	674,308307	238,467	0,208443	22,290000	51,545000
3,149933	687,045274	239,218	0,213818	22,290000	51,545000
3,155962	691,740642	239,969	0,215799	22,290000	51,545000
3,156016	690,714325	240,720	0,215366	22,290000	51,545000
3,155940	690,165877	241,471	0,215135	22,290000	51,545000
3,155953	689,780574	242,224	0,214972	22,290000	51,555000
3,155985	689,468167	242,975	0,214840	22,290000	51,555000
3,155963	689,115262	243,727	0,214691	22,290000	51,545000
3,155843	688,934760	244,481	0,214615	22,290000	51,545000
3,155975	688,777399	245,233	0,214549	22,290000	51,545000
3,155972	688,079689	245,984	0,214254	22,290000	51,610000
3,155960	688,127129	246,736	0,214274	22,290000	51,610000
3,155939	687,790423	247,487	0,214132	22,290000	51,610000
3,155946	687,524298	248,240	0,214020	22,290000	51,570000
3,155966	687,202634	248,991	0,213884	22,290000	51,570000
3,153037	687,030232	249,742	0,213812	22,300000	51,575000
3,137973	674,386987	250,494	0,208476	22,300000	51,575000
3,122908	663,014199	251,246	0,203677	22,300000	51,575000
3,107963	651,163544	251,998	0,198676	22,300000	51,575000
3,092995	639,743317	252,749	0,193856	22,300000	51,575000
3,077999	627,562898	253,500	0,188716	22,300000	51,575000
3,062989	615,336197	254,254	0,183557	22,290000	51,585000
3,047957	604,989725	255,004	0,179190	22,290000	51,585000
3,033008	591,767948	255,755	0,173611	22,290000	51,555000
3,017895	579,563231	256,506	0,168460	22,290000	51,555000
3,002961	570,502259	257,257	0,164637	22,290000	51,555000
2,987958	558,988309	258,010	0,159778	22,280000	51,595000
2,972991	547,929086	258,762	0,155111	22,280000	51,595000
2,958025	536,556298	259,514	0,150312	22,280000	51,595000
2,942927	522,674994	260,264	0,144454	22,280000	51,555000
2,927997	513,646420	261,015	0,140644	22,280000	51,555000
2,912960	500,344805	261,766	0,135030	22,290000	51,585000
2,906960	496,520707	262,399	0,133417	22,290000	51,585000
2,921972	507,069665	263,151	0,137868	22,290000	51,585000
2,937001	518,333688	263,903	0,142622	22,290000	51,555000
2,951974	530,325505	264,654	0,147682	22,290000	51,555000
2,966987	544,661535	265,405	0,153732	22,290000	51,555000
2,981946	555,932501	266,156	0,158488	22,290000	51,555000
2,996952	565,831189	266,908	0,162666	22,290000	51,555000
3,011942	576,702968	267,659	0,167253	22,290000	51,555000
3,026995	588,553623	268,411	0,172254	22,290000	51,555000
3,041968	599,691527	269,163	0,176955	22,290000	51,555000
3,056991	613,549689	269,914	0,182803	22,290000	51,570000
3,072010	622,334123	270,665	0,186510	22,290000	51,570000
3,086916	636,262867	271,416	0,192388	22,290000	51,570000
3,101996	646,563055	272,166	0,196734	22,290000	51,585000
3,117036	658,860338	272,918	0,201924	22,290000	51,585000
3,131980	667,826431	273,669	0,205708	22,290000	51,585000
3,146972	680,657120	274,421	0,211122	22,290000	51,585000
3,162008	690,235301	275,174	0,215164	22,290000	51,585000
3,176978	701,734208	275,924	0,220017	22,290000	51,585000
3,191965	713,255100	276,675	0,224878	22,290000	51,585000
3,206987	723,985717	277,425	0,229407	22,290000	51,585000
3,221978	736,895087	278,176	0,234854	22,290000	51,570000
3,236977	748,722601	278,928	0,239846	22,290000	51,570000
3,251914	759,680002	279,680	0,244470	22,290000	51,595000
3,266964	771,100230	280,431	0,249289	22,290000	51,595000
3,281933	780,647169	281,182	0,253318	22,290000	51,595000
3,296961	790,514616	281,932	0,257482	22,290000	51,555000
3,311933	804,419061	282,684	0,263350	22,290000	51,555000
3,323893	812,711743	283,436	0,266849	22,290000	51,555000
3,323933	811,982792	284,189	0,266542	22,290000	51,570000
3,323941	811,245742	284,940	0,266230	22,290000	51,570000
3,323941	810,815314	285,692	0,266049	22,290000	51,570000
3,323944	810,767874	286,443	0,266029	22,290000	51,570000
3,323961	810,015782	287,193	0,265711	22,290000	51,570000
3,323922	809,780898	287,944	0,265612	22,290000	51,555000
3,323926	809,451135	288,694	0,265473	22,290000	51,555000
3,323906	809,411795	289,445	0,265457	22,290000	51,555000
3,323960	809,185010	290,196	0,265361	22,290000	51,555000
3,323944	808,910786	290,947	0,265245	22,290000	51,555000
3,323909	808,447960	291,699	0,265050	22,280000	51,555000
3,323919	808,479201	292,451	0,265063	22,280000	51,555000
3,323875	808,157537	293,202	0,264927	22,280000	51,555000
3,311967	800,257100	293,953	0,261593	22,290000	51,555000
3,296917	788,892412	294,704	0,256797	22,290000	51,555000
3,281925	774,784323	295,455	0,250844	22,290000	51,555000
3,266925	763,191693	296,205	0,245952	22,290000	51,570000
3,251933	751,324839	296,956	0,240944	22,290000	51,570000
3,236975	740,751583	297,709	0,236482	22,290000	51,570000
3,221962	730,726775	298,459	0,232251	22,290000	51,570000
3,206959	718,209651	299,211	0,226969	22,290000	51,570000
3,191907	705,277140	299,963	0,221512	22,290000	51,555000
3,177026	696,137487	300,715	0,217655	22,290000	51,555000
3,161916	684,639736	301,465	0,212803	22,290000	51,555000
3,146974	673,204467	302,215	0,207977	22,290000	51,585000
3,131964	660,646845	302,967	0,202678	22,290000	51,585000
3,116970	650,465834	303,718	0,198381	22,290000	51,555000
3,101944	638,850063	304,469	0,193479	22,290000	51,555000
3,086956	625,462826	305,219	0,187830	22,290000	51,555000
3,071989	616,339372	305,970	0,183980	22,290000	51,555000
3,057014	603,477442	306,722	0,178552	22,290000	51,555000
3,041978	591,351405	307,472	0,173435	22,290000	51,555000
3,029986	582,612096	308,224	0,169747	22,280000	51,570000
3,045005	593,382053	308,863	0,174292	22,280000	51,570000
3,059953	605,232709	309,616	0,179293	22,290000	51,595000
3,074994	617,201385	310,367	0,184344	22,290000	51,595000
3,089908	629,170061	311,120	0,189395	22,290000	51,595000
3,104963	643,105746	311,872	0,195275	22,290000	51,595000
3,119986	651,978118	312,624	0,199020	22,290000	51,595000
3,134947	663,829930	313,376	0,204021	22,290000	51,595000
3,149915	675,351979	314,129	0,208883	22,290000	51,555000
3,164971	687,751083	314,879	0,214116	22,290000	51,555000
3,179912	700,597971	315,630	0,219537	22,300000	51,575000
3,194922	710,519800	316,381	0,223724	22,300000	51,575000
3,209970	723,790173	317,131	0,229324	22,300000	51,575000
3,224894	735,445285	317,883	0,234243	22,300000	51,575000
3,239972	744,960984	318,634	0,238258	22,300000	51,575000
3,254884	755,196377	319,384	0,242578	22,300000	51,575000
3,269944	766,757766	320,135	0,247457	22,300000	51,535000
3,284952	780,591630	320,887	0,253294	22,300000	51,535000
3,299885	789,096055	321,640	0,256883	22,290000	51,570000
3,314901	802,608255	322,391	0,262585	22,290000	51,570000
3,329920	811,591704	323,143	0,266376	22,290000	51,570000
3,344857	824,296273	323,894	0,271738	22,290000	51,570000
3,359895	836,578514	324,646	0,276921	22,290000	51,570000
3,374922	845,419644	325,397	0,280652	22,290000	51,570000
3,389878	858,532657	326,149	0,286186	22,300000	51,590000
3,404872	869,967926	326,901	0,291011	22,300000	51,590000
3,419906	879,161961	327,654	0,294891	22,290000	51,585000
3,434863	891,703384	328,405	0,300184	22,290000	51,585000
3,449902	903,209234	329,156	0,305039	22,290000	51,585000
3,464926	912,238966	329,908	0,308850	22,290000	51,570000
3,479836	922,976525	330,660	0,313381	22,290000	51,570000
3,491871	934,278732	331,411	0,318150	22,290000	51,570000
3,491801	933,464159	332,162	0,317807	22,290000	51,570000
3,491886	932,938851	332,914	0,317585	22,290000	51,570000
3,491870	932,429743	333,664	0,317370	22,290000	51,545000
3,491890	932,233042	334,415	0,317287	22,290000	51,545000
3,491831	932,014357	335,167	0,317195	22,290000	51,545000
3,491835	931,495992	335,919	0,316976	22,290000	51,585000
3,491872	931,261108	336,671	0,316877	22,290000	51,585000
3,491885	930,853821	337,422	0,316705	22,290000	51,585000
3,491800	930,704560	338,173	0,316642	22,290000	51,585000
3,491827	930,414137	338,923	0,316520	22,290000	51,585000
3,491877	929,929326	339,675	0,316315	22,290000	51,585000
3,491843	929,967510	340,427	0,316331	22,290000	51,585000
3,491948	929,967510	341,178	0,316331	22,290000	51,585000
3,479887	922,513700	341,930	0,313186	22,290000	51,555000
3,464852	907,817822	342,681	0,306984	22,290000	51,555000
3,449916	896,343213	343,431	0,302142	22,290000	51,555000
3,434885	885,745659	344,181	0,297669	22,290000	51,555000
3,419861	874,914377	344,933	0,293099	22,290000	51,555000
3,404915	863,236124	345,685	0,288170	22,290000	51,555000
3,389864	850,098813	346,436	0,282626	22,290000	51,555000
3,374859	839,925902	347,186	0,278333	22,290000	51,555000
3,359938	826,952894	347,936	0,272859	22,290000	51,585000
3,344869	817,132887	348,686	0,268715	22,290000	51,585000
3,329891	804,960567	349,439	0,263578	22,290000	51,585000
3,314915	791,361587	350,190	0,257839	22,290000	51,585000
3,299902	782,849063	350,942	0,254247	22,290000	51,585000
3,284890	770,990308	351,694	0,249243	22,290000	51,585000
3,269910	757,210826	352,446	0,243428	22,290000	51,585000
3,254880	747,954310	353,197	0,239521	22,290000	51,585000
3,239962	736,949469	353,947	0,234877	22,290000	51,610000
3,224976	723,390986	354,699	0,229156	22,290000	51,610000
3,209870	713,960910	355,453	0,225176	22,290000	51,610000
3,194966	703,019707	356,206	0,220559	22,280000	51,570000
3,179931	691,144753	356,956	0,215548	22,280000	51,570000
3,164984	678,322164	357,708	0,210137	22,280000	51,570000
3,158944	672,929086	358,373	0,207861	22,280000	51,570000
3,173951	684,804040	359,124	0,212872	22,280000	51,570000
3,189007	697,030741	359,875	0,218032	22,290000	51,610000
3,203930	710,872704	360,626	0,223873	22,290000	51,610000
3,218961	723,179243	361,379	0,229066	22,290000	51,610000
3,233924	732,944868	362,131	0,233187	22,290000	51,610000
3,248958	746,300865	362,881	0,238824	22,290000	51,610000
3,263923	756,685519	363,631	0,243206	22,290000	51,585000
3,278881	767,298115	364,381	0,247685	22,290000	51,585000
3,293965	779,322330	365,133	0,252759	22,290000	51,585000
3,308894	792,560306	365,883	0,258345	22,290000	51,585000
3,323932	801,738142	366,634	0,262218	22,290000	51,585000
3,338937	813,072747	367,385	0,267001	22,290000	51,585000
3,353849	827,110254	368,138	0,272925	22,300000	51,550000
3,368935	835,982626	368,890	0,276669	22,300000	51,550000
3,383995	847,176068	369,641	0,281393	22,290000	51,595000
3,398870	859,010525	370,391	0,286387	22,290000	51,595000
3,413883	872,343380	371,142	0,292014	22,290000	51,595000
3,428908	881,271290	371,893	0,295781	22,290000	51,555000
3,443846	892,635978	372,643	0,300577	22,290000	51,555000
3,458867	906,407361	373,394	0,306389	22,290000	51,555000
3,473896	916,196127	374,146	0,310520	22,290000	51,555000
3,488934	929,294098	374,897	0,316047	22,290000	51,555000
3,503858	938,048449	375,651	0,319741	22,290000	51,555000
3,518902	949,155111	376,405	0,324428	22,290000	51,555000
3,533823	962,785332	377,156	0,330180	22,290000	51,555000
3,548936	974,111837	377,909	0,334960	22,290000	51,585000
3,563893	984,018624	378,662	0,339141	22,290000	51,585000
3,578860	994,020290	379,412	0,343361	22,290000	51,585000
3,593861	1005,353738	380,164	0,348144	22,300000	51,575000
3,608857	1016,256757	380,915	0,352745	22,300000	51,575000
3,623835	1027,550865	381,665	0,357511	22,290000	51,555000
3,638852	1038,657527	382,415	0,362198	22,290000	51,555000
3,653869	1049,724850	383,168	0,366869	22,290000	51,555000
3,659838	1056,182427	383,919	0,369594	22,300000	51,575000
3,659830	1055,760099	384,669	0,369416	22,300000	51,575000
3,659806	1055,116771	385,421	0,369144	22,300000	51,575000
3,659821	1054,528982	386,171	0,368896	22,290000	51,570000
3,659867	1054,474600	386,921	0,368873	22,290000	51,570000
3,659851	1054,380878	387,672	0,368833	22,290000	51,570000
3,659883	1053,729451	388,423	0,368559	22,290000	51,570000
3,659923	1053,440184	389,175	0,368437	22,290000	51,570000
3,659832	1053,204143	389,926	0,368337	22,290000	51,570000
3,659788	1052,992400	390,677	0,368248	22,290000	51,570000
3,659874	1052,765616	391,430	0,368152	22,290000	51,570000
3,659853	1052,570072	392,181	0,368069	22,280000	51,515000
3,659869	1052,570072	392,933	0,368069	22,280000	51,515000
3,656818	1049,677410	393,683	0,366849	22,280000	51,515000
3,641807	1039,527640	394,434	0,362565	22,280000	51,515000
3,626845	1025,731959	395,186	0,356744	22,280000	51,515000
3,611813	1013,818822	395,937	0,351716	22,290000	51,570000
3,596875	1003,802114	396,689	0,347489	22,290000	51,570000
3,581876	992,562389	397,441	0,342746	22,290000	51,570000
3,566855	981,063481	398,191	0,337894	22,290000	51,585000
3,551874	968,382053	398,945	0,332542	22,290000	51,585000
3,536921	957,863179	399,696	0,328103	22,290000	51,595000
3,521919	944,256100	400,447	0,322361	22,290000	51,595000
3,506850	932,021299	401,201	0,317198	22,290000	51,595000
3,491825	922,772882	401,951	0,313295	22,290000	51,595000
3,476853	908,625454	402,702	0,307325	22,290000	51,595000
3,461856	899,689444	403,453	0,303554	22,290000	51,595000
3,446882	886,208485	404,204	0,297865	22,280000	51,555000
3,431977	874,576514	404,956	0,292956	22,280000	51,555000
3,416850	865,022632	405,707	0,288924	22,290000	51,595000
3,401860	851,462992	406,457	0,283202	22,290000	51,595000
3,386896	842,543182	407,209	0,279438	22,290000	51,595000
3,371949	831,303456	407,961	0,274695	22,290000	51,570000
3,356932	819,805706	408,711	0,269843	22,290000	51,570000
3,341894	807,216843	409,462	0,264530	22,290000	51,570000
3,326980	797,396836	410,214	0,260386	22,290000	51,585000
3,311932	785,334438	410,965	0,255296	22,290000	51,585000
3,296968	772,369529	411,715	0,249825	22,290000	51,585000
3,281943	763,137311	412,467	0,245929	22,290000	51,585000
3,266921	752,383553	413,220	0,241391	22,290000	51,585000
3,251921	738,689694	413,971	0,235612	22,290000	51,585000
3,237025	728,845388	414,721	0,231458	22,290000	51,585000
3,221939	715,983459	415,473	0,226030	22,290000	51,585000
3,206982	704,837456	416,227	0,221326	22,290000	51,545000
3,191944	695,229191	416,978	0,217271	22,290000	51,545000
3,176920	682,492225	417,731	0,211896	22,290000	51,545000
3,161941	673,634895	418,483	0,208159	22,290000	51,545000
3,146990	662,654352	419,235	0,203525	22,290000	51,545000
3,131924	648,866771	419,987	0,197707	22,290000	51,555000
3,117011	639,806955	420,739	0,193883	22,290000	51,555000
3,101927	626,341038	421,490	0,188201	22,290000	51,555000
3,086948	617,922236	422,241	0,184648	22,290000	51,595000
3,071921	605,005924	422,993	0,179197	22,290000	51,595000
3,057024	595,913711	423,743	0,175360	22,290000	51,595000
3,041993	584,760765	424,494	0,170654	22,290000	51,595000
3,026991	573,802207	425,245	0,166029	22,290000	51,595000
3,011929	560,321247	425,995	0,160340	22,290000	51,585000
2,997000	549,449469	426,746	0,155752	22,290000	51,585000
2,981948	540,624537	427,497	0,152028	22,290000	51,585000
2,966973	529,572256	428,247	0,147364	22,290000	51,585000
2,951982	518,537332	428,997	0,142708	22,290000	51,585000
2,937053	505,636062	429,748	0,137263	22,290000	51,610000
2,922025	494,309556	430,500	0,132483	22,290000	51,610000
2,906995	484,801957	431,252	0,128471	22,290000	51,610000
2,892030	472,668978	432,003	0,123351	22,290000	51,570000
2,877003	461,256850	432,755	0,118535	22,290000	51,570000
2,861985	450,205726	433,506	0,113872	22,290000	51,570000
2,846989	441,528899	434,256	0,110210	22,290000	51,585000
2,832001	428,557048	435,006	0,104736	22,290000	51,585000
2,817000	416,721434	435,756	0,099741	22,290000	51,595000
2,801989	407,387394	436,507	0,095802	22,290000	51,595000
2,787026	395,551781	437,259	0,090808	22,290000	51,595000
2,771994	386,796273	438,009	0,087113	22,290000	51,595000
2,756964	373,487717	438,762	0,081497	22,290000	51,595000
2,741980	364,873371	439,514	0,077861	22,290000	51,595000
2,726988	351,988300	440,264	0,072424	22,290000	51,555000
2,712060	340,403769	441,014	0,067535	22,290000	51,555000
2,697016	331,350896	441,765	0,063715	22,290000	51,555000
2,682023	318,645170	442,516	0,058353	22,290000	51,555000
2,667080	309,569155	443,267	0,054523	22,290000	51,555000
2,652015	298,932261	444,017	0,050034	22,290000	51,585000
2,636977	286,242734	444,768	0,044679	22,290000	51,585000
2,622009	277,879471	445,520	0,041150	22,290000	51,585000
2,607047	267,306215	446,271	0,036688	22,290000	51,585000
2,592016	256,552457	447,024	0,032150	22,290000	51,585000
2,577049	244,278316	447,774	0,026970	22,300000	51,575000
2,562015	234,700135	448,527	0,022928	22,300000	51,575000
2,547050	222,363513	449,278	0,017722	22,300000	51,575000
2,532025	210,755841	450,029	0,012824	22,290000	51,585000
2,517002	199,813481	450,779	0,008206	22,290000	51,585000
2,501979	191,474517	451,531	0,004687	22,290000	51,585000
2,487003	180,586539	452,285	0,000092	22,300000	51,575000
2,472019	170,421727	453,037	-0,004197	22,300000	51,575000
2,457078	159,620529	453,787	-0,008755	22,280000	51,585000
2,442014	148,843630	454,540	-0,013303	22,280000	51,585000
2,427094	138,779482	455,291	-0,017550	22,280000	51,585000
2,412043	127,633479	456,041	-0,022254	22,280000	51,585000
2,397038	115,383636	456,794	-0,027423	22,280000	51,585000
2,382030	106,839872	457,545	-0,031029	22,280000	51,585000
2,367020	95,467084	458,296	-0,035828	22,290000	51,545000
2,352079	86,005767	459,046	-0,039821	22,290000	51,545000
2,337069	75,847897	459,796	-0,044107	22,290000	51,595000
2,322020	65,517624	460,549	-0,048467	22,290000	51,595000
2,307014	55,312315	461,299	-0,052773	22,290000	51,595000
2,292022	44,143171	462,051	-0,057487	22,290000	51,570000
2,277063	32,103914	462,801	-0,062567	22,290000	51,570000
2,262066	24,337696	463,554	-0,065845	22,290000	51,570000
2,247050	14,132387	464,306	-0,070151	22,290000	51,595000
2,231971	3,809057	465,057	-0,074508	22,290000	51,595000
2,217030	-7,171486	465,807	-0,079142	22,290000	51,595000
2,201987	-17,384895	466,559	-0,083452	22,290000	51,595000
2,187065	-28,083114	467,311	-0,087966	22,290000	51,595000
2,172040	-40,459077	468,061	-0,093189	22,290000	51,585000
2,157040	-49,943535	468,811	-0,097191	22,290000	51,585000
2,142039	-61,191360	469,562	-0,101938	22,290000	51,585000
2,127053	-71,968259	470,313	-0,106486	22,290000	51,585000
2,112008	-80,088539	471,063	-0,109913	22,290000	51,585000
2,097048	-90,089048	471,815	-0,114133	22,300000	51,575000
2,082038	-101,328773	472,565	-0,118876	22,300000	51,575000
2,067019	-109,488392	473,317	-0,122319	22,300000	51,575000
2,052031	-119,466917	474,068	-0,126530	22,300000	51,575000
2,037026	-129,349406	474,820	-0,130701	22,300000	51,575000
2,022026	-141,662887	475,574	-0,135897	22,290000	51,545000
2,007102	-149,884988	476,325	-0,139367	22,290000	51,545000
1,992059	-162,536332	477,076	-0,144706	22,290000	51,545000
1,977039	-170,098906	477,827	-0,147897	22,290000	51,555000
1,962101	-181,574672	478,580	-0,152740	22,290000	51,555000
1,947070	-190,775650	479,331	-0,156623	22,290000	51,555000
1,932034	-201,475026	480,081	-0,161138	22,290000	51,585000
1,917039	-212,432427	480,833	-0,165762	22,290000	51,585000
1,902086	-222,755758	481,585	-0,170118	22,290000	51,610000
1,887066	-232,199719	482,339	-0,174104	22,290000	51,610000
1,872057	-240,374380	483,089	-0,177553	22,290000	51,610000
1,857058	-250,336706	483,841	-0,181757	22,290000	51,610000
1,841985	-261,889996	484,591	-0,186633	22,290000	51,610000
1,827070	-268,897179	485,343	-0,189590	22,290000	51,610000
1,812046	-278,647762	486,095	-0,193705	22,290000	51,610000
1,797095	-288,492067	486,845	-0,197859	22,290000	51,610000
1,782039	-299,559390	487,595	-0,202529	22,290000	51,620000
1,767047	-307,835873	488,346	-0,206022	22,290000	51,620000
1,752102	-317,852581	489,097	-0,210249	22,290000	51,620000
1,737085	-329,648854	489,850	-0,215227	22,280000	51,610000
1,722087	-336,790257	490,601	-0,218241	22,280000	51,610000
1,707118	-348,593472	491,351	-0,223222	22,280000	51,610000
1,692075	-356,188444	492,103	-0,226427	22,280000	51,610000
1,677047	-365,037674	492,856	-0,230161	22,280000	51,610000
1,662136	-375,148104	493,607	-0,234428	22,290000	51,595000
1,647088	-386,466510	494,358	-0,239204	22,290000	51,595000
1,632115	-394,406287	495,110	-0,242555	22,290000	51,595000
1,617097	-403,976368	495,861	-0,246593	22,300000	51,560000
1,602149	-413,664470	496,614	-0,250682	22,300000	51,560000
1,587056	-423,462493	497,364	-0,254816	22,300000	51,560000
1,572159	-432,843972	498,115	-0,258775	22,300000	51,560000
1,557041	-444,123038	498,867	-0,263535	22,300000	51,560000
1,542069	-453,364512	499,618	-0,267435	22,290000	51,595000
1,527101	-459,813990	500,369	-0,270157	22,290000	51,595000
1,512114	-470,505267	501,122	-0,274668	22,290000	51,595000
1,497112	-479,730543	501,872	-0,278562	22,290000	51,610000
1,482094	-488,352988	502,623	-0,282200	22,290000	51,610000
1,467113	-497,013616	503,375	-0,285855	22,290000	51,610000
1,452122	-505,165136	504,125	-0,289295	22,290000	51,585000
1,437088	-512,039257	504,877	-0,292196	22,290000	51,585000
1,422084	-521,193952	505,628	-0,296059	22,290000	51,595000
1,407097	-529,164970	506,380	-0,299423	22,290000	51,595000
1,392161	-538,249084	507,132	-0,303256	22,290000	51,595000
1,377059	-547,278816	507,885	-0,307067	22,290000	51,595000
1,362067	-557,295524	508,635	-0,311294	22,290000	51,595000
1,347096	-564,090964	509,387	-0,314162	22,290000	51,595000
1,332081	-570,948886	510,137	-0,317056	22,290000	51,555000
1,317140	-576,969092	510,888	-0,319596	22,290000	51,555000
1,302087	-585,582281	511,640	-0,323231	22,290000	51,610000
1,287111	-593,546357	512,391	-0,326592	22,290000	51,610000
1,272062	-598,891995	513,142	-0,328848	22,290000	51,610000
1,257087	-609,033666	513,893	-0,333127	22,290000	51,610000
1,242039	-614,943952	514,643	-0,335622	22,290000	51,610000
1,227090	-625,023141	515,393	-0,339875	22,290000	51,610000
1,212099	-630,439361	516,145	-0,342161	22,290000	51,595000
1,197111	-639,131230	516,896	-0,345829	22,290000	51,595000
1,182117	-646,428836	517,648	-0,348908	22,290000	51,595000
1,167134	-654,447293	518,401	-0,352292	22,290000	51,595000
1,152088	-659,564990	519,151	-0,354452	22,290000	51,595000
1,137094	-665,600239	519,903	-0,356999	22,290000	51,595000
1,122093	-673,116530	520,654	-0,360170	22,290000	51,595000
1,107068	-680,123713	521,404	-0,363127	22,290000	51,595000
1,092099	-686,253841	522,155	-0,365714	22,290000	51,585000
1,077159	-692,343472	522,906	-0,368284	22,290000	51,585000
[...]
3,340053	817,791256	284,980	0,269373	22,290000	51,700000
3,340034	817,100489	285,733	0,269082	22,290000	51,700000
3,340077	817,156028	286,485	0,269105	22,290000	51,700000
3,340060	816,520799	287,235	0,268837	22,290000	51,700000
3,340053	816,175994	287,986	0,268691	22,300000	51,680000
3,340055	815,941110	288,737	0,268592	22,300000	51,680000
3,340047	815,658786	289,489	0,268473	22,300000	51,680000
3,340030	815,791849	290,240	0,268529	22,290000	51,685000
3,340059	815,376463	290,991	0,268354	22,290000	51,685000
3,340077	815,322080	291,742	0,268331	22,290000	51,685000
3,340020	814,906694	292,492	0,268156	22,300000	51,705000
3,339990	815,102238	293,244	0,268238	22,300000	51,705000
3,328084	807,671570	293,995	0,265103	22,290000	51,675000
3,313011	795,750333	294,747	0,260072	22,290000	51,675000
3,298022	781,368021	295,500	0,254002	22,290000	51,675000
3,283041	772,055965	296,253	0,250073	22,290000	51,715000
3,268084	758,809890	297,004	0,244483	22,290000	51,715000
3,253012	746,496408	297,757	0,239287	22,290000	51,715000
3,238025	734,606413	298,509	0,234269	22,290000	51,715000
3,223089	725,451718	299,261	0,230406	22,290000	51,715000
3,208059	711,688435	300,013	0,224598	22,290000	51,685000
3,193125	700,315647	300,764	0,219798	22,290000	51,685000
3,178141	690,972351	301,515	0,215855	22,290000	51,685000
3,163108	678,956235	302,266	0,210785	22,290000	51,685000
3,148117	665,961243	303,019	0,205301	22,290000	51,685000
3,133050	657,167552	303,772	0,201590	22,290000	51,685000
3,118069	645,112096	304,524	0,196502	22,300000	51,705000
3,103124	633,606246	305,275	0,191647	22,300000	51,705000
3,088131	623,041090	306,025	0,187188	22,290000	51,700000
3,073094	612,129971	306,775	0,182584	22,290000	51,700000
3,058131	600,639162	307,528	0,177735	22,290000	51,700000
3,046159	589,572997	308,279	0,173065	22,300000	51,705000
3,061114	599,785249	308,924	0,177375	22,300000	51,705000
3,076080	611,926327	309,675	0,182498	22,300000	51,705000
3,091091	626,356080	310,427	0,188587	22,300000	51,705000
3,106110	637,078597	311,179	0,193112	22,300000	51,705000
3,121136	649,760025	311,929	0,198464	22,290000	51,715000
3,136120	659,259525	312,679	0,202473	22,290000	51,715000
3,151135	670,710993	313,430	0,207305	22,290000	51,715000
3,166065	682,326764	314,181	0,212207	22,300000	51,705000
3,181087	695,055632	314,934	0,217579	22,300000	51,705000
3,196032	707,910619	315,686	0,223003	22,300000	51,705000
3,211094	716,641828	316,439	0,226688	22,290000	51,675000
3,226157	728,101396	317,191	0,231524	22,290000	51,675000
3,241087	739,457985	317,943	0,236316	22,290000	51,675000
3,256029	751,239216	318,693	0,241288	22,290000	51,675000
3,271087	764,383470	319,445	0,246835	22,290000	51,675000
3,286051	773,922310	320,195	0,250860	22,290000	51,725000
3,301011	784,667969	320,947	0,255395	22,290000	51,725000
3,316024	796,103238	321,697	0,260221	22,290000	51,725000
3,331061	808,746483	322,447	0,265556	22,290000	51,685000
3,346049	818,771290	323,199	0,269787	22,290000	51,685000
3,361060	831,741984	323,949	0,275260	22,280000	51,725000
3,375991	841,492567	324,702	0,279375	22,280000	51,725000
3,391062	854,723600	325,454	0,284958	22,280000	51,725000
3,406037	864,858329	326,205	0,289235	22,280000	51,725000
3,421029	876,983209	326,956	0,294352	22,280000	51,725000
3,436053	885,769957	327,708	0,298060	22,280000	51,725000
3,451051	897,315147	328,459	0,302932	22,290000	51,675000
3,466055	908,225109	329,211	0,307536	22,290000	51,675000
3,481015	921,699126	329,961	0,313222	22,290000	51,675000
3,496076	930,517115	330,711	0,316943	22,290000	51,675000
3,507992	941,701301	331,462	0,321663	22,290000	51,675000
3,508038	941,011691	332,212	0,321372	22,290000	51,715000
3,508013	940,236458	332,963	0,321045	22,290000	51,715000
3,507974	939,977275	333,714	0,320936	22,290000	51,715000
3,508027	939,499408	334,465	0,320734	22,290000	51,715000
3,508023	939,749334	335,217	0,320839	22,290000	51,715000
3,508043	939,208984	335,969	0,320611	22,290000	51,685000
3,508031	938,997242	336,719	0,320522	22,290000	51,685000
3,508034	938,496233	337,472	0,320311	22,290000	51,685000
3,508004	938,213909	338,223	0,320191	22,290000	51,725000
3,508090	938,440693	338,974	0,320287	22,290000	51,725000
3,508020	937,774224	339,726	0,320006	22,290000	51,725000
3,508011	937,680502	340,476	0,319966	22,290000	51,725000
3,508003	937,672403	341,227	0,319963	22,290000	51,725000
3,496022	929,975609	341,979	0,316715	22,290000	51,700000
3,481038	918,266116	342,731	0,311773	22,290000	51,700000
3,465989	904,149928	343,482	0,305816	22,290000	51,700000
3,451028	892,015792	344,233	0,300696	22,290000	51,700000
3,435988	882,987217	344,985	0,296886	22,290000	51,700000
3,421001	869,286415	345,736	0,291104	22,290000	51,700000
3,406047	859,786915	346,489	0,287095	22,290000	51,715000
3,390972	847,504675	347,239	0,281912	22,290000	51,715000
3,375987	836,672236	347,989	0,277341	22,290000	51,685000
3,361074	824,194452	348,739	0,272075	22,290000	51,685000
3,346075	813,245150	349,492	0,267455	22,290000	51,685000
3,331074	799,544348	350,243	0,261673	22,290000	51,685000
3,316021	789,974267	350,995	0,257634	22,290000	51,685000
3,301059	776,578930	351,746	0,251981	22,290000	51,685000
3,286107	767,619779	352,497	0,248201	22,290000	51,700000
3,271045	756,450635	353,248	0,243487	22,290000	51,700000
3,256074	745,125287	353,999	0,238708	22,290000	51,725000
3,241090	732,772466	354,749	0,233495	22,290000	51,725000
3,226049	722,442193	355,499	0,229136	22,290000	51,725000
3,211067	710,018791	356,251	0,223893	22,310000	51,705000
3,196119	699,711660	357,002	0,219543	22,310000	51,705000
3,181061	687,805465	357,754	0,214519	22,310000	51,705000
3,175091	682,091880	358,386	0,212108	22,290000	51,700000
3,190095	692,446451	359,136	0,216478	22,290000	51,700000
3,205091	706,718843	359,887	0,222500	22,290000	51,700000
3,220071	716,406944	360,638	0,226589	22,290000	51,700000
3,235017	730,531231	361,391	0,232549	22,290000	51,700000
3,250064	741,033907	362,144	0,236981	22,300000	51,705000
3,265018	751,615262	362,895	0,241447	22,300000	51,705000
3,280010	765,017541	363,645	0,247103	22,300000	51,705000
3,295060	774,776224	364,396	0,251221	22,290000	51,700000
3,310024	787,002925	365,147	0,256380	22,290000	51,700000
3,325081	797,897845	365,899	0,260978	22,290000	51,700000
3,340053	809,467334	366,651	0,265860	22,290000	51,700000
3,355046	822,728451	367,401	0,271457	22,290000	51,700000
3,370051	832,227951	368,152	0,275465	22,290000	51,700000
3,385075	844,377129	368,904	0,280592	22,290000	51,700000
3,400081	854,989725	369,654	0,285071	22,290000	51,700000
3,415071	866,848480	370,407	0,290075	22,290000	51,715000
3,430074	879,013857	371,159	0,295209	22,290000	51,715000
3,444944	890,425985	371,912	0,300025	22,290000	51,685000
3,460054	902,652686	372,663	0,305185	22,290000	51,685000
3,475019	913,664470	373,415	0,309832	22,290000	51,685000
3,490031	925,406361	374,168	0,314787	22,290000	51,685000
3,505020	936,583605	374,921	0,319503	22,290000	51,685000
3,520000	947,869613	375,672	0,324266	22,290000	51,685000
3,535081	956,978025	376,422	0,328110	22,290000	51,685000
3,550016	968,546357	377,175	0,332992	22,290000	51,685000
3,565079	979,574339	377,926	0,337646	22,290000	51,715000
3,580014	992,859755	378,678	0,343252	22,290000	51,715000
3,594962	1001,725183	379,430	0,346993	22,290000	51,715000
3,609994	1013,003092	380,183	0,351752	22,290000	51,715000
3,624975	1025,332772	380,933	0,356956	22,290000	51,715000
3,640018	1036,791182	381,687	0,361791	22,290000	51,715000
3,654998	1046,495483	382,437	0,365886	22,290000	51,685000
3,670021	1057,382303	383,188	0,370480	22,290000	51,685000
3,675970	1063,801698	383,939	0,373189	22,290000	51,685000
3,676018	1063,276390	384,690	0,372968	22,290000	51,685000
3,676000	1062,719842	385,442	0,372733	22,290000	51,685000
3,675961	1062,155195	386,195	0,372495	22,290000	51,685000
3,675992	1062,005933	386,947	0,372432	22,290000	51,685000
3,675984	1061,833531	387,701	0,372359	22,290000	51,685000
3,675976	1061,457485	388,451	0,372200	22,290000	51,685000
3,675989	1061,222601	389,202	0,372101	22,290000	51,685000
3,676021	1061,112680	389,952	0,372055	22,290000	51,700000
3,675961	1061,112680	390,703	0,372055	22,290000	51,700000
3,675970	1060,619770	391,454	0,371847	22,290000	51,700000
3,675992	1060,447367	392,204	0,371774	22,290000	51,700000
3,675983	1060,101405	392,955	0,371628	22,290000	51,700000
3,673037	1057,640329	393,709	0,370589	22,290000	51,700000
3,657927	1047,757840	394,459	0,366419	22,290000	51,715000
3,642980	1035,278899	395,211	0,361153	22,290000	51,715000
3,628003	1021,719259	395,961	0,355431	22,280000	51,685000
3,613006	1010,636895	396,711	0,350754	22,280000	51,685000
3,598022	1000,722008	397,461	0,346570	22,280000	51,685000
3,583028	988,980117	398,213	0,341615	22,300000	51,690000
3,568010	974,950709	398,964	0,335694	22,300000	51,690000
3,552993	963,044515	399,715	0,330670	22,300000	51,690000
3,537989	953,426994	400,468	0,326611	22,300000	51,690000
3,522956	939,890495	401,219	0,320899	22,300000	51,690000
3,507989	930,461576	401,970	0,316920	22,290000	51,675000
3,493035	917,043098	402,721	0,311257	22,290000	51,675000
3,478042	907,731043	403,471	0,307328	22,290000	51,675000
3,463008	894,571747	404,223	0,301774	22,290000	51,675000
3,447992	882,062722	404,975	0,296496	22,290000	51,675000
3,433043	871,049782	405,726	0,291848	22,290000	51,675000
3,418040	861,965668	406,477	0,288015	22,300000	51,705000
3,402971	848,209327	407,227	0,282209	22,300000	51,705000
3,388030	839,188851	407,977	0,278403	22,300000	51,705000
3,373058	827,698043	408,727	0,273554	22,300000	51,705000
3,358075	815,133479	409,480	0,268251	22,300000	51,705000
3,343055	802,695035	410,233	0,263002	22,290000	51,715000
3,328085	793,916386	410,983	0,259298	22,290000	51,715000
3,313045	782,363096	411,736	0,254422	22,290000	51,715000
3,297989	769,140162	412,486	0,248842	22,290000	51,715000
3,283075	759,664960	413,237	0,244844	22,290000	51,715000
3,268020	746,606330	413,990	0,239333	22,290000	51,715000
3,253063	735,570248	414,742	0,234676	22,290000	51,715000
3,238081	726,415553	415,493	0,230813	22,290000	51,715000
3,223099	713,115096	416,244	0,225200	22,290000	51,700000
3,208071	703,082189	416,995	0,220966	22,290000	51,700000
3,193117	690,471342	417,747	0,215644	22,290000	51,700000
3,178098	681,559630	418,498	0,211883	22,300000	51,730000
3,163033	668,131896	419,249	0,206217	22,300000	51,730000
3,148107	658,947118	419,999	0,202341	22,300000	51,730000
3,133147	648,663128	420,750	0,198001	22,300000	51,730000
3,118064	634,703144	421,501	0,192110	22,300000	51,730000
3,103076	626,026316	422,252	0,188448	22,290000	51,740000
3,088148	614,943952	423,003	0,183771	22,290000	51,740000
3,073162	603,210160	423,754	0,178820	22,290000	51,740000
3,058074	590,192026	424,505	0,173326	22,300000	51,705000
3,043096	581,460817	425,256	0,169642	22,300000	51,705000
3,028077	570,526557	426,006	0,165027	22,290000	51,715000
3,013079	559,710317	426,758	0,160463	22,290000	51,715000
2,998097	546,150678	427,511	0,154741	22,290000	51,715000
2,983091	535,270799	428,262	0,150149	22,290000	51,715000
2,968106	526,288507	429,013	0,146359	22,290000	51,715000
2,953106	512,994992	429,766	0,140749	22,290000	51,715000
2,938110	504,475526	430,517	0,137154	22,290000	51,725000
2,923159	492,813472	431,267	0,132232	22,290000	51,725000
2,908141	482,372121	432,017	0,127826	22,290000	51,700000
2,893110	471,728284	432,769	0,123334	22,290000	51,700000
2,878162	458,176744	433,521	0,117616	22,290000	51,700000
2,863104	447,422986	434,274	0,113078	22,300000	51,690000
2,848157	437,805465	435,024	0,109019	22,300000	51,690000
2,833135	427,695035	435,775	0,104752	22,300000	51,690000
2,818131	416,573330	436,525	0,100059	22,290000	51,725000
2,803136	405,905195	437,278	0,095557	22,290000	51,725000
2,788217	394,650428	438,031	0,090808	22,290000	51,740000
2,773135	382,148345	438,782	0,085532	22,290000	51,740000
2,758135	370,580013	439,536	0,080650	22,290000	51,740000
2,743135	361,785166	440,288	0,076938	22,290000	51,685000
2,728205	349,745909	441,039	0,071858	22,290000	51,685000
2,713126	340,301948	441,789	0,067873	22,290000	51,685000
2,698117	326,883470	442,541	0,062210	22,290000	51,685000
2,683096	318,402186	443,291	0,058631	22,290000	51,685000
2,668164	307,876370	444,041	0,054189	22,290000	51,685000
2,653164	294,190610	444,792	0,048414	22,290000	51,685000
2,638127	286,219592	445,542	0,045050	22,290000	51,685000
2,623114	273,160962	446,292	0,039539	22,290000	51,700000
2,608126	262,141079	447,042	0,034889	22,290000	51,700000
2,593147	251,912628	447,794	0,030572	22,290000	51,700000
2,578100	243,534323	448,544	0,027037	22,290000	51,700000
2,563200	231,651270	449,296	0,022022	22,290000	51,700000
2,548167	219,612013	450,049	0,016941	22,300000	51,720000
2,533152	210,763940	450,802	0,013208	22,300000	51,720000
2,518185	198,669144	451,554	0,008104	22,300000	51,720000
2,503195	189,937935	452,305	0,004419	22,300000	51,720000
2,488222	179,443359	453,059	-0,000010	22,300000	51,720000
2,473169	166,330347	453,810	-0,005543	22,300000	51,720000
2,458161	155,748991	454,561	-0,010009	22,290000	51,740000
2,443133	144,877212	455,311	-0,014597	22,290000	51,740000
2,428158	136,310306	456,064	-0,018212	22,290000	51,715000
2,413156	125,400344	456,816	-0,022816	22,290000	51,715000
2,398166	115,210077	457,568	-0,027116	22,290000	51,715000
2,383148	104,346397	458,321	-0,031701	22,290000	51,740000
2,368178	93,734958	459,072	-0,036179	22,290000	51,740000
2,353192	81,978025	459,824	-0,041140	22,290000	51,685000
2,338193	73,175078	460,574	-0,044855	22,290000	51,685000
2,323148	62,774224	461,325	-0,049244	22,290000	51,685000
2,308165	52,286591	462,077	-0,053670	22,290000	51,685000
2,293173	40,059890	462,829	-0,058830	22,290000	51,685000
2,278112	29,023808	463,581	-0,063487	22,290000	51,685000
2,263140	18,889079	464,333	-0,067764	22,290000	51,685000
2,248215	8,826089	465,085	-0,072010	22,290000	51,685000
2,233169	0,815731	465,835	-0,075391	22,290000	51,700000
2,218135	-9,781824	466,586	-0,079863	22,290000	51,700000
2,203094	-20,049615	467,337	-0,084196	22,290000	51,700000
2,188152	-29,800198	468,088	-0,088311	22,290000	51,700000
2,173156	-40,263533	468,839	-0,092726	22,290000	51,700000
2,158195	-50,766208	469,590	-0,097158	22,290000	51,700000
2,143169	-63,119030	470,342	-0,102371	22,290000	51,700000
2,128169	-73,260701	471,095	-0,106651	22,290000	51,700000
2,113188	-81,906287	471,845	-0,110299	22,300000	51,720000
2,098142	-91,492567	472,598	-0,114345	22,300000	51,720000
2,083117	-104,260775	473,349	-0,119733	22,300000	51,720000
2,068193	-114,088881	474,099	-0,123880	22,290000	51,725000
2,053236	-121,488309	474,851	-0,127003	22,290000	51,725000
2,038175	-132,148345	475,601	-0,131501	22,290000	51,725000
2,023197	-144,226942	476,352	-0,136599	22,290000	51,725000
2,008182	-152,926911	477,104	-0,140270	22,290000	51,725000
1,993145	-164,667645	477,857	-0,145225	22,290000	51,715000
1,978208	-173,014709	478,609	-0,148747	22,290000	51,715000
1,963171	-184,434936	479,360	-0,153566	22,290000	51,715000
1,948233	-193,613929	480,112	-0,157440	22,290000	51,685000
1,933199	-203,896762	480,864	-0,161779	22,290000	51,685000
1,918160	-213,655445	481,616	-0,165897	22,290000	51,685000
1,903219	-226,376213	482,367	-0,171266	22,290000	51,685000
1,888174	-235,429086	483,118	-0,175086	22,290000	51,685000
1,873207	-246,818072	483,868	-0,179892	22,280000	51,685000
1,858167	-253,684094	484,619	-0,182790	22,280000	51,685000
1,843183	-265,064981	485,369	-0,187592	22,280000	51,685000
1,828192	-272,839298	486,124	-0,190873	22,280000	51,685000
1,813260	-284,698052	486,876	-0,195877	22,280000	51,685000
1,798159	-294,566656	487,626	-0,200042	22,280000	51,685000
1,783206	-302,670736	488,378	-0,203462	22,290000	51,685000
1,768258	-314,255267	489,129	-0,208351	22,290000	51,685000
1,753212	-321,349230	489,879	-0,211344	22,290000	51,685000
1,738231	-332,643337	490,629	-0,216110	22,290000	51,685000
1,723203	-339,737300	491,381	-0,219104	22,290000	51,685000
1,708189	-348,130646	492,133	-0,222646	22,290000	51,715000
1,693205	-357,388320	492,884	-0,226553	22,290000	51,715000
1,678222	-367,004684	493,635	-0,230611	22,290000	51,715000
1,663227	-376,520383	494,386	-0,234626	22,290000	51,715000
1,648223	-385,627638	495,139	-0,238470	22,290000	51,715000
1,633234	-395,222018	495,889	-0,242519	22,290000	51,715000
1,618235	-406,829689	496,641	-0,247417	22,290000	51,715000
1,603206	-413,695711	497,394	-0,250314	22,290000	51,715000
1,588213	-424,928493	498,146	-0,255055	22,290000	51,685000
1,573228	-432,005100	498,898	-0,258041	22,290000	51,685000
1,558186	-441,786924	499,649	-0,262169	22,290000	51,685000
1,543212	-450,330689	500,400	-0,265774	22,300000	51,745000
1,528198	-460,449219	501,151	-0,270044	22,300000	51,745000
1,513249	-468,687519	501,902	-0,273521	22,300000	51,745000
1,498184	-476,909619	502,654	-0,276991	22,300000	51,745000
1,483276	-486,016875	503,405	-0,280834	22,300000	51,745000
1,468242	-496,519550	504,157	-0,285266	22,300000	51,690000
1,453203	-506,623038	504,909	-0,289530	22,300000	51,690000
1,438222	-514,523475	505,661	-0,292864	22,300000	51,690000
1,423190	-521,586197	506,412	-0,295844	22,290000	51,700000
1,408234	-528,662804	507,164	-0,298831	22,290000	51,700000
1,393169	-540,545857	507,916	-0,303845	22,300000	51,720000
1,378200	-547,435019	508,666	-0,306752	22,300000	51,720000
1,363247	-556,487892	509,416	-0,310573	22,300000	51,720000
1,348224	-565,102238	510,167	-0,314208	22,290000	51,715000
1,333242	-574,774141	510,919	-0,318290	22,290000	51,715000
1,318238	-581,475859	511,669	-0,321118	22,290000	51,715000
1,303205	-589,008349	512,419	-0,324296	22,290000	51,715000
1,288285	-595,592047	513,169	-0,327075	22,290000	51,715000
1,273267	-604,754841	513,920	-0,330941	22,290000	51,685000
1,258288	-611,510941	514,672	-0,333792	22,290000	51,685000
1,243213	-619,928586	515,424	-0,337345	22,290000	51,685000
1,228232	-625,548449	516,178	-0,339716	22,290000	51,700000
1,213268	-633,504425	516,929	-0,343074	22,290000	51,700000
1,198208	-638,206735	517,681	-0,345058	22,290000	51,700000
1,183196	-645,237059	518,433	-0,348025	22,290000	51,715000
1,168277	-654,486634	519,184	-0,351928	22,290000	51,715000
1,153238	-660,341380	519,934	-0,354399	22,290000	51,715000
1,138225	-665,835123	520,687	-0,356717	22,290000	51,715000
1,123216	-673,438194	521,439	-0,359926	22,290000	51,715000
1,108223	-680,187352	522,192	-0,362774	22,290000	51,685000
1,093232	-686,708568	522,942	-0,365526	22,290000	51,685000
1,078221	-689,749334	523,692	-0,366809	22,290000	51,685000
1,063280	-693,504008	524,442	-0,368394	22,290000	51,715000
1,048227	-699,037091	525,193	-0,370729	22,290000	51,715000
1,033231	-702,627462	525,947	-0,372244	22,290000	51,725000
1,018211	-707,369113	526,698	-0,374245	22,290000	51,725000
1,003202	-711,946460	527,449	-0,376176	22,290000	51,725000
0,988242	-718,530158	528,201	-0,378955	22,290000	51,725000
0,973267	-725,325598	528,952	-0,381822	22,290000	51,725000
0,958226	-732,701885	529,704	-0,384935	22,290000	51,725000
0,943213	-732,184677	530,455	-0,384717	22,290000	51,700000
0,928262	-732,317739	531,206	-0,384773	22,290000	51,700000
0,913211	-730,758016	531,957	-0,384115	22,290000	51,715000
0,898269	-724,369863	532,708	-0,381419	22,290000	51,715000
0,883231	-719,768217	533,461	-0,379477	22,290000	51,715000
0,868232	-706,522142	534,212	-0,373887	22,290000	51,715000
0,853233	-650,920561	534,964	-0,350423	22,290000	51,715000
0,838262	0,023141	535,716	-0,075725	22,290000	51,715000
0,823242	0,008099	536,468	-0,075731	22,290000	51,700000
0,808273	0,157361	537,218	-0,075668	22,290000	51,700000
0,793245	0,172403	537,969	-0,075662	22,290000	51,700000
0,778241	0,172403	538,721	-0,075662	22,290000	51,700000
0,763219	0,054382	539,474	-0,075712	22,290000	51,700000
0,748265	0,251083	540,225	-0,075629	22,290000	51,675000
0,733258	0,133062	540,976	-0,075679	22,290000	51,675000
0,718248	0,298523	541,727	-0,075609	22,290000	51,675000
0,703251	0,165460	542,479	-0,075665	22,290000	51,715000
0,688287	0,234884	543,231	-0,075636	22,290000	51,715000
0,673223	0,203643	543,982	-0,075649	22,290000	51,715000
0,664201	0,259182	544,432	-0,075625	22,290000	51,715000