File: Nanoindentation Datenauswertung/data/PDMS/13.09/APM-PDMS-150ms,3um,20nms,9cycles,1,5um offset,5x1-3
Quasi static measurement routine
Tip parameters (shape,radius, material...)
13.09.2022

Piezo position[nm]	MEMS displ.[nm]	Time[ms]	Cap [pf]	Temp [°C]	Rh [%]
eoh

X-Pos [um]	Y-Pos [um]
0,000197	0,000989

POC
2,166052
0,678201	0,086780	1,649	-0,075788	22,300000	52,295000
0,693178	-0,023141	2,400	-0,075834	22,300000	52,295000
0,708187	0,211743	3,151	-0,075735	22,300000	52,295000
0,723183	0,313564	3,905	-0,075692	22,290000	52,265000
0,738160	0,234884	4,655	-0,075725	22,290000	52,265000
0,753167	0,031241	5,407	-0,075811	22,290000	52,265000
0,768218	0,055539	6,158	-0,075801	22,290000	52,280000
0,783138	0,211743	6,910	-0,075735	22,290000	52,280000
0,798171	0,101822	7,661	-0,075781	22,290000	52,280000
0,813183	0,101822	8,412	-0,075781	22,300000	52,270000
0,828220	0,227942	9,163	-0,075728	22,300000	52,270000
0,843187	0,242984	9,914	-0,075722	22,300000	52,270000
0,858177	0,211743	10,665	-0,075735	22,300000	52,270000
0,873204	0,204800	11,417	-0,075738	22,300000	52,270000
0,888218	0,094879	12,168	-0,075784	22,290000	52,265000
0,903175	-0,124963	12,921	-0,075877	22,290000	52,265000
0,918198	0,109921	13,671	-0,075778	22,290000	52,265000
0,933190	0,165460	14,421	-0,075754	22,290000	52,265000
0,948230	0,211743	15,171	-0,075735	22,290000	52,265000
0,963148	0,023141	15,921	-0,075814	22,300000	52,285000
0,978147	0,165460	16,671	-0,075754	22,300000	52,285000
0,993166	0,133062	17,423	-0,075768	22,300000	52,285000
1,008203	0,126120	18,173	-0,075771	22,300000	52,285000
1,023170	0,078680	18,925	-0,075791	22,300000	52,285000
1,038151	0,211743	19,676	-0,075735	22,300000	52,285000
1,053129	0,118021	20,427	-0,075774	22,300000	52,285000
1,068100	0,016199	21,177	-0,075817	22,300000	52,285000
1,083172	0,101822	21,928	-0,075781	22,290000	52,290000
1,098148	0,094879	22,679	-0,075784	22,290000	52,290000
1,113231	0,290423	23,433	-0,075702	22,290000	52,290000
1,128176	0,109921	24,185	-0,075778	22,290000	52,250000
1,143148	0,157361	24,937	-0,075758	22,290000	52,250000
1,158240	0,266125	25,687	-0,075712	22,300000	52,295000
1,173202	0,094879	26,439	-0,075784	22,300000	52,295000
1,188141	0,039340	27,191	-0,075808	22,300000	52,295000
1,203155	0,234884	27,943	-0,075725	22,300000	52,295000
1,218154	-0,006942	28,696	-0,075827	22,300000	52,295000
1,233161	0,400344	29,447	-0,075655	22,300000	52,295000
1,248177	-0,031241	30,198	-0,075837	22,290000	52,280000
1,263190	-0,054382	30,949	-0,075847	22,290000	52,280000
1,278171	0,118021	31,699	-0,075774	22,300000	52,255000
1,293172	0,078680	32,450	-0,075791	22,300000	52,255000
1,308167	-0,187444	33,202	-0,075903	22,300000	52,255000
1,323136	-0,062481	33,953	-0,075851	22,290000	52,250000
1,338155	0,008099	34,705	-0,075821	22,290000	52,250000
1,353095	-0,070581	35,455	-0,075854	22,290000	52,250000
1,368152	-0,085623	36,205	-0,075860	22,290000	52,250000
1,383130	0,047440	36,957	-0,075804	22,290000	52,250000
1,398155	-0,070581	37,707	-0,075854	22,300000	52,270000
1,413118	0,086780	38,459	-0,075788	22,300000	52,270000
1,428149	0,062481	39,211	-0,075798	22,300000	52,270000
1,443112	0,118021	39,961	-0,075774	22,300000	52,325000
1,458145	0,133062	40,714	-0,075768	22,300000	52,325000
1,473168	-0,195544	41,465	-0,075907	22,300000	52,325000
1,488140	0,062481	42,215	-0,075798	22,300000	52,325000
1,503156	-0,141162	42,965	-0,075884	22,300000	52,325000
1,518207	-0,023141	43,716	-0,075834	22,300000	52,255000
1,533159	0,000000	44,467	-0,075824	22,300000	52,255000
1,548159	-0,006942	45,218	-0,075827	22,300000	52,255000
1,563188	-0,062481	45,968	-0,075851	22,300000	52,310000
1,578193	-0,187444	46,719	-0,075903	22,300000	52,310000
1,593152	0,086780	47,469	-0,075788	22,300000	52,310000
1,608168	-0,062481	48,219	-0,075851	22,300000	52,285000
1,623129	-0,101822	48,972	-0,075867	22,300000	52,285000
1,638123	0,039340	49,722	-0,075808	22,300000	52,285000
1,653127	0,039340	50,474	-0,075808	22,300000	52,285000
1,668128	-0,249926	51,225	-0,075930	22,300000	52,285000
1,683181	-0,359847	51,976	-0,075976	22,300000	52,285000
1,698124	0,039340	52,728	-0,075808	22,300000	52,285000
1,713187	-5,940370	53,479	-0,078331	22,300000	52,285000
1,728111	-7,202727	54,230	-0,078864	22,300000	52,285000
1,743101	-9,609421	54,981	-0,079879	22,300000	52,285000
1,758194	-12,226701	55,731	-0,080984	22,300000	52,270000
1,773136	-14,405454	56,482	-0,081903	22,300000	52,270000
1,788135	-14,170570	57,234	-0,081804	22,300000	52,270000
1,803103	-214,980284	57,985	-0,166546	22,290000	52,330000
1,818121	-213,608005	58,736	-0,165967	22,290000	52,330000
1,833120	-207,502175	59,487	-0,163390	22,290000	52,330000
1,848152	-199,452477	60,238	-0,159993	22,290000	52,330000
1,863139	-192,931261	60,989	-0,157241	22,290000	52,330000
1,878100	-182,459827	61,741	-0,152822	22,310000	52,295000
1,893103	-175,946710	62,491	-0,150074	22,310000	52,295000
1,908080	-166,478451	63,241	-0,146078	22,310000	52,295000
1,923131	-156,422403	63,993	-0,141834	22,310000	52,295000
1,938101	-147,824256	64,747	-0,138206	22,310000	52,295000
1,953136	-137,517125	65,497	-0,133856	22,310000	52,295000
1,968094	-130,180178	66,247	-0,130760	22,300000	52,295000
1,983082	-121,127305	66,999	-0,126940	22,300000	52,295000
1,998142	-111,596564	67,751	-0,122918	22,300000	52,295000
2,013074	-101,909619	68,502	-0,118830	22,300000	52,295000
2,028148	-92,408962	69,253	-0,114821	22,300000	52,295000
2,043058	-82,612096	70,006	-0,110687	22,300000	52,310000
2,058101	-73,324339	70,756	-0,106767	22,300000	52,310000
2,073124	-61,324422	71,506	-0,101703	22,300000	52,310000
2,088071	-53,682011	72,257	-0,098478	22,310000	52,285000
2,103141	-43,601664	73,008	-0,094224	22,310000	52,285000
2,118110	-34,353247	73,760	-0,090321	22,300000	52,285000
2,133124	-24,321497	74,512	-0,086088	22,300000	52,285000
2,148142	-11,788174	75,264	-0,080799	22,300000	52,285000
2,163120	-1,857089	76,017	-0,076608	22,300000	52,285000
2,178091	5,714742	76,768	-0,073413	22,300000	52,285000
2,193064	17,345555	77,520	-0,068504	22,300000	52,285000
2,208097	25,865021	78,273	-0,064909	22,300000	52,350000
2,223083	38,406444	79,024	-0,059617	22,300000	52,350000
2,238090	47,577338	79,777	-0,055747	22,290000	52,290000
2,253103	56,331689	80,529	-0,052052	22,290000	52,290000
2,268141	66,834364	81,280	-0,047620	22,290000	52,290000
2,283132	76,639329	82,032	-0,043482	22,300000	52,270000
2,298155	86,868937	82,783	-0,039166	22,300000	52,270000
2,313105	98,821414	83,534	-0,034122	22,300000	52,270000
2,328147	109,488392	84,284	-0,029620	22,300000	52,270000
2,334064	112,717760	85,036	-0,028257	22,300000	52,270000
2,334119	111,267958	85,788	-0,028869	22,300000	52,285000
2,334088	110,665127	86,539	-0,029124	22,300000	52,285000
2,334076	110,453384	87,291	-0,029213	22,300000	52,285000
2,334115	109,786915	88,043	-0,029494	22,300000	52,270000
2,334105	109,159786	88,793	-0,029759	22,300000	52,270000
2,334161	108,665719	89,543	-0,029967	22,300000	52,270000
2,334176	108,493317	90,295	-0,030040	22,300000	52,270000
2,334141	108,038590	91,046	-0,030232	22,300000	52,270000
2,334102	107,450802	91,796	-0,030480	22,300000	52,270000
2,334160	107,475100	92,546	-0,030470	22,300000	52,270000
2,334125	107,309640	93,297	-0,030540	22,300000	52,270000
2,334103	106,871112	94,051	-0,030725	22,300000	52,270000
2,331122	106,706809	94,802	-0,030794	22,300000	52,270000
2,316087	95,122279	95,554	-0,035683	22,300000	52,270000
2,301108	81,718843	96,305	-0,041339	22,290000	52,305000
2,295139	74,186352	96,942	-0,044518	22,290000	52,305000
2,310133	86,578514	97,697	-0,039288	22,290000	52,280000
2,325100	97,724517	98,449	-0,034584	22,290000	52,280000
2,340123	108,885562	99,200	-0,029875	22,290000	52,280000
2,355161	120,133386	99,952	-0,025128	22,290000	52,280000
2,370154	133,113337	100,703	-0,019650	22,290000	52,280000
2,385134	141,232459	101,455	-0,016224	22,290000	52,280000
2,400124	151,774474	102,205	-0,011775	22,290000	52,290000
2,415085	165,161711	102,956	-0,006126	22,290000	52,290000
2,430127	174,449469	103,707	-0,002207	22,300000	52,285000
2,445117	186,222601	104,459	0,002762	22,300000	52,285000
2,460096	196,334188	105,211	0,007029	22,300000	52,285000
2,475114	204,571331	105,964	0,010505	22,300000	52,285000
2,490113	214,729201	106,716	0,014792	22,300000	52,285000
2,502079	225,028232	107,467	0,019138	22,300000	52,285000
2,502105	224,041256	108,219	0,018721	22,300000	52,285000
2,502124	223,358588	108,969	0,018433	22,300000	52,285000
2,502039	222,731459	109,721	0,018168	22,300000	52,285000
2,502114	222,199209	110,471	0,017944	22,300000	52,285000
2,502095	221,744483	111,223	0,017752	22,300000	52,285000
2,502054	221,125454	111,973	0,017491	22,300000	52,285000
2,502095	220,787591	112,725	0,017348	22,300000	52,285000
2,502179	220,583947	113,476	0,017262	22,300000	52,285000
2,502109	220,114179	114,228	0,017064	22,300000	52,295000
2,502101	219,651353	114,979	0,016869	22,300000	52,295000
2,502079	219,478951	115,730	0,016796	22,310000	52,270000
2,502089	219,063564	116,481	0,016621	22,310000	52,270000
2,502098	219,094805	117,231	0,016634	22,310000	52,270000
2,490111	211,366771	117,983	0,013373	22,300000	52,270000
2,475117	199,069489	118,735	0,008183	22,300000	52,270000
2,460065	188,401353	119,488	0,003681	22,300000	52,270000
2,445078	176,590038	120,240	-0,001303	22,300000	52,270000
2,430043	164,104154	120,993	-0,006572	22,300000	52,270000
2,418123	154,729617	121,744	-0,010528	22,300000	52,285000
2,433107	164,966167	122,381	-0,006208	22,300000	52,285000
2,448119	178,408944	123,131	-0,000536	22,300000	52,285000
2,463162	187,304456	123,881	0,003218	22,300000	52,285000
2,478185	198,708485	124,632	0,008031	22,300000	52,285000
2,493118	212,433584	125,385	0,013823	22,300000	52,285000
2,508090	223,163044	126,135	0,018351	22,290000	52,280000
2,523142	231,949793	126,886	0,022059	22,290000	52,280000
2,538126	242,593630	127,638	0,026550	22,290000	52,280000
2,553083	255,408120	128,390	0,031958	22,300000	52,295000
2,568098	266,734625	129,143	0,036738	22,300000	52,295000
2,583109	274,948626	129,895	0,040204	22,310000	52,310000
2,598136	285,592463	130,645	0,044696	22,310000	52,310000
2,613113	298,885978	131,396	0,050306	22,310000	52,310000
2,628143	307,068739	132,148	0,053759	22,310000	52,310000
2,643152	319,868187	132,900	0,059160	22,310000	52,310000
2,658091	328,418894	133,651	0,062769	22,310000	52,310000
2,670118	338,742225	134,401	0,067125	22,300000	52,285000
2,670043	337,542349	135,153	0,066619	22,300000	52,285000
2,670090	336,609755	135,904	0,066225	22,300000	52,285000
2,670112	336,358672	136,656	0,066119	22,300000	52,285000
2,670076	335,818322	137,408	0,065891	22,300000	52,285000
2,670076	335,488559	138,159	0,065752	22,310000	52,295000
2,670073	335,026890	138,910	0,065557	22,310000	52,295000
2,670098	334,869529	139,661	0,065491	22,310000	52,295000
2,670127	334,728368	140,411	0,065431	22,300000	52,255000
2,670144	333,999417	141,161	0,065124	22,300000	52,255000
2,670107	334,063055	141,913	0,065150	22,300000	52,255000
2,670115	333,654612	142,665	0,064978	22,300000	52,255000
2,670103	333,678910	143,417	0,064988	22,300000	52,255000
2,670052	333,309806	144,168	0,064833	22,290000	52,280000
2,658062	324,163211	144,920	0,060973	22,290000	52,280000
2,643163	314,225183	145,671	0,056779	22,290000	52,280000
2,628102	302,130387	146,422	0,051675	22,310000	52,295000
2,613080	290,906861	147,173	0,046938	22,310000	52,295000
2,598109	279,604654	147,925	0,042169	22,300000	52,295000
2,583087	267,274974	148,679	0,036966	22,300000	52,295000
2,568077	254,632887	149,433	0,031631	22,300000	52,295000
2,553137	245,665636	150,186	0,027847	22,300000	52,295000
2,547101	237,169311	150,820	0,024261	22,300000	52,295000
2,562133	249,922477	151,571	0,029643	22,300000	52,295000
2,577091	261,106663	152,321	0,034363	22,310000	52,270000
2,592098	274,211576	153,075	0,039893	22,310000	52,270000
2,607122	286,024048	153,828	0,044878	22,310000	52,285000
2,622069	296,236300	154,578	0,049188	22,310000	52,285000
2,637126	306,433510	155,328	0,053491	22,310000	52,285000
2,652053	319,993150	156,079	0,059213	22,300000	52,295000
2,667108	331,029232	156,830	0,063870	22,300000	52,295000
2,682127	339,799782	157,581	0,067571	22,300000	52,295000
2,697088	351,917719	158,335	0,072685	22,300000	52,295000
2,712087	364,254341	159,087	0,077891	22,300000	52,295000
2,727115	372,633803	159,838	0,081427	22,300000	52,270000
2,742081	385,778057	160,591	0,086974	22,300000	52,270000
2,757127	394,484967	161,344	0,090648	22,300000	52,270000
2,772126	405,356746	162,095	0,095236	22,310000	52,285000
2,787052	417,952551	162,847	0,100552	22,310000	52,285000
2,802077	426,841121	163,599	0,104303	22,310000	52,285000
2,817117	438,974100	164,349	0,109423	22,300000	52,285000
2,832063	450,573673	165,101	0,114318	22,300000	52,285000
2,838063	453,929160	165,851	0,115734	22,290000	52,280000
2,838022	452,901687	166,603	0,115300	22,290000	52,280000
2,838036	452,627462	167,353	0,115185	22,290000	52,280000
2,838079	451,883470	168,105	0,114871	22,300000	52,270000
2,838106	452,266458	168,858	0,115032	22,300000	52,270000
2,838148	451,295681	169,610	0,114623	22,300000	52,270000
2,838116	451,287581	170,362	0,114619	22,300000	52,270000
2,838149	451,185760	171,115	0,114576	22,300000	52,270000
2,838062	450,535489	171,865	0,114302	22,300000	52,270000
2,838124	450,370029	172,615	0,114232	22,300000	52,270000
2,838101	450,284406	173,366	0,114196	22,300000	52,270000
2,838019	450,245066	174,118	0,114179	22,300000	52,270000
2,838053	449,665377	174,868	0,113935	22,300000	52,270000
2,835052	448,073256	175,619	0,113263	22,300000	52,270000
2,820094	435,314305	176,370	0,107878	22,300000	52,295000
2,805109	425,986050	177,123	0,103942	22,300000	52,295000
2,790079	414,330939	177,873	0,099023	22,300000	52,295000
2,775083	400,411452	178,624	0,093149	22,300000	52,295000
2,760078	388,881304	179,376	0,088284	22,300000	52,295000
2,745030	379,977692	180,126	0,084526	22,300000	52,295000
2,730166	365,955226	180,877	0,078609	22,300000	52,295000
2,715077	354,582439	181,627	0,073810	22,300000	52,295000
2,700076	344,362087	182,378	0,069497	22,290000	52,290000
2,685113	334,462243	183,130	0,065319	22,290000	52,290000
2,670100	322,940194	183,882	0,060457	22,290000	52,290000
2,682060	331,327755	184,519	0,063996	22,290000	52,290000
2,697050	340,960317	185,270	0,068061	22,290000	52,290000
2,712081	352,889653	186,021	0,073095	22,290000	52,265000
2,727133	365,799023	186,775	0,078543	22,290000	52,265000
2,742132	375,612087	187,525	0,082684	22,290000	52,265000
2,757106	388,897503	188,276	0,088291	22,290000	52,320000
2,772136	400,748158	189,027	0,093292	22,290000	52,320000
2,787085	410,153936	189,779	0,097261	22,300000	52,295000
2,802093	423,524974	190,529	0,102903	22,300000	52,295000
2,817092	432,303623	191,280	0,106608	22,300000	52,295000
2,832106	444,201718	192,031	0,111629	22,300000	52,310000
2,847027	454,297106	192,783	0,115889	22,300000	52,310000
2,862081	467,010932	193,534	0,121254	22,300000	52,310000
2,877018	478,915969	194,286	0,126278	22,300000	52,310000
2,892075	489,301781	195,037	0,130661	22,300000	52,310000
2,907036	498,400937	195,788	0,134501	22,310000	52,295000
2,922097	512,227858	196,539	0,140336	22,310000	52,295000
2,937079	522,659953	197,291	0,144738	22,310000	52,295000
2,952060	533,860338	198,041	0,149465	22,310000	52,295000
2,967081	542,560306	198,794	0,153136	22,310000	52,295000
2,982044	555,031148	199,545	0,158399	22,310000	52,295000
2,997123	564,538748	200,295	0,162411	22,300000	52,270000
3,006063	572,744650	201,045	0,165874	22,300000	52,270000
3,006058	572,055039	201,795	0,165583	22,300000	52,270000
3,006070	571,560973	202,548	0,165375	22,300000	52,270000
3,006088	570,973184	203,298	0,165126	22,300000	52,270000
3,006074	570,761441	204,049	0,165037	22,300000	52,310000
3,006105	570,228034	204,799	0,164812	22,300000	52,310000
3,006011	570,088029	205,549	0,164753	22,300000	52,310000
3,006067	569,735125	206,301	0,164604	22,300000	52,310000
3,006076	569,633303	207,055	0,164561	22,300000	52,310000
3,006069	569,287341	207,807	0,164415	22,310000	52,285000
3,006045	569,193619	208,558	0,164375	22,310000	52,285000
3,006083	569,272299	209,311	0,164409	22,310000	52,285000
3,006092	568,598887	210,063	0,164125	22,310000	52,285000
3,006042	568,582688	210,813	0,164118	22,310000	52,285000
2,991077	558,196877	211,564	0,159735	22,310000	52,285000
2,976087	544,669635	212,317	0,154026	22,300000	52,295000
2,961106	533,068906	213,068	0,149131	22,300000	52,295000
2,946063	521,852322	213,820	0,144397	22,300000	52,295000
2,931043	512,329680	214,570	0,140379	22,300000	52,295000
2,916065	500,063639	215,322	0,135203	22,300000	52,295000
2,901103	486,652103	216,073	0,129543	22,300000	52,285000
2,886078	477,513607	216,825	0,125687	22,300000	52,285000
2,871092	466,359505	217,575	0,120979	22,300000	52,285000
2,856044	452,494400	218,326	0,115128	22,300000	52,295000
2,841058	442,947460	219,078	0,111100	22,300000	52,295000
2,826082	430,023049	219,833	0,105646	22,290000	52,305000
2,811114	421,479284	220,587	0,102040	22,290000	52,305000
2,796034	409,190101	221,339	0,096854	22,290000	52,305000
2,808037	418,031231	221,989	0,100585	22,290000	52,320000
2,823118	427,616354	222,742	0,104630	22,290000	52,320000
2,838085	439,404528	223,493	0,109604	22,290000	52,320000
2,853104	453,591297	224,247	0,115591	22,300000	52,325000
2,868098	463,067656	224,997	0,119590	22,300000	52,325000
2,883031	474,261099	225,747	0,124314	22,300000	52,325000
2,898058	486,041173	226,498	0,129285	22,300000	52,325000
2,913059	499,608912	227,249	0,135011	22,300000	52,325000
2,928051	508,481283	228,001	0,138755	22,300000	52,295000
2,943104	520,998408	228,753	0,144037	22,300000	52,295000
2,958044	532,316814	229,505	0,148813	22,300000	52,295000
2,973160	542,364762	230,256	0,153054	22,300000	52,295000
2,988122	556,010025	231,007	0,158812	22,300000	52,295000
3,003107	565,274641	231,758	0,162722	22,310000	52,295000
3,018085	578,732459	232,511	0,168401	22,310000	52,295000
3,033048	587,323663	233,262	0,172026	22,310000	52,295000
3,048057	601,047606	234,015	0,177818	22,300000	52,295000
3,063091	609,512691	234,767	0,181390	22,300000	52,295000
3,078020	622,954310	235,519	0,187062	22,300000	52,295000
3,093078	633,904769	236,271	0,191684	22,300000	52,325000
3,108006	642,447377	237,024	0,195289	22,300000	52,325000
3,123056	653,475359	237,775	0,199942	22,300000	52,325000
3,138081	665,435936	238,527	0,204990	22,300000	52,325000
3,153007	675,304539	239,277	0,209154	22,300000	52,325000
3,168017	687,742984	240,027	0,214403	22,310000	52,285000
3,174006	692,838696	240,779	0,216554	22,310000	52,285000
3,174075	692,140986	241,530	0,216259	22,310000	52,285000
3,174035	691,536998	242,284	0,216004	22,310000	52,285000
3,174021	691,372695	243,037	0,215935	22,310000	52,285000
3,174035	691,177151	243,788	0,215853	22,300000	52,295000
3,174019	690,768707	244,540	0,215680	22,300000	52,295000
3,174022	690,573164	245,290	0,215598	22,300000	52,295000
3,174075	690,133479	246,041	0,215412	22,300000	52,295000
3,174019	689,977275	246,793	0,215346	22,300000	52,295000
3,174013	689,749334	247,544	0,215250	22,300000	52,295000
3,174045	689,412628	248,298	0,215108	22,300000	52,325000
3,173970	689,366345	249,048	0,215088	22,300000	52,325000
3,174055	688,934760	249,800	0,214906	22,300000	52,295000
3,171048	686,309381	250,553	0,213798	22,300000	52,295000
3,156041	677,067906	251,305	0,209898	22,300000	52,295000
3,141005	663,092880	252,058	0,204001	22,300000	52,295000
3,126046	653,420977	252,810	0,199919	22,300000	52,295000
3,111064	640,550948	253,561	0,194488	22,300000	52,295000
3,096094	629,531065	254,311	0,189838	22,310000	52,270000
3,081117	618,494983	255,062	0,185181	22,310000	52,270000
3,066025	606,769291	255,813	0,180232	22,300000	52,310000
3,051040	593,029149	256,563	0,174434	22,300000	52,310000
3,036023	582,221009	257,315	0,169873	22,300000	52,310000
3,021089	572,799032	258,066	0,165897	22,300000	52,310000
3,006065	560,846555	258,819	0,160853	22,300000	52,310000
2,991026	549,771133	259,571	0,156179	22,300000	52,310000
2,976094	538,601988	260,323	0,151466	22,300000	52,255000
2,961060	525,849980	261,074	0,146084	22,300000	52,255000
2,946095	515,974434	261,825	0,141917	22,290000	52,320000
2,931043	503,677151	262,575	0,136728	22,290000	52,320000
2,925121	495,838039	263,213	0,133419	22,290000	52,320000
2,940088	508,355163	263,965	0,138702	22,290000	52,320000
2,955072	520,363179	264,716	0,143769	22,290000	52,320000
2,970113	534,080180	265,468	0,149558	22,290000	52,320000
2,985040	543,955726	266,220	0,153725	22,310000	52,295000
3,000118	556,535332	266,970	0,159034	22,310000	52,295000
3,015153	567,226609	267,723	0,163545	22,300000	52,270000
3,030081	579,187185	268,473	0,168593	22,300000	52,270000
3,045080	589,965242	269,226	0,173141	22,300000	52,270000
3,060126	601,533573	269,979	0,178023	22,310000	52,325000
3,075062	614,661628	270,730	0,183563	22,310000	52,325000
3,090045	624,239809	271,483	0,187605	22,310000	52,325000
3,105092	635,338372	272,233	0,192289	22,300000	52,285000
3,120052	647,158944	272,985	0,197277	22,300000	52,285000
3,135037	658,241308	273,736	0,201954	22,300000	52,255000
3,150010	670,390486	274,486	0,207081	22,300000	52,255000
3,165029	681,018124	275,238	0,211565	22,300000	52,255000
3,180089	693,206642	275,989	0,216709	22,300000	52,295000
3,195009	703,090288	276,740	0,220880	22,300000	52,295000
3,210022	717,096555	277,492	0,226791	22,300000	52,295000
3,225082	725,765283	278,243	0,230449	22,300000	52,270000
3,240051	736,801364	278,994	0,235106	22,300000	52,270000
3,255016	750,274224	279,746	0,240792	22,300000	52,310000
3,270053	758,865429	280,497	0,244417	22,300000	52,310000
3,285030	772,307048	281,247	0,250089	22,300000	52,310000
3,300012	783,249408	281,999	0,254707	22,300000	52,295000
3,315040	791,729534	282,751	0,258286	22,300000	52,295000
3,330039	805,524058	283,501	0,264107	22,300000	52,295000
3,342033	814,663711	284,252	0,267964	22,300000	52,295000
3,341957	813,284490	285,003	0,267382	22,300000	52,295000
3,342039	812,884145	285,755	0,267213	22,300000	52,295000
3,341985	812,320655	286,506	0,266975	22,300000	52,295000
3,342058	812,132053	287,258	0,266896	22,300000	52,295000
3,341996	811,771049	288,008	0,266743	22,290000	52,280000
3,342007	811,560464	288,760	0,266654	22,290000	52,280000
3,342056	810,909036	289,511	0,266379	22,290000	52,280000
3,342050	810,767874	290,262	0,266320	22,300000	52,310000
3,342028	810,501749	291,014	0,266208	22,300000	52,310000
3,341972	810,015782	291,765	0,266002	22,300000	52,325000
3,342008	810,298106	292,517	0,266122	22,300000	52,325000
3,341992	810,007683	293,269	0,265999	22,300000	52,325000
3,341972	809,710317	294,020	0,265874	22,300000	52,325000
3,330096	799,990975	294,771	0,261772	22,300000	52,325000
3,314998	787,943619	295,522	0,256688	22,300000	52,325000
3,300012	777,989392	296,278	0,252487	22,300000	52,295000
3,285013	764,720176	297,029	0,246888	22,300000	52,295000
3,270052	754,882812	297,780	0,242736	22,300000	52,310000
3,255004	741,386811	298,531	0,237041	22,300000	52,310000
3,240056	731,754249	299,283	0,232976	22,300000	52,310000
3,225084	719,173486	300,033	0,227667	22,300000	52,325000
3,210048	708,945035	300,787	0,223351	22,300000	52,325000
3,195027	694,938768	301,540	0,217440	22,300000	52,325000
3,180049	684,529815	302,291	0,213047	22,300000	52,325000
3,165034	672,623621	303,041	0,208023	22,300000	52,325000
3,150033	662,505091	303,792	0,203753	22,310000	52,310000
3,135064	651,939934	304,545	0,199294	22,310000	52,310000
3,120067	637,909369	305,296	0,193374	22,310000	52,310000
3,105064	627,163711	306,047	0,188839	22,300000	52,325000
3,090106	615,453060	306,798	0,183897	22,300000	52,325000
3,075079	605,186426	307,550	0,179564	22,300000	52,325000
3,060076	595,741308	308,304	0,175579	22,300000	52,310000
3,048071	584,204217	309,055	0,170710	22,300000	52,310000
3,063104	596,798865	309,698	0,176025	22,300000	52,310000
3,078058	607,286498	310,449	0,180451	22,310000	52,285000
3,093042	618,534323	311,200	0,185197	22,310000	52,285000
3,108118	632,320748	311,950	0,191015	22,290000	52,305000
3,123045	641,915127	312,700	0,195064	22,290000	52,305000
3,138099	656,226859	313,453	0,201104	22,290000	52,305000
3,153046	666,542089	314,204	0,205457	22,310000	52,310000
3,167997	676,785582	314,955	0,209779	22,310000	52,310000
3,183070	689,514449	315,705	0,215151	22,310000	52,310000
3,198032	699,617937	316,456	0,219415	22,310000	52,310000
3,213076	711,351729	317,207	0,224366	22,310000	52,310000
3,228067	725,028232	317,958	0,230138	22,300000	52,310000
3,243081	733,728201	318,710	0,233809	22,300000	52,310000
3,258081	745,187768	319,462	0,238645	22,300000	52,310000
3,273018	758,936010	320,213	0,244447	22,300000	52,310000
3,288028	770,175735	320,964	0,249190	22,300000	52,310000
3,303015	781,469842	321,715	0,253956	22,300000	52,285000
3,317998	790,467176	322,466	0,257753	22,300000	52,285000
3,333004	803,565147	323,217	0,263280	22,300000	52,285000
3,348039	815,251500	323,970	0,268212	22,300000	52,285000
3,363026	824,437435	324,720	0,272088	22,300000	52,285000
3,378013	836,759016	325,473	0,277288	22,300000	52,285000
3,392981	846,462159	326,224	0,281383	22,310000	52,285000
3,408032	857,843047	326,975	0,286186	22,310000	52,285000
3,423015	870,266449	327,726	0,291428	22,310000	52,285000
3,438041	881,278232	328,477	0,296075	22,310000	52,285000
3,453055	893,584771	329,228	0,301269	22,310000	52,285000
3,467995	904,479691	329,978	0,305866	22,300000	52,310000
3,482967	913,296523	330,729	0,309587	22,300000	52,310000
3,497983	927,123445	331,480	0,315422	22,300000	52,310000
3,509928	935,384886	332,231	0,318908	22,290000	52,345000
3,510002	934,772799	332,983	0,318650	22,290000	52,345000
3,509978	933,989466	333,736	0,318319	22,290000	52,345000
3,509976	933,832105	334,487	0,318253	22,290000	52,345000
3,509940	933,338039	335,239	0,318044	22,290000	52,345000
3,510038	933,025631	335,989	0,317913	22,300000	52,325000
3,509977	932,750250	336,741	0,317796	22,300000	52,325000
3,510019	932,609088	337,495	0,317737	22,300000	52,325000
3,509969	931,998158	338,248	0,317479	22,300000	52,325000
3,510000	931,966917	338,998	0,317466	22,300000	52,325000
3,509965	931,809556	339,751	0,317399	22,290000	52,320000
3,510006	931,786415	340,504	0,317390	22,290000	52,320000
3,509981	931,167386	341,256	0,317128	22,290000	52,320000
3,509978	931,425411	342,008	0,317237	22,290000	52,320000
3,497954	921,393661	342,761	0,313004	22,290000	52,320000
3,482944	911,564398	343,511	0,308856	22,290000	52,320000
3,467979	897,965418	344,262	0,303117	22,300000	52,285000
3,453018	886,129804	345,014	0,298123	22,300000	52,285000
3,437976	874,600813	345,765	0,293257	22,300000	52,285000
3,423002	862,858921	346,516	0,288302	22,300000	52,285000
3,408039	853,187019	347,268	0,284221	22,300000	52,285000
3,393002	839,604238	348,018	0,278489	22,300000	52,295000
3,378040	829,328347	348,769	0,274152	22,300000	52,295000
3,363007	818,676411	349,521	0,269657	22,300000	52,295000
3,347989	807,249241	350,271	0,264835	22,310000	52,295000
3,333003	793,492900	351,021	0,259030	22,310000	52,295000
3,317991	784,526807	351,771	0,255246	22,300000	52,325000
3,302989	772,252666	352,523	0,250066	22,300000	52,325000
3,288001	761,373945	353,275	0,245476	22,300000	52,325000
3,272980	750,196701	354,026	0,240759	22,300000	52,325000
3,258019	736,605820	354,776	0,235023	22,300000	52,325000
3,243047	727,521707	355,527	0,231190	22,300000	52,325000
3,228093	713,702884	356,281	0,225358	22,300000	52,285000
3,213072	702,494400	357,033	0,220628	22,300000	52,285000
3,198023	693,512108	357,786	0,216838	22,300000	52,325000
3,183046	681,880137	358,538	0,211929	22,300000	52,325000
3,177088	673,784157	359,214	0,208513	22,300000	52,325000
3,192036	688,440693	359,966	0,214698	22,290000	52,280000
3,207001	700,706735	360,717	0,219874	22,290000	52,280000
3,222065	712,519207	361,468	0,224859	22,290000	52,280000
3,237001	722,496575	362,219	0,229069	22,300000	52,285000
3,252031	736,197377	362,970	0,234851	22,300000	52,285000
3,267086	745,320831	363,722	0,238701	22,300000	52,310000
3,282029	757,900437	364,474	0,244010	22,300000	52,310000
3,297058	768,450552	365,226	0,248462	22,300000	52,310000
3,311993	780,552290	365,977	0,253569	22,310000	52,310000
3,327048	793,877046	366,728	0,259192	22,310000	52,310000
3,342025	803,164803	367,478	0,263111	22,310000	52,310000
3,357023	816,655019	368,228	0,268804	22,310000	52,310000
3,372011	825,903436	368,981	0,272707	22,310000	52,310000
3,386973	837,754091	369,734	0,277708	22,290000	52,305000
3,402005	851,259349	370,485	0,283407	22,290000	52,305000
3,417048	859,645753	371,237	0,286946	22,290000	52,305000
3,431953	873,770040	371,989	0,292907	22,290000	52,305000
3,447057	884,264616	372,739	0,297335	22,290000	52,305000
3,461951	894,266282	373,493	0,301556	22,290000	52,305000
3,477040	905,404186	374,245	0,306256	22,300000	52,310000
3,491990	916,525890	374,996	0,310950	22,300000	52,310000
3,506948	929,277899	375,747	0,316331	22,290000	52,265000
3,521909	939,302707	376,500	0,320562	22,290000	52,265000
3,536976	951,115179	377,251	0,325546	22,290000	52,265000
3,551942	963,937768	378,002	0,330958	22,300000	52,285000
3,566913	972,786998	378,753	0,334692	22,300000	52,285000
3,581970	985,633886	379,505	0,340113	22,300000	52,285000
3,597012	995,062805	380,258	0,344092	22,290000	52,330000
3,611970	1006,842880	381,009	0,349063	22,290000	52,330000
3,626991	1017,557298	381,759	0,353585	22,310000	52,310000
3,642013	1028,875703	382,510	0,358361	22,310000	52,310000
3,657012	1039,848147	383,261	0,362992	22,310000	52,310000
3,671904	1050,877286	384,013	0,367646	22,290000	52,280000
3,677931	1057,257340	384,763	0,370338	22,290000	52,280000
3,677942	1056,638311	385,515	0,370077	22,290000	52,280000
3,677931	1056,323589	386,266	0,369944	22,290000	52,280000
3,677930	1055,971842	387,017	0,369796	22,290000	52,280000
3,678001	1055,282231	387,769	0,369505	22,310000	52,270000
3,678023	1054,873787	388,520	0,369333	22,310000	52,270000
3,677906	1054,678243	389,270	0,369250	22,310000	52,270000
3,677961	1054,348480	390,024	0,369111	22,290000	52,280000
3,678029	1054,231617	390,776	0,369062	22,290000	52,280000
3,677945	1054,034916	391,527	0,368979	22,290000	52,280000
3,677938	1053,721351	392,278	0,368846	22,290000	52,280000
3,677960	1053,423985	393,031	0,368721	22,290000	52,280000
3,677949	1053,565147	393,781	0,368780	22,290000	52,280000
3,674963	1051,432677	394,534	0,367880	22,290000	52,280000
3,659959	1040,969342	395,287	0,363465	22,290000	52,280000
3,644984	1028,797023	396,038	0,358328	22,290000	52,280000
3,629936	1014,892578	396,789	0,352460	22,290000	52,280000
3,614961	1005,048273	397,539	0,348306	22,290000	52,280000
3,599942	991,316230	398,290	0,342511	22,310000	52,295000
3,584928	981,784332	399,041	0,338489	22,310000	52,295000
3,569911	968,248991	399,791	0,332777	22,310000	52,310000
3,554977	958,600230	400,544	0,328705	22,310000	52,310000
3,539963	946,482292	401,297	0,323591	22,310000	52,310000
3,524933	935,431169	402,048	0,318928	22,300000	52,310000
3,509945	921,298782	402,800	0,312964	22,300000	52,310000
3,494988	912,411369	403,552	0,309213	22,300000	52,310000
3,479965	900,874278	404,305	0,304345	22,310000	52,310000
3,464958	887,415303	405,055	0,298665	22,310000	52,310000
3,450035	878,073164	405,808	0,294723	22,300000	52,325000
3,435030	864,285582	406,559	0,288904	22,300000	52,325000
3,419972	855,138987	407,309	0,285044	22,300000	52,325000
3,404994	841,986634	408,061	0,279494	22,300000	52,325000
3,389951	831,436519	408,812	0,275042	22,300000	52,325000
3,375012	819,727025	409,562	0,270101	22,300000	52,325000
3,360044	810,204384	410,312	0,266082	22,300000	52,295000
3,344967	796,832189	411,065	0,260439	22,300000	52,295000
3,330004	784,919052	411,815	0,255412	22,300000	52,295000
3,315049	775,230950	412,566	0,251323	22,300000	52,295000
3,299966	762,533323	413,317	0,245965	22,300000	52,295000
3,284995	753,048865	414,068	0,241962	22,310000	52,310000
3,270035	740,101313	414,820	0,236499	22,310000	52,310000
3,254988	731,252083	415,572	0,232764	22,310000	52,310000
3,240013	718,961743	416,325	0,227578	22,300000	52,310000
3,224950	708,106163	417,077	0,222997	22,300000	52,310000
3,209980	697,634729	417,828	0,218578	22,300000	52,295000
3,195037	684,161869	418,579	0,212892	22,300000	52,295000
3,180057	675,061556	419,329	0,209052	22,300000	52,295000
3,165078	661,838622	420,079	0,203472	22,300000	52,270000
3,150012	650,661378	420,830	0,198755	22,300000	52,270000
3,134993	640,574089	421,582	0,194498	22,300000	52,270000
3,120070	628,449209	422,333	0,189381	22,300000	52,295000
3,105026	619,591880	423,083	0,185644	22,300000	52,295000
3,090107	606,134062	423,833	0,179964	22,310000	52,295000
3,075006	597,324172	424,583	0,176247	22,310000	52,295000
3,060043	584,344222	425,337	0,170769	22,310000	52,295000
3,045036	575,519291	426,088	0,167045	22,300000	52,310000
3,030088	564,177744	426,840	0,162259	22,300000	52,310000
3,015044	553,408944	427,591	0,157714	22,300000	52,310000
3,000085	539,918728	428,342	0,152021	22,300000	52,310000
2,985053	529,463492	429,094	0,147609	22,300000	52,310000
2,970061	520,300698	429,845	0,143743	22,300000	52,295000
2,955106	507,798615	430,595	0,138467	22,300000	52,295000
2,940084	495,611254	431,347	0,133324	22,300000	52,295000
2,925095	486,676401	432,099	0,129553	22,300000	52,295000
2,910098	475,083771	432,851	0,124661	22,300000	52,295000
2,895047	462,714751	433,603	0,119441	22,300000	52,295000
2,880057	453,889820	434,355	0,115717	22,300000	52,310000
2,865092	441,035989	435,105	0,110293	22,300000	52,310000
2,850118	431,770216	435,855	0,106383	22,300000	52,310000
2,835097	420,452968	436,609	0,101607	22,300000	52,310000
2,820054	410,506841	437,359	0,097410	22,300000	52,310000
2,805118	399,674402	438,109	0,092838	22,290000	52,290000
2,790103	388,889403	438,861	0,088287	22,290000	52,290000
2,775067	375,658370	439,612	0,082704	22,290000	52,290000
2,760047	364,669727	440,364	0,078066	22,300000	52,295000
2,745046	356,087780	441,116	0,074445	22,300000	52,295000
2,730095	343,734958	441,867	0,069232	22,310000	52,350000
2,715083	334,431002	442,618	0,065306	22,310000	52,350000
2,700103	322,697210	443,370	0,060354	22,310000	52,350000
2,685103	312,680502	444,120	0,056127	22,310000	52,350000
2,670104	301,879304	444,870	0,051569	22,310000	52,350000
2,655059	291,039923	445,621	0,046995	22,310000	52,350000
2,640068	280,105663	446,371	0,042380	22,300000	52,310000
2,625059	267,667219	447,124	0,037131	22,300000	52,310000
2,610135	256,223850	447,876	0,032302	22,300000	52,270000
2,595081	247,359579	448,627	0,028562	22,300000	52,270000
2,580084	234,990558	449,378	0,023342	22,300000	52,270000
2,565066	226,400511	450,128	0,019717	22,300000	52,310000
2,550096	214,392495	450,880	0,014649	22,300000	52,310000
2,535127	202,330097	451,633	0,009559	22,300000	52,310000
2,520140	193,520207	452,386	0,005841	22,310000	52,325000
2,505112	181,128045	453,138	0,000612	22,310000	52,325000
2,490178	170,397429	453,889	-0,003917	22,300000	52,310000
2,475146	160,137737	454,639	-0,008246	22,300000	52,310000
2,460068	150,943702	455,390	-0,012126	22,300000	52,310000
2,445116	139,641495	456,142	-0,016896	22,300000	52,310000
2,430106	130,322497	456,895	-0,020828	22,300000	52,310000
2,415057	116,887820	457,646	-0,026498	22,300000	52,310000
2,400112	107,968009	458,398	-0,030262	22,290000	52,290000
2,385073	96,148595	459,149	-0,035250	22,290000	52,290000
2,370126	88,216917	459,899	-0,038597	22,300000	52,310000
2,355132	77,924828	460,649	-0,042940	22,300000	52,310000
2,340112	67,351572	461,400	-0,047402	22,300000	52,310000
2,325123	54,553281	462,150	-0,052803	22,310000	52,325000
2,310098	46,001416	462,901	-0,056412	22,310000	52,325000
2,295136	34,103321	463,652	-0,061433	22,310000	52,325000
2,280053	25,372112	464,405	-0,065117	22,310000	52,335000
2,265137	12,572664	465,155	-0,070519	22,310000	52,335000
2,250110	4,546107	465,906	-0,073906	22,290000	52,320000
2,235112	-5,580522	466,658	-0,078179	22,290000	52,320000
2,220152	-17,925244	467,409	-0,083389	22,290000	52,320000
2,205161	-25,833781	468,161	-0,086726	22,290000	52,320000
2,190119	-37,723776	468,911	-0,091744	22,290000	52,320000
2,175077	-46,658629	469,662	-0,095514	22,290000	52,320000
2,160078	-56,362930	470,415	-0,099609	22,300000	52,310000
2,145063	-68,440370	471,165	-0,104706	22,300000	52,310000
2,130181	-76,028399	471,915	-0,107908	22,300000	52,310000
2,115085	-85,903945	472,665	-0,112076	22,300000	52,310000
2,100080	-98,209327	473,416	-0,117269	22,300000	52,310000
2,085128	-106,141005	474,166	-0,120616	22,290000	52,305000
2,070094	-115,970268	474,919	-0,124764	22,290000	52,305000
2,055117	-127,272475	475,669	-0,129533	22,290000	52,305000
2,040121	-135,729460	476,419	-0,133102	22,300000	52,335000
2,025143	-145,433760	477,171	-0,137197	22,300000	52,335000
2,010110	-155,583531	477,923	-0,141480	22,300000	52,285000
1,995105	-165,859421	478,677	-0,145817	22,300000	52,285000
1,980116	-176,605080	479,429	-0,150352	22,300000	52,285000
1,965130	-189,294607	480,180	-0,155707	22,300000	52,285000
1,950110	-197,155704	480,931	-0,159024	22,300000	52,285000
1,935079	-207,032407	481,681	-0,163192	22,300000	52,285000
1,920166	-217,377721	482,432	-0,167558	22,290000	52,345000
1,905148	-229,205235	483,183	-0,172549	22,290000	52,345000
1,890093	-240,185778	483,933	-0,177183	22,300000	52,270000
1,875179	-248,282916	484,685	-0,180600	22,300000	52,270000
1,860143	-259,804965	485,436	-0,185462	22,300000	52,270000
1,845127	-269,618030	486,189	-0,189603	22,310000	52,310000
1,830155	-277,879471	486,941	-0,193089	22,310000	52,310000
1,815147	-286,587539	487,694	-0,196764	22,310000	52,310000
1,800129	-298,438194	488,445	-0,201765	22,310000	52,310000
1,785230	-307,765292	489,196	-0,205701	22,310000	52,310000
1,770121	-316,880646	489,947	-0,209548	22,310000	52,285000
1,755190	-325,440610	490,700	-0,213160	22,310000	52,285000
1,740154	-334,038757	491,451	-0,216789	22,310000	52,285000
1,725131	-344,863096	492,201	-0,221356	22,300000	52,325000
1,710222	-354,252675	492,953	-0,225319	22,300000	52,325000
1,695127	-365,814064	493,706	-0,230198	22,300000	52,325000
1,680123	-375,587789	494,456	-0,234322	22,310000	52,310000
1,665151	-382,383229	495,206	-0,237190	22,310000	52,310000
1,650178	-394,563648	495,959	-0,242330	22,290000	52,320000
1,635140	-403,475359	496,712	-0,246091	22,290000	52,320000
1,620157	-410,144679	497,464	-0,248905	22,290000	52,320000
1,605142	-421,118280	498,215	-0,253536	22,300000	52,335000
1,590177	-431,292349	498,966	-0,257830	22,300000	52,335000
1,575162	-438,989142	499,718	-0,261078	22,300000	52,335000
1,560138	-449,672319	500,471	-0,265586	22,300000	52,335000
1,545213	-456,875046	501,222	-0,268625	22,300000	52,335000
1,530161	-467,174078	501,974	-0,272972	22,300000	52,295000
1,515149	-476,274391	502,725	-0,276812	22,300000	52,295000
1,500120	-485,373547	503,475	-0,280652	22,300000	52,295000
1,485149	-493,078440	504,226	-0,283903	22,300000	52,325000
1,470173	-499,693378	504,978	-0,286695	22,300000	52,325000
1,455194	-508,448886	505,730	-0,290390	22,300000	52,325000
1,440126	-519,979034	506,482	-0,295255	22,300000	52,325000
1,425204	-529,031907	507,235	-0,299076	22,300000	52,325000
1,410174	-538,335863	507,985	-0,303002	22,300000	52,310000
1,395149	-546,290682	508,737	-0,306359	22,300000	52,310000
1,380144	-551,237133	509,489	-0,308446	22,300000	52,310000
1,365199	-561,370705	510,241	-0,312723	22,290000	52,280000
1,350150	-567,625796	510,991	-0,315362	22,290000	52,280000
1,335154	-577,650604	511,744	-0,319593	22,310000	52,310000
1,320167	-584,304882	512,498	-0,322401	22,310000	52,310000
1,305168	-592,300198	513,248	-0,325775	22,310000	52,310000
1,290207	-600,607922	513,999	-0,329281	22,310000	52,310000
1,275148	-609,230367	514,749	-0,332919	22,310000	52,310000
1,260117	-615,704143	515,499	-0,335651	22,310000	52,310000
1,245200	-625,031241	516,252	-0,339587	22,300000	52,325000
1,230150	-632,265208	517,003	-0,342640	22,300000	52,325000
1,215198	-640,408629	517,755	-0,346077	22,300000	52,325000
1,200168	-644,250083	518,507	-0,347698	22,300000	52,325000
1,185126	-652,048699	519,258	-0,350989	22,300000	52,325000
1,170181	-656,304382	520,009	-0,352785	22,310000	52,310000
1,155162	-665,616438	520,759	-0,356714	22,310000	52,310000
1,140194	-670,459910	521,509	-0,358758	22,310000	52,310000
1,125180	-676,723101	522,261	-0,361401	22,300000	52,270000
1,110139	-684,380554	523,011	-0,364633	22,300000	52,270000
1,095140	-688,746159	523,761	-0,366475	22,300000	52,270000
[...]
3,354223	817,092389	285,770	0,269250	22,290000	52,435000
3,354244	816,191036	286,523	0,268870	22,290000	52,435000
3,354236	816,214177	287,273	0,268880	22,290000	52,435000
3,354281	815,995492	288,024	0,268788	22,290000	52,435000
3,354272	815,783749	288,775	0,268698	22,290000	52,435000
3,354268	815,438944	289,526	0,268553	22,300000	52,430000
3,354236	815,430845	290,278	0,268549	22,300000	52,430000
3,354278	814,905537	291,029	0,268328	22,300000	52,430000
3,354270	814,780574	291,780	0,268275	22,290000	52,435000
3,354274	814,513292	292,530	0,268162	22,290000	52,435000
3,354290	814,685695	293,281	0,268235	22,290000	52,435000
3,354278	814,403371	294,031	0,268116	22,290000	52,435000
3,342269	806,448552	294,781	0,264759	22,290000	52,435000
3,327224	792,363605	295,533	0,258815	22,310000	52,430000
3,312271	780,685352	296,285	0,253887	22,310000	52,430000
3,297264	768,967760	297,036	0,248942	22,310000	52,430000
3,282270	757,202727	297,787	0,243977	22,290000	52,410000
3,267350	748,330356	298,537	0,240233	22,290000	52,410000
3,252250	736,565323	299,289	0,235268	22,300000	52,415000
3,237302	722,700218	300,040	0,229417	22,300000	52,415000
3,222252	713,670487	300,791	0,225606	22,300000	52,415000
3,207237	702,430761	301,541	0,220863	22,300000	52,415000
3,192293	688,713761	302,291	0,215075	22,300000	52,415000
3,177304	676,981126	303,044	0,210124	22,300000	52,415000
3,162258	668,108755	303,795	0,206379	22,300000	52,415000
3,147299	656,985893	304,545	0,201686	22,300000	52,415000
3,132303	645,158379	305,298	0,196694	22,300000	52,415000
3,117272	633,002259	306,050	0,191564	22,300000	52,415000
3,102355	622,898771	306,802	0,187301	22,300000	52,415000
3,087300	611,737726	307,553	0,182591	22,300000	52,430000
3,072324	598,554132	308,305	0,177027	22,300000	52,430000
3,060339	589,242076	309,057	0,173098	22,300000	52,430000
3,075386	601,806641	309,712	0,178400	22,300000	52,430000
3,090352	613,007026	310,465	0,183126	22,300000	52,430000
3,105304	623,776983	311,215	0,187671	22,310000	52,415000
3,120377	636,819415	311,966	0,193175	22,310000	52,415000
3,135323	647,251509	312,718	0,197578	22,310000	52,415000
3,150338	658,514375	313,471	0,202331	22,300000	52,415000
3,165301	670,601072	314,223	0,207431	22,300000	52,415000
3,180329	683,893430	314,974	0,213041	22,300000	52,415000
3,195351	694,200561	315,725	0,217390	22,290000	52,435000
3,210280	707,024308	316,476	0,222802	22,290000	52,435000
3,225297	715,794857	317,229	0,226503	22,300000	52,440000
3,240299	727,206985	317,979	0,231319	22,300000	52,440000
3,255309	739,088881	318,730	0,236333	22,300000	52,440000
3,270325	750,241826	319,480	0,241040	22,300000	52,440000
3,285259	761,395929	320,233	0,245747	22,300000	52,440000
3,300361	772,909879	320,983	0,250605	22,300000	52,440000
3,315305	783,640495	321,733	0,255134	22,300000	52,415000
3,330296	796,023400	322,484	0,260359	22,300000	52,415000
3,345265	809,113272	323,235	0,265883	22,300000	52,415000
3,360334	818,189287	323,985	0,269713	22,300000	52,415000
3,375288	831,545283	324,737	0,275350	22,300000	52,415000
3,390262	840,159629	325,489	0,278985	22,290000	52,425000
3,405279	853,060899	326,240	0,284429	22,290000	52,425000
3,420351	862,788340	326,992	0,288534	22,290000	52,425000
3,435258	873,949385	327,743	0,293244	22,300000	52,430000
3,450272	886,419070	328,494	0,298506	22,300000	52,430000
3,465278	896,051633	329,245	0,302571	22,300000	52,430000
3,480197	907,213835	329,997	0,307282	22,300000	52,430000
3,495269	918,319341	330,748	0,311968	22,300000	52,430000
3,510216	929,662045	331,500	0,316755	22,290000	52,435000
3,522238	940,312824	332,251	0,321250	22,290000	52,435000
3,522241	940,266541	333,001	0,321230	22,290000	52,435000
3,522261	939,380230	333,752	0,320856	22,310000	52,440000
3,522282	938,721860	334,502	0,320578	22,310000	52,440000
3,522253	938,510117	335,254	0,320489	22,310000	52,440000
3,522200	938,470777	336,005	0,320472	22,310000	52,440000
3,522227	937,664303	336,756	0,320132	22,310000	52,440000
3,522215	937,703643	337,508	0,320148	22,310000	52,440000
3,522181	937,546283	338,259	0,320082	22,310000	52,440000
3,522219	937,342639	339,010	0,319996	22,310000	52,440000
3,522189	937,122797	339,761	0,319903	22,310000	52,415000
3,522189	936,942295	340,511	0,319827	22,310000	52,415000
3,522256	936,119622	341,261	0,319480	22,300000	52,430000
3,522188	936,503767	342,012	0,319642	22,300000	52,430000
3,510293	928,877555	342,762	0,316424	22,300000	52,430000
3,495194	914,628305	343,513	0,310411	22,300000	52,430000
3,480234	902,832031	344,264	0,305433	22,300000	52,430000
3,465221	893,606755	345,014	0,301540	22,300000	52,430000
3,450272	879,569248	345,766	0,295616	22,310000	52,405000
3,435227	867,639912	346,517	0,290582	22,310000	52,405000
3,420239	856,431428	347,267	0,285852	22,290000	52,410000
3,405214	846,955069	348,017	0,281853	22,290000	52,410000
3,390256	834,186861	348,768	0,276464	22,290000	52,410000
3,375262	823,652945	349,519	0,272019	22,300000	52,430000
3,360252	812,381979	350,272	0,267263	22,300000	52,430000
3,345240	798,618696	351,022	0,261455	22,300000	52,430000
3,330220	789,377222	351,773	0,257555	22,310000	52,405000
3,315287	776,836956	352,525	0,252263	22,310000	52,405000
3,300346	766,772808	353,277	0,248016	22,310000	52,440000
3,285260	755,611763	354,029	0,243306	22,310000	52,440000
3,270275	741,894763	354,780	0,237517	22,310000	52,440000
3,255291	732,301540	355,531	0,233469	22,310000	52,440000
3,240300	721,445960	356,283	0,228888	22,310000	52,440000
3,225273	709,680928	357,034	0,223923	22,310000	52,440000
3,210279	698,927170	357,786	0,219385	22,300000	52,415000
3,195323	685,203227	358,537	0,213593	22,300000	52,415000
3,189281	679,457244	359,182	0,211168	22,290000	52,410000
3,204336	691,309057	359,935	0,216170	22,290000	52,410000
3,219306	705,581448	360,685	0,222193	22,290000	52,410000
3,234304	717,558223	361,435	0,227247	22,300000	52,440000
3,249370	727,520549	362,185	0,231451	22,300000	52,440000
3,264296	738,720935	362,936	0,236178	22,300000	52,440000
3,279389	750,509108	363,687	0,241152	22,300000	52,440000
3,294270	762,351664	364,438	0,246150	22,300000	52,440000
3,309273	776,241067	365,190	0,252011	22,300000	52,430000
3,324319	785,175920	365,941	0,255782	22,300000	52,430000
3,339305	798,587456	366,692	0,261441	22,300000	52,430000
3,354277	810,571173	367,443	0,266499	22,290000	52,400000
3,369269	819,804549	368,196	0,270395	22,290000	52,400000
3,384268	833,332948	368,946	0,276104	22,290000	52,400000
3,399304	843,036091	369,697	0,280199	22,310000	52,415000
3,414296	855,960502	370,448	0,285653	22,310000	52,415000
3,429266	865,656704	371,199	0,289745	22,300000	52,415000
3,444252	877,546699	371,949	0,294762	22,300000	52,415000
3,459206	890,111263	372,700	0,300064	22,300000	52,415000
3,474300	900,684519	373,450	0,304526	22,300000	52,405000
3,489196	910,325181	374,200	0,308595	22,300000	52,405000
3,504192	923,673078	374,951	0,314228	22,300000	52,405000
3,519232	933,211919	375,703	0,318253	22,300000	52,405000
3,534239	945,306715	376,454	0,323357	22,300000	52,405000
3,549211	955,628888	377,205	0,327713	22,310000	52,440000
3,564148	967,024817	377,956	0,332522	22,310000	52,440000
3,579182	980,420153	378,707	0,338175	22,310000	52,440000
3,594135	989,512367	379,457	0,342012	22,310000	52,440000
3,609230	1000,845814	380,209	0,346794	22,310000	52,440000
3,624234	1014,021309	380,961	0,352354	22,310000	52,440000
3,639225	1023,481468	381,712	0,356347	22,300000	52,440000
3,654186	1036,289016	382,465	0,361751	22,300000	52,440000
3,669270	1045,287507	383,217	0,365549	22,300000	52,440000
3,684182	1056,487892	383,970	0,370275	22,300000	52,440000
3,690227	1063,055391	384,721	0,373047	22,300000	52,440000
3,690156	1062,263959	385,472	0,372713	22,300000	52,430000
3,690252	1061,621788	386,223	0,372442	22,300000	52,430000
3,690185	1061,378804	386,974	0,372339	22,300000	52,430000
3,690270	1061,158962	387,727	0,372247	22,300000	52,415000
3,690179	1060,986560	388,478	0,372174	22,300000	52,415000
3,690212	1060,539933	389,229	0,371985	22,300000	52,415000
3,690165	1060,195127	389,980	0,371840	22,300000	52,415000
3,690197	1060,085206	390,731	0,371793	22,300000	52,415000
3,690254	1059,850322	391,482	0,371694	22,300000	52,430000
3,690189	1059,481219	392,232	0,371539	22,300000	52,430000
3,690197	1059,419894	392,987	0,371513	22,300000	52,430000
3,690222	1059,717260	393,740	0,371638	22,310000	52,405000
3,687232	1059,333114	394,493	0,371476	22,310000	52,405000
3,672260	1046,886571	395,244	0,366224	22,310000	52,430000
3,657200	1032,668561	395,995	0,360224	22,310000	52,430000
3,642199	1023,269726	396,746	0,356257	22,310000	52,430000
3,627190	1009,828106	397,497	0,350585	22,300000	52,430000
3,612277	999,819498	398,247	0,346361	22,300000	52,430000
3,597237	988,313648	398,997	0,341506	22,300000	52,430000
3,582186	976,336872	399,749	0,336452	22,300000	52,415000
3,567220	961,703477	400,501	0,330276	22,300000	52,415000
3,552237	953,049791	401,252	0,326625	22,300000	52,415000
3,537293	941,543941	402,003	0,321769	22,300000	52,415000
3,522264	928,470268	402,754	0,316252	22,300000	52,415000
3,507238	916,063065	403,504	0,311016	22,300000	52,440000
3,492213	907,213835	404,255	0,307282	22,300000	52,440000
3,477295	893,050207	405,007	0,301305	22,300000	52,440000
3,462271	883,793691	405,758	0,297398	22,310000	52,405000
3,447241	870,853081	406,512	0,291938	22,310000	52,405000
3,432259	861,534082	407,263	0,288005	22,310000	52,405000
3,417193	850,278158	408,015	0,283255	22,310000	52,405000
3,402287	836,749759	408,765	0,277546	22,310000	52,405000
3,387284	826,733051	409,515	0,273319	22,300000	52,415000
3,372253	813,777399	410,265	0,267852	22,300000	52,415000
3,357298	804,685186	411,017	0,264015	22,300000	52,415000
3,342246	791,634655	411,769	0,258507	22,310000	52,440000
3,327296	779,549115	412,519	0,253407	22,310000	52,440000
3,312282	770,284499	413,271	0,249498	22,290000	52,425000
3,297245	759,820007	414,021	0,245082	22,290000	52,425000
3,282276	746,002342	414,772	0,239250	22,290000	52,425000
3,267323	734,856339	415,522	0,234547	22,300000	52,415000
3,252284	726,360014	416,273	0,230961	22,300000	52,415000
3,237230	712,393087	417,023	0,225067	22,300000	52,415000
3,222305	703,653779	417,774	0,221379	22,300000	52,415000
3,207367	691,018633	418,527	0,216047	22,300000	52,415000
3,192300	681,134988	419,279	0,211876	22,310000	52,405000
3,177302	669,879064	420,031	0,207126	22,310000	52,405000
3,162355	658,726118	420,783	0,202420	22,310000	52,405000
3,147321	645,393263	421,535	0,196793	22,310000	52,405000
3,132311	636,520892	422,285	0,193049	22,310000	52,405000
3,117355	623,612680	423,035	0,187602	22,310000	52,405000
3,102362	614,481126	423,786	0,183749	22,300000	52,415000
3,087356	603,389505	424,537	0,179068	22,300000	52,415000
3,072348	592,189120	425,289	0,174341	22,300000	52,415000
3,057325	580,911211	426,040	0,169582	22,300000	52,415000
3,042283	570,329856	426,790	0,165117	22,300000	52,415000
3,027324	557,852072	427,542	0,159851	22,300000	52,405000
3,012245	545,223869	428,293	0,154522	22,300000	52,405000
2,997316	536,579439	429,044	0,150874	22,300000	52,405000
2,982380	523,678169	429,794	0,145430	22,300000	52,405000
2,967393	512,382905	430,548	0,140663	22,300000	52,405000
2,952278	503,346231	431,301	0,136850	22,300000	52,405000
2,937372	493,140921	432,052	0,132543	22,300000	52,405000
2,922356	482,105996	432,805	0,127886	22,300000	52,405000
2,907347	470,858172	433,558	0,123140	22,310000	52,415000
2,892313	460,150696	434,310	0,118621	22,310000	52,415000
2,877297	449,224535	435,061	0,114010	22,310000	52,415000
2,862334	438,299532	435,812	0,109400	22,310000	52,415000
2,847300	424,645013	436,563	0,103638	22,310000	52,415000
2,832323	413,938694	437,314	0,099120	22,310000	52,440000
2,817333	403,114355	438,065	0,094552	22,310000	52,440000
2,802421	394,132063	438,817	0,090761	22,310000	52,440000
2,787358	383,010358	439,569	0,086068	22,300000	52,415000
2,772351	370,421495	440,319	0,080755	22,300000	52,415000
2,757375	361,855746	441,069	0,077141	22,300000	52,415000
2,742372	350,905287	441,819	0,072520	22,300000	52,415000
2,727339	338,238901	442,571	0,067174	22,300000	52,415000
2,712407	329,146688	443,323	0,063337	22,310000	52,480000
2,697416	318,565332	444,074	0,058872	22,310000	52,480000
2,682338	305,241734	444,824	0,053250	22,310000	52,480000
2,667305	294,268134	445,576	0,048619	22,300000	52,430000
2,652346	285,661887	446,327	0,044987	22,300000	52,430000
2,637309	275,041191	447,077	0,040505	22,300000	52,430000
2,622389	262,727710	447,828	0,035309	22,300000	52,390000
2,607354	250,743993	448,579	0,030251	22,300000	52,390000
2,592418	241,464335	449,331	0,026335	22,290000	52,435000
2,577366	231,744992	450,081	0,022234	22,290000	52,435000
2,562366	220,787591	450,832	0,017610	22,290000	52,435000
2,547374	210,738485	451,582	0,013369	22,300000	52,415000
2,532409	199,899104	452,334	0,008795	22,300000	52,415000
2,517365	189,043524	453,085	0,004214	22,300000	52,415000
2,502370	178,931937	453,836	-0,000053	22,300000	52,430000
2,487380	167,261784	454,588	-0,004978	22,300000	52,430000
2,472349	157,581781	455,339	-0,009063	22,310000	52,455000
2,457353	146,749343	456,090	-0,013634	22,310000	52,455000
2,442335	136,410971	456,841	-0,017997	22,310000	52,455000
2,427399	123,588381	457,594	-0,023408	22,310000	52,455000
2,412437	115,249417	458,345	-0,026927	22,310000	52,455000
2,397366	102,857255	459,096	-0,032157	22,310000	52,455000
2,382401	94,305391	459,850	-0,035766	22,310000	52,440000
2,367343	83,347989	460,600	-0,040390	22,310000	52,440000
2,352331	72,939037	461,351	-0,044782	22,310000	52,440000
2,337339	60,226368	462,102	-0,050147	22,310000	52,440000
2,322409	52,615197	462,852	-0,053359	22,310000	52,440000
2,307385	40,560899	463,603	-0,058446	22,300000	52,430000
2,292395	30,481709	464,355	-0,062699	22,300000	52,430000
2,277413	18,222610	465,108	-0,067873	22,300000	52,430000
2,262357	9,734384	465,859	-0,071455	22,310000	52,440000
2,247371	-2,807039	466,610	-0,076747	22,310000	52,440000
2,232329	-11,106663	467,360	-0,080250	22,300000	52,430000
2,217379	-20,458059	468,112	-0,084196	22,300000	52,430000
2,202368	-30,796431	468,862	-0,088559	22,300000	52,430000
2,187382	-40,805039	469,613	-0,092782	22,300000	52,415000
2,172330	-53,353405	470,364	-0,098078	22,300000	52,415000
2,157357	-61,662285	471,116	-0,101584	22,300000	52,415000
2,142457	-70,636478	471,867	-0,105371	22,300000	52,430000
2,127374	-80,496982	472,618	-0,109532	22,300000	52,430000
2,112391	-90,654852	473,370	-0,113819	22,300000	52,440000
2,097441	-103,477442	474,122	-0,119230	22,300000	52,440000
2,082337	-113,173643	474,873	-0,123322	22,300000	52,440000
2,067468	-121,614429	475,623	-0,126884	22,310000	52,430000
2,052423	-134,021632	476,374	-0,132120	22,310000	52,430000
2,037339	-141,977608	477,126	-0,135477	22,310000	52,430000
2,022366	-151,516449	477,877	-0,139502	22,310000	52,430000
2,007475	-162,097804	478,629	-0,143968	22,310000	52,430000
1,992414	-172,012691	479,380	-0,148152	22,290000	52,450000
1,977437	-183,221175	480,132	-0,152882	22,290000	52,450000
1,962453	-194,045514	480,885	-0,157450	22,290000	52,450000
1,947405	-202,525641	481,636	-0,161028	22,300000	52,415000
1,932402	-212,998232	482,388	-0,165448	22,300000	52,415000
1,917435	-221,557039	483,142	-0,169060	22,300000	52,415000
1,902408	-234,207226	483,892	-0,174398	22,310000	52,405000
1,887412	-242,531148	484,643	-0,177911	22,310000	52,405000
1,872432	-251,623362	485,394	-0,181748	22,290000	52,435000
1,857438	-262,117937	486,147	-0,186176	22,290000	52,435000
1,842387	-270,520540	486,898	-0,189722	22,290000	52,435000
1,827415	-279,957559	487,650	-0,193705	22,290000	52,435000
1,812396	-289,519541	488,401	-0,197740	22,290000	52,435000
1,797442	-301,151511	489,153	-0,202648	22,290000	52,435000
1,782371	-309,107487	489,904	-0,206006	22,310000	52,470000
1,767429	-319,029315	490,655	-0,210193	22,310000	52,470000
1,752487	-329,022882	491,406	-0,214410	22,300000	52,405000
1,737392	-340,278806	492,156	-0,219160	22,300000	52,405000
1,722467	-348,304206	492,907	-0,222547	22,300000	52,405000
1,707468	-357,749324	493,659	-0,226533	22,300000	52,440000
1,692439	-369,647419	494,411	-0,231554	22,300000	52,440000
1,677420	-379,483625	495,161	-0,235705	22,300000	52,440000
1,662380	-385,456393	495,912	-0,238225	22,310000	52,430000
1,647446	-397,244566	496,663	-0,243200	22,310000	52,430000
1,632411	-403,680160	497,414	-0,245916	22,310000	52,430000
1,617453	-414,402677	498,164	-0,250440	22,310000	52,430000
1,602439	-425,485041	498,915	-0,255117	22,310000	52,430000
1,587422	-433,432918	499,665	-0,258471	22,300000	52,455000
1,572435	-442,846795	500,417	-0,262444	22,300000	52,455000
1,557416	-451,318822	501,170	-0,266019	22,300000	52,455000
1,542452	-458,678910	501,920	-0,269125	22,290000	52,425000
1,527488	-469,526390	502,671	-0,273703	22,290000	52,425000
1,512431	-475,852062	503,422	-0,276372	22,290000	52,425000
1,497466	-484,528890	504,172	-0,280034	22,290000	52,425000
1,482459	-494,043432	504,922	-0,284049	22,290000	52,425000
1,467458	-504,813389	505,673	-0,288594	22,300000	52,390000
1,452479	-513,795681	506,423	-0,292384	22,300000	52,390000
1,437358	-521,367511	507,175	-0,295580	22,300000	52,390000
1,422431	-527,841288	507,928	-0,298312	22,290000	52,425000
1,407460	-535,106496	508,682	-0,301377	22,290000	52,425000
1,392429	-544,379212	509,435	-0,305291	22,300000	52,440000
1,377403	-552,452051	510,187	-0,308697	22,300000	52,440000
1,362449	-562,351896	510,937	-0,312875	22,300000	52,440000
1,347422	-570,698960	511,687	-0,316397	22,310000	52,455000
1,332440	-579,446368	512,438	-0,320089	22,310000	52,455000
1,317445	-590,827255	513,190	-0,324892	22,310000	52,455000
1,302461	-599,942610	513,941	-0,328738	22,310000	52,455000
1,287424	-607,114096	514,692	-0,331765	22,310000	52,455000
1,272434	-610,289081	515,444	-0,333104	22,310000	52,390000
1,257455	-614,725267	516,196	-0,334977	22,310000	52,390000
1,242455	-622,210317	516,947	-0,338135	22,310000	52,390000
1,227465	-631,106987	517,697	-0,341890	22,300000	52,415000
1,212441	-637,439601	518,448	-0,344562	22,300000	52,415000
1,197506	-645,959068	519,200	-0,348157	22,300000	52,415000
1,182451	-652,081096	519,952	-0,350741	22,300000	52,415000
1,167459	-661,572497	520,703	-0,354746	22,300000	52,415000
1,152426	-666,448367	521,455	-0,356804	22,300000	52,415000
1,137422	-675,351979	522,207	-0,360561	22,300000	52,415000
1,122478	-682,687768	522,960	-0,363657	22,300000	52,415000
1,107408	-683,973267	523,711	-0,364199	22,300000	52,440000
1,092432	-689,217084	524,461	-0,366412	22,300000	52,440000
1,077464	-695,557798	525,213	-0,369088	22,300000	52,440000
1,062442	-697,627786	525,963	-0,369961	22,300000	52,440000
1,047448	-705,269041	526,713	-0,373186	22,300000	52,440000
1,032465	-707,958059	527,464	-0,374321	22,300000	52,440000
1,017480	-708,310963	528,215	-0,374470	22,300000	52,440000
1,002434	-709,580263	528,965	-0,375005	22,300000	52,440000
0,987438	-713,945868	529,715	-0,376848	22,300000	52,430000
0,972416	-715,050865	530,466	-0,377314	22,300000	52,430000
0,957444	-717,386978	531,217	-0,378300	22,300000	52,430000
0,942487	-715,779815	531,969	-0,377622	22,300000	52,430000
0,927477	-717,120853	532,719	-0,378188	22,300000	52,430000
0,912428	-712,371103	533,471	-0,376183	22,300000	52,415000
0,897434	-706,178493	534,223	-0,373570	22,300000	52,415000
0,882462	-673,110745	534,973	-0,359615	22,300000	52,415000
0,867477	-0,329763	535,724	-0,075702	22,300000	52,440000
0,852422	-0,196701	536,477	-0,075646	22,300000	52,440000
0,837446	0,006942	537,229	-0,075560	22,290000	52,410000
0,822457	0,218685	537,980	-0,075470	22,290000	52,410000
0,807450	0,077523	538,731	-0,075530	22,290000	52,410000
0,792413	0,148104	539,481	-0,075500	22,300000	52,415000
0,777443	0,210586	540,232	-0,075474	22,300000	52,415000
0,762450	0,133062	540,983	-0,075506	22,300000	52,415000
0,747437	0,172403	541,735	-0,075490	22,290000	52,425000
0,732458	0,203643	542,488	-0,075477	22,290000	52,425000
0,717535	0,210586	543,238	-0,075474	22,290000	52,425000
0,702455	0,249926	543,989	-0,075457	22,290000	52,425000
0,687451	0,023141	544,739	-0,075553	22,290000	52,425000
0,678498	0,108764	545,189	-0,075517	22,290000	52,425000