File: Nanoindentation Datenauswertung/data/PDMS/13.09/APM-PDMS-150ms,3um,20nms,9cycles,1,5um offset,9x1-5
Quasi static measurement routine
Tip parameters (shape,radius, material...)
13.09.2022

Piezo position[nm]	MEMS displ.[nm]	Time[ms]	Cap [pf]	Temp [°C]	Rh [%]
eoh

X-Pos [um]	Y-Pos [um]
0,000153	0,001243

POC
2,179982
0,695071	-0,039340	1,808	-0,075460	22,320000	52,600000
0,713089	-0,101822	2,711	-0,075487	22,320000	52,600000
0,731156	-0,164303	3,613	-0,075513	22,320000	52,600000
0,749135	-0,133062	4,515	-0,075500	22,300000	52,575000
0,767108	0,470925	5,417	-0,075245	22,300000	52,575000
0,785140	-0,070581	6,319	-0,075474	22,300000	52,600000
0,803115	-0,101822	7,220	-0,075487	22,300000	52,600000
0,821107	-0,141162	8,122	-0,075503	22,300000	52,600000
0,839135	-0,101822	9,025	-0,075487	22,300000	52,600000
0,857116	-0,093722	9,928	-0,075483	22,300000	52,600000
0,875081	-0,141162	10,829	-0,075503	22,310000	52,535000
0,893081	-0,039340	11,729	-0,075460	22,310000	52,535000
0,911103	0,008099	12,631	-0,075440	22,310000	52,575000
0,929083	-0,077523	13,533	-0,075477	22,310000	52,575000
0,947085	-0,070581	14,436	-0,075474	22,300000	52,560000
0,965081	-0,015042	15,338	-0,075450	22,300000	52,560000
0,983112	-0,093722	16,239	-0,075483	22,300000	52,575000
1,001117	-0,015042	17,145	-0,075450	22,300000	52,575000
1,019099	-0,251083	18,049	-0,075550	22,300000	52,575000
1,037115	-0,203643	18,950	-0,075530	22,300000	52,575000
1,055091	0,078680	19,851	-0,075411	22,300000	52,575000
1,073114	-0,218685	20,753	-0,075536	22,300000	52,575000
1,091083	-0,062481	21,656	-0,075470	22,300000	52,575000
1,109069	0,024298	22,557	-0,075434	22,300000	52,600000
1,127135	-0,054382	23,459	-0,075467	22,300000	52,600000
1,145035	-0,062481	24,360	-0,075470	22,300000	52,600000
1,163063	0,094879	25,262	-0,075404	22,300000	52,600000
1,181095	-0,148104	26,163	-0,075506	22,300000	52,600000
1,199135	-0,031241	27,068	-0,075457	22,310000	52,560000
1,217085	-0,085623	27,969	-0,075480	22,310000	52,560000
1,235047	-0,164303	28,870	-0,075513	22,300000	52,600000
1,253113	-0,226785	29,771	-0,075540	22,300000	52,600000
1,271091	-0,046283	30,675	-0,075463	22,310000	52,575000
1,289069	-0,039340	31,576	-0,075460	22,310000	52,575000
1,307106	-0,141162	32,478	-0,075503	22,310000	52,575000
1,325065	-0,180502	33,379	-0,075520	22,310000	52,575000
1,343066	-0,148104	34,280	-0,075506	22,300000	52,600000
1,361121	-0,281167	35,183	-0,075563	22,300000	52,600000
1,379098	-0,423486	36,085	-0,075623	22,300000	52,600000
1,397075	-0,015042	36,988	-0,075450	22,300000	52,575000
1,415062	-0,141162	37,889	-0,075503	22,300000	52,575000
1,433111	-0,203643	38,789	-0,075530	22,300000	52,545000
1,451076	-0,180502	39,692	-0,075520	22,300000	52,545000
1,469110	-0,407287	40,595	-0,075616	22,300000	52,545000
1,487055	-0,211743	41,498	-0,075533	22,300000	52,545000
1,505112	-0,203643	42,398	-0,075530	22,310000	52,575000
1,523053	-0,062481	43,299	-0,075470	22,310000	52,575000
1,541062	-0,281167	44,199	-0,075563	22,310000	52,575000
1,559078	-0,054382	45,099	-0,075467	22,320000	52,560000
1,577046	-0,289266	46,001	-0,075566	22,320000	52,560000
1,595106	0,070581	46,902	-0,075414	22,300000	52,560000
1,613120	0,000000	47,805	-0,075444	22,300000	52,560000
1,631047	-0,234884	48,707	-0,075543	22,300000	52,585000
1,649086	-0,195544	49,607	-0,075526	22,300000	52,585000
1,667023	-0,101822	50,507	-0,075487	22,300000	52,585000
1,685068	-0,172403	51,409	-0,075517	22,300000	52,585000
1,703103	-0,328606	52,312	-0,075583	22,300000	52,575000
1,721084	-0,203643	53,213	-0,075530	22,300000	52,575000
1,739063	-6,999084	54,113	-0,078397	22,300000	52,575000
1,757081	-10,047949	55,013	-0,079684	22,300000	52,585000
1,775016	-14,782657	55,913	-0,081682	22,300000	52,585000
1,793073	-16,679086	56,816	-0,082482	22,310000	52,560000
1,811047	-222,621538	57,717	-0,169390	22,310000	52,560000
1,829065	-219,400270	58,618	-0,168031	22,310000	52,615000
1,847060	-210,598480	59,522	-0,164316	22,310000	52,615000
1,865043	-200,322590	60,423	-0,159980	22,310000	52,575000
1,883029	-188,025307	61,325	-0,154791	22,310000	52,575000
1,901029	-179,277899	62,227	-0,151099	22,300000	52,585000
1,919078	-167,199302	63,127	-0,146002	22,300000	52,585000
1,937071	-158,287591	64,030	-0,142241	22,300000	52,585000
1,955046	-147,103405	64,931	-0,137521	22,300000	52,585000
1,973018	-133,739309	65,832	-0,131882	22,300000	52,585000
1,991039	-122,232302	66,733	-0,127026	22,300000	52,600000
2,009106	-110,875713	67,634	-0,122233	22,300000	52,600000
2,027007	-99,557307	68,538	-0,117457	22,310000	52,575000
2,045010	-88,325681	69,440	-0,112717	22,310000	52,575000
2,063011	-76,490068	70,341	-0,107723	22,310000	52,560000
2,080981	-66,496501	71,241	-0,103505	22,310000	52,560000
2,099098	-53,869455	72,145	-0,098177	22,310000	52,560000
2,117012	-42,591547	73,047	-0,093417	22,310000	52,560000
2,135028	-30,849656	73,948	-0,088462	22,310000	52,560000
2,153038	-18,959660	74,848	-0,083445	22,310000	52,600000
2,171017	-4,506767	75,750	-0,077346	22,310000	52,600000
2,189043	7,250167	76,651	-0,072384	22,310000	52,600000
2,207026	16,765866	77,551	-0,068369	22,310000	52,600000
2,225028	28,836363	78,453	-0,063275	22,320000	52,600000
2,243102	40,562056	79,353	-0,058327	22,320000	52,600000
2,261013	54,043015	80,256	-0,052638	22,310000	52,560000
2,278956	66,701301	81,156	-0,047296	22,310000	52,560000
2,297041	77,070914	82,057	-0,042920	22,310000	52,560000
2,315015	91,492567	82,958	-0,036834	22,310000	52,575000
2,332973	101,188768	83,860	-0,032742	22,310000	52,575000
2,347994	113,392328	84,761	-0,027592	22,300000	52,585000
2,347957	111,660203	85,661	-0,028323	22,300000	52,585000
2,348031	110,813231	86,564	-0,028681	22,300000	52,585000
2,348021	110,210401	87,465	-0,028935	22,300000	52,585000
2,348082	109,394670	88,367	-0,029279	22,300000	52,560000
2,347995	109,120446	89,268	-0,029395	22,300000	52,560000
2,348045	108,422736	90,169	-0,029689	22,300000	52,560000
2,348061	107,952968	91,071	-0,029888	22,300000	52,560000
2,348060	107,600063	91,971	-0,030037	22,300000	52,560000
2,348032	107,043515	92,872	-0,030271	22,300000	52,575000
2,348030	106,777390	93,773	-0,030384	22,300000	52,575000
2,348017	106,322664	94,675	-0,030576	22,300000	52,575000
2,330041	94,651353	95,579	-0,035501	22,300000	52,575000
2,311989	78,403853	96,481	-0,042357	22,310000	52,625000
2,294026	64,852312	97,383	-0,048076	22,310000	52,625000
2,275996	52,819998	98,286	-0,053154	22,310000	52,625000
2,267014	45,413627	99,077	-0,056279	22,310000	52,625000
2,284994	58,447960	99,980	-0,050779	22,310000	52,625000
2,303095	73,394920	100,882	-0,044471	22,300000	52,560000
2,321096	86,688435	101,782	-0,038861	22,300000	52,560000
2,338962	99,487883	102,683	-0,033460	22,300000	52,585000
2,357099	111,330439	103,585	-0,028462	22,300000	52,585000
2,375034	126,316739	104,486	-0,022138	22,300000	52,575000
2,393021	136,812472	105,388	-0,017709	22,300000	52,575000
2,411054	151,986217	106,289	-0,011306	22,300000	52,575000
2,429015	162,380128	107,190	-0,006919	22,300000	52,575000
2,447065	174,857912	108,093	-0,001654	22,300000	52,575000
2,464970	189,530648	108,996	0,004538	22,310000	52,585000
2,483024	202,369437	109,897	0,009956	22,310000	52,585000
2,501004	212,386145	110,800	0,014183	22,310000	52,585000
2,516003	224,597804	111,700	0,019336	22,310000	52,585000
2,516045	223,764718	112,601	0,018985	22,300000	52,575000
2,516009	222,442193	113,502	0,018427	22,300000	52,575000
2,516016	221,885645	114,402	0,018192	22,310000	52,600000
2,516033	221,281657	115,304	0,017937	22,310000	52,600000
2,516035	220,819989	116,205	0,017742	22,310000	52,600000
2,516111	220,247242	117,106	0,017500	22,300000	52,585000
2,515996	220,074839	118,007	0,017428	22,300000	52,585000
2,515988	219,495150	118,909	0,017183	22,310000	52,585000
2,516012	219,235967	119,811	0,017074	22,310000	52,585000
2,516054	219,063564	120,713	0,017001	22,310000	52,585000
2,516017	218,797440	121,619	0,016889	22,310000	52,585000
2,498001	204,492650	122,522	0,010852	22,300000	52,615000
2,479987	190,322080	123,422	0,004872	22,300000	52,615000
2,462086	176,754341	124,323	-0,000854	22,310000	52,575000
2,444017	162,991058	125,224	-0,006662	22,310000	52,575000
2,426028	152,002416	126,126	-0,011299	22,310000	52,575000
2,407995	136,341547	127,027	-0,017908	22,310000	52,560000
2,390050	123,354654	127,928	-0,023388	22,310000	52,560000
2,372024	110,860671	128,828	-0,028661	22,300000	52,615000
2,354077	97,143670	129,730	-0,034449	22,300000	52,615000
2,357035	100,476016	130,510	-0,033043	22,300000	52,575000
2,375067	112,561556	131,412	-0,027943	22,300000	52,575000
2,393023	128,590371	132,312	-0,021179	22,310000	52,600000
2,411041	140,189944	133,213	-0,016284	22,310000	52,600000
2,428997	153,812065	134,113	-0,010535	22,310000	52,600000
2,446993	167,121779	135,015	-0,004918	22,310000	52,600000
2,465004	179,960567	135,918	0,000500	22,310000	52,600000
2,483037	195,628379	136,818	0,007111	22,300000	52,600000
2,501005	206,562639	137,720	0,011726	22,300000	52,600000
2,519018	221,697043	138,622	0,018112	22,310000	52,575000
2,537009	234,598313	139,523	0,023557	22,310000	52,575000
2,555098	246,801874	140,425	0,028707	22,300000	52,600000
2,573080	258,653686	141,328	0,033708	22,300000	52,600000
2,591012	273,804289	142,231	0,040102	22,300000	52,575000
2,608993	286,383896	143,135	0,045410	22,300000	52,575000
2,627038	299,301364	144,035	0,050861	22,300000	52,575000
2,645014	309,372454	144,939	0,055111	22,300000	52,575000
2,663036	323,646003	145,843	0,061135	22,300000	52,575000
2,680996	334,908870	146,745	0,065888	22,300000	52,585000
2,683996	337,957735	147,647	0,067174	22,300000	52,585000
2,684010	337,001999	148,549	0,066771	22,300000	52,585000
2,683978	336,790257	149,450	0,066682	22,300000	52,585000
2,683993	336,045107	150,351	0,066367	22,300000	52,585000
2,684066	335,504758	151,251	0,066139	22,300000	52,585000
2,683980	334,948210	152,153	0,065904	22,300000	52,585000
2,683975	334,580263	153,055	0,065749	22,310000	52,560000
2,683994	334,281741	153,957	0,065623	22,310000	52,560000
2,684009	334,399761	154,857	0,065673	22,310000	52,560000
2,684011	333,984375	155,757	0,065498	22,310000	52,560000
2,684038	333,334105	156,660	0,065223	22,300000	52,560000
2,672000	326,553706	157,561	0,062362	22,300000	52,560000
2,654046	312,140153	158,462	0,056279	22,300000	52,545000
2,636008	298,400011	159,363	0,050481	22,300000	52,545000
2,617966	284,581189	160,265	0,044649	22,300000	52,545000
2,600037	268,591714	161,166	0,037902	22,300000	52,545000
2,581961	256,655435	162,067	0,032865	22,300000	52,545000
2,563971	244,137154	162,969	0,027582	22,310000	52,575000
2,546090	229,887904	163,871	0,021569	22,310000	52,575000
2,528054	215,796014	164,771	0,015622	22,300000	52,600000
2,510059	204,070322	165,672	0,010674	22,300000	52,600000
2,492070	190,305882	166,573	0,004865	22,310000	52,600000
2,474026	178,023641	167,475	-0,000318	22,310000	52,600000
2,456046	164,997408	168,378	-0,005815	22,310000	52,600000
2,438026	149,134053	169,281	-0,012509	22,310000	52,600000
2,440995	153,138653	170,063	-0,010819	22,310000	52,600000
2,459025	165,319072	170,967	-0,005679	22,300000	52,585000
2,477076	179,693285	171,869	0,000387	22,300000	52,585000
2,495008	193,080522	172,770	0,006036	22,300000	52,585000
2,512962	209,368520	173,672	0,012910	22,300000	52,585000
2,530981	220,380304	174,573	0,017557	22,300000	52,585000
2,549003	236,189277	175,473	0,024228	22,300000	52,585000
2,567014	249,851896	176,373	0,029994	22,310000	52,585000
2,585082	260,761858	177,276	0,034598	22,310000	52,585000
2,603007	273,992891	178,177	0,040181	22,310000	52,585000
2,621018	287,309547	179,078	0,045801	22,310000	52,585000
2,638984	302,499491	179,979	0,052211	22,310000	52,585000
2,657006	313,471934	180,880	0,056841	22,300000	52,545000
2,674994	327,321997	181,783	0,062686	22,300000	52,545000
2,693010	339,697960	182,683	0,067909	22,300000	52,575000
2,710998	354,927244	183,586	0,074335	22,300000	52,575000
2,728959	368,063398	184,487	0,079879	22,300000	52,560000
2,747005	380,761025	185,389	0,085237	22,300000	52,560000
2,764997	393,795357	186,291	0,090738	22,310000	52,575000
2,782999	404,095546	187,193	0,095084	22,310000	52,575000
2,800987	417,043098	188,097	0,100548	22,310000	52,575000
2,819016	429,826348	188,999	0,105943	22,310000	52,575000
2,836987	445,088029	189,901	0,112383	22,310000	52,575000
2,852041	455,292182	190,804	0,116689	22,310000	52,575000
2,852017	454,720592	191,707	0,116448	22,310000	52,575000
2,851936	453,748658	192,609	0,116038	22,300000	52,600000
2,851930	453,615595	193,511	0,115982	22,300000	52,600000
2,851987	452,737383	194,412	0,115611	22,300000	52,600000
2,851961	452,721184	195,314	0,115604	22,300000	52,600000
2,851996	452,000333	196,217	0,115300	22,310000	52,575000
2,852018	451,584947	197,117	0,115125	22,310000	52,575000
2,851985	451,208901	198,018	0,114966	22,310000	52,575000
2,851941	450,997158	198,919	0,114877	22,310000	52,575000
2,851951	450,872195	199,820	0,114824	22,310000	52,575000
2,851976	450,887237	200,720	0,114831	22,300000	52,600000
2,834018	438,581855	201,620	0,109638	22,300000	52,600000
2,816011	424,270124	202,522	0,103598	22,300000	52,560000
2,797976	408,116345	203,423	0,096781	22,300000	52,560000
2,779956	394,407444	204,325	0,090996	22,300000	52,615000
2,761958	381,153269	205,225	0,085403	22,300000	52,615000
2,743995	369,232033	206,127	0,080372	22,300000	52,615000
2,725985	355,311389	207,030	0,074498	22,300000	52,615000
2,708042	342,418219	207,931	0,069057	22,300000	52,615000
2,690031	327,118354	208,833	0,062600	22,290000	52,580000
2,671968	315,658786	209,733	0,057764	22,290000	52,580000
2,654040	302,123445	210,637	0,052052	22,300000	52,575000
2,636025	286,572497	211,538	0,045490	22,300000	52,575000
2,617994	275,740059	212,438	0,040918	22,300000	52,600000
2,599997	262,259099	213,340	0,035229	22,300000	52,600000
2,582053	249,467750	214,240	0,029832	22,300000	52,585000
2,564003	235,162961	215,143	0,023795	22,300000	52,585000
2,546008	223,586530	216,047	0,018910	22,300000	52,585000
2,528055	208,066823	216,947	0,012360	22,320000	52,575000
2,519029	199,719759	217,728	0,008838	22,320000	52,575000
2,537048	217,175235	218,630	0,016204	22,300000	52,585000
2,555000	228,822247	219,532	0,021119	22,300000	52,585000
2,572998	242,946534	220,434	0,027080	22,300000	52,585000
2,590983	258,136478	221,338	0,033490	22,300000	52,585000
2,608975	270,747325	222,241	0,038812	22,290000	52,580000
2,627027	284,456226	223,141	0,044597	22,290000	52,580000
2,644967	300,179576	224,045	0,051232	22,290000	52,580000
2,663017	311,222601	224,946	0,055892	22,310000	52,585000
2,680994	324,790340	225,849	0,061618	22,310000	52,585000
2,698968	338,169478	226,752	0,067264	22,300000	52,575000
2,716964	351,760358	227,654	0,072999	22,300000	52,575000
2,735018	364,787748	228,555	0,078497	22,300000	52,575000
2,752968	378,370529	229,457	0,084229	22,300000	52,575000
2,770969	390,950135	230,361	0,089537	22,310000	52,575000
2,788986	406,658444	231,262	0,096166	22,310000	52,575000
2,806988	419,739059	232,163	0,101686	22,310000	52,575000
2,824996	430,799439	233,063	0,106354	22,300000	52,600000
2,842962	446,294848	233,963	0,112893	22,300000	52,600000
2,860950	459,094296	234,864	0,118294	22,310000	52,600000
2,878944	471,979367	235,766	0,123731	22,310000	52,600000
2,897027	483,681918	236,669	0,128670	22,300000	52,625000
2,915022	497,876787	237,571	0,134660	22,300000	52,625000
2,933014	509,883646	238,473	0,139727	22,300000	52,625000
2,951060	525,050448	239,375	0,146127	22,300000	52,625000
2,968977	535,646845	240,277	0,150599	22,310000	52,575000
2,986994	548,705476	241,179	0,156110	22,310000	52,575000
3,004966	563,566814	242,081	0,162381	22,310000	52,575000
3,019991	574,704717	242,981	0,167082	22,300000	52,585000
3,020003	573,818406	243,883	0,166708	22,300000	52,585000
3,020002	573,371779	244,783	0,166519	22,310000	52,575000
3,019920	572,634729	245,725	0,166208	22,310000	52,575000
3,019979	572,329264	246,625	0,166079	22,310000	52,575000
3,019979	571,984458	247,525	0,165934	22,310000	52,575000
3,019934	571,733375	248,425	0,165828	22,310000	52,575000
3,019989	571,309890	249,325	0,165649	22,310000	52,575000
3,019991	571,199969	250,227	0,165603	22,300000	52,585000
3,019929	570,464075	251,128	0,165292	22,300000	52,585000
3,019971	570,605237	252,028	0,165352	22,300000	52,585000
3,019971	570,329856	252,929	0,165235	22,300000	52,600000
3,001981	558,244316	253,831	0,160135	22,300000	52,600000
2,983925	544,323673	254,733	0,154261	22,300000	52,600000
2,966014	529,933261	255,634	0,148188	22,300000	52,600000
2,947951	514,069905	256,534	0,141494	22,300000	52,560000
2,929970	500,697710	257,435	0,135851	22,300000	52,560000
2,911972	488,290507	258,337	0,130615	22,300000	52,560000
2,893923	473,868854	259,237	0,124529	22,300000	52,560000
2,875933	460,888903	260,139	0,119051	22,300000	52,560000
2,858059	445,337955	261,042	0,112489	22,300000	52,585000
2,839937	434,546014	261,944	0,107935	22,300000	52,585000
2,821988	420,845213	262,845	0,102153	22,310000	52,585000
2,803997	404,800198	263,747	0,095382	22,310000	52,585000
2,785932	393,654195	264,649	0,090678	22,300000	52,585000
2,767963	380,008933	265,550	0,084920	22,300000	52,585000
2,750008	366,943359	266,451	0,079406	22,300000	52,585000
2,731974	351,439851	267,353	0,072864	22,300000	52,585000
2,713993	338,075755	268,253	0,067224	22,310000	52,600000
2,695994	327,188935	269,156	0,062630	22,310000	52,600000
2,677992	311,450542	270,059	0,055988	22,310000	52,600000
2,660032	301,095972	270,961	0,051619	22,310000	52,625000
2,642006	288,053540	271,862	0,046115	22,310000	52,625000
2,624000	274,925485	272,763	0,040575	22,290000	52,595000
2,606031	259,617521	273,665	0,034115	22,290000	52,595000
2,609027	261,428327	274,448	0,034879	22,290000	52,595000
2,627000	277,660786	275,349	0,041729	22,290000	52,595000
2,644991	289,706985	276,250	0,046812	22,320000	52,585000
2,663014	303,909953	277,150	0,052806	22,320000	52,585000
2,681050	317,799356	278,051	0,058667	22,320000	52,585000
2,699039	333,608329	278,954	0,065339	22,310000	52,575000
2,716977	344,792515	279,855	0,070059	22,310000	52,575000
2,735035	360,844472	280,757	0,076833	22,300000	52,625000
2,752940	372,390819	281,659	0,081705	22,300000	52,625000
2,771013	387,838789	282,561	0,088224	22,300000	52,625000
2,788968	398,937352	283,462	0,092908	22,300000	52,625000
2,807050	412,372029	284,363	0,098577	22,300000	52,615000
2,824985	426,519457	285,263	0,104547	22,300000	52,615000
2,843035	439,451968	286,165	0,110005	22,300000	52,615000
2,861021	452,463159	287,067	0,115496	22,310000	52,560000
2,878975	465,763616	287,970	0,121108	22,310000	52,560000
2,896985	481,353904	288,870	0,127688	22,310000	52,585000
2,914984	494,780482	289,771	0,133354	22,310000	52,585000
2,932964	505,698543	290,671	0,137961	22,310000	52,585000
2,950931	520,348138	291,576	0,144143	22,310000	52,585000
2,968958	533,820997	292,477	0,149829	22,310000	52,600000
2,986986	548,015866	293,378	0,155819	22,310000	52,600000
3,004910	558,674745	294,281	0,160317	22,310000	52,600000
3,022950	573,222517	295,182	0,166456	22,310000	52,600000
3,040992	587,025141	296,086	0,172281	22,310000	52,600000
3,058945	599,213659	296,987	0,177424	22,310000	52,600000
3,076994	613,400428	297,889	0,183411	22,310000	52,600000
3,094950	627,218093	298,790	0,189242	22,310000	52,600000
3,113000	640,496566	299,691	0,194846	22,310000	52,600000
3,130946	651,147345	300,592	0,199340	22,300000	52,545000
3,148934	664,700043	301,493	0,205060	22,300000	52,545000
3,166991	677,742474	302,395	0,210563	22,320000	52,575000
3,184982	690,752509	303,296	0,216054	22,320000	52,575000
3,187965	694,993150	304,200	0,217843	22,320000	52,575000
3,187924	693,668311	305,102	0,217284	22,300000	52,585000
3,187937	693,520207	306,003	0,217222	22,300000	52,585000
3,187969	692,845638	306,907	0,216937	22,310000	52,640000
3,187957	692,540173	307,807	0,216808	22,310000	52,640000
3,187961	692,289090	308,707	0,216702	22,310000	52,640000
3,187922	691,748741	309,609	0,216474	22,310000	52,640000
3,187995	691,521956	310,509	0,216378	22,300000	52,600000
3,187939	691,278973	311,409	0,216276	22,300000	52,600000
3,187948	691,160952	312,310	0,216226	22,300000	52,600000
3,187903	691,019790	313,212	0,216167	22,300000	52,600000
3,175995	683,393578	314,113	0,212948	22,300000	52,600000
3,157986	666,996816	315,016	0,206029	22,300000	52,625000
3,139975	652,935010	315,919	0,200095	22,300000	52,625000
3,122018	639,265449	316,821	0,194326	22,300000	52,625000
3,103963	625,369104	317,722	0,188462	22,300000	52,625000
3,085966	611,166136	318,622	0,182468	22,300000	52,600000
3,067982	599,151177	319,523	0,177398	22,300000	52,600000
3,050018	584,956309	320,423	0,171408	22,300000	52,560000
3,032000	572,329264	321,327	0,166079	22,300000	52,560000
3,013910	558,267458	322,228	0,160145	22,300000	52,560000
2,995998	545,201885	323,129	0,154631	22,300000	52,575000
2,977979	531,681585	324,030	0,148926	22,300000	52,575000
2,960013	515,574089	324,930	0,142128	22,310000	52,625000
2,941984	504,647928	325,831	0,137518	22,310000	52,625000
2,924001	489,081939	326,734	0,130949	22,310000	52,615000
2,905998	476,306789	327,634	0,125558	22,310000	52,615000
2,888044	464,172653	328,535	0,120437	22,310000	52,600000
2,870036	450,464909	329,438	0,114652	22,310000	52,600000
2,852062	437,468759	330,340	0,109168	22,310000	52,600000
2,834051	422,662961	331,241	0,102920	22,310000	52,600000
2,815996	408,883479	332,142	0,097105	22,310000	52,600000
2,797983	397,786073	333,045	0,092422	22,300000	52,585000
2,780077	382,336946	333,948	0,085902	22,300000	52,585000
2,762044	369,545598	334,850	0,080504	22,300000	52,585000
2,743977	356,424485	335,751	0,074967	22,300000	52,585000
2,726020	344,989216	336,651	0,070142	22,300000	52,615000
2,708051	330,896170	337,552	0,064194	22,300000	52,615000
2,690012	318,778232	338,456	0,059081	22,300000	52,615000
2,693047	317,540173	339,257	0,058558	22,300000	52,615000
2,711020	332,260349	340,159	0,064770	22,300000	52,615000
2,729057	346,736384	341,061	0,070879	22,290000	52,570000
2,747021	362,405352	341,962	0,077491	22,290000	52,570000
2,765051	376,912628	342,863	0,083613	22,300000	52,585000
2,783058	390,081180	343,765	0,089170	22,300000	52,585000
2,801015	402,731367	344,670	0,094509	22,290000	52,570000
2,818976	416,087363	345,571	0,100145	22,290000	52,570000
2,837049	429,780065	346,473	0,105923	22,290000	52,570000
2,855016	443,410286	347,373	0,111675	22,290000	52,570000
2,873023	456,922486	348,274	0,117377	22,300000	52,600000
2,891001	472,810140	349,175	0,124082	22,300000	52,600000
2,909025	483,696960	350,075	0,128676	22,300000	52,600000
2,926983	500,094879	350,977	0,135596	22,300000	52,600000
2,945042	512,595805	351,879	0,140872	22,300000	52,600000
2,963018	524,267115	352,781	0,145797	22,300000	52,615000
2,981005	538,335863	353,682	0,151734	22,300000	52,615000
2,998975	553,627629	354,583	0,158187	22,300000	52,615000
3,016955	564,208984	355,485	0,162652	22,300000	52,615000
3,034936	577,847305	356,385	0,168408	22,310000	52,585000
3,052969	593,554456	357,287	0,175036	22,310000	52,585000
3,070986	606,761191	358,187	0,180609	22,310000	52,585000
3,088956	620,038507	359,090	0,186212	22,310000	52,615000
3,106969	631,027149	359,990	0,190850	22,310000	52,615000
3,124969	646,366354	360,893	0,197323	22,310000	52,560000
3,142993	657,606080	361,793	0,202066	22,310000	52,560000
3,160967	672,067073	362,695	0,208168	22,300000	52,560000
3,178949	685,446210	363,595	0,213814	22,300000	52,560000
3,196992	699,931502	364,497	0,219927	22,300000	52,560000
3,215021	713,208818	365,401	0,225530	22,300000	52,560000
3,232942	726,799698	366,301	0,231266	22,300000	52,585000
3,250907	737,372954	367,202	0,235728	22,300000	52,585000
3,268950	750,666469	368,103	0,241337	22,300000	52,585000
3,286918	766,570322	369,005	0,248049	22,300000	52,585000
3,304944	777,567063	369,907	0,252689	22,300000	52,585000
3,322935	792,638987	370,807	0,259050	22,300000	52,585000
3,340912	805,799439	371,707	0,264604	22,300000	52,585000
3,355981	816,693202	372,608	0,269201	22,300000	52,585000
3,355928	815,808048	373,510	0,268827	22,300000	52,585000
3,355902	814,819914	374,412	0,268410	22,300000	52,575000
3,355920	814,898595	375,313	0,268443	22,300000	52,575000
3,355951	814,240225	376,213	0,268166	22,300000	52,575000
3,355886	814,067822	377,113	0,268093	22,310000	52,625000
3,355955	813,182668	378,014	0,267719	22,310000	52,625000
3,355952	812,994067	378,917	0,267640	22,310000	52,615000
3,355931	812,931585	379,818	0,267613	22,310000	52,615000
3,355967	812,915386	380,718	0,267606	22,300000	52,545000
3,355924	812,821664	381,619	0,267567	22,300000	52,545000
3,355939	812,414377	382,522	0,267395	22,300000	52,600000
3,337957	799,207642	383,423	0,261822	22,300000	52,600000
3,319966	784,809131	384,323	0,255746	22,300000	52,600000
3,301932	770,927827	385,223	0,249888	22,300000	52,600000
3,283954	757,611171	386,125	0,244268	22,300000	52,600000
3,265960	741,370612	387,027	0,237415	22,310000	52,600000
3,247976	729,825422	387,927	0,232542	22,310000	52,600000
3,230001	713,757266	388,828	0,225762	22,310000	52,585000
3,211939	700,048365	389,730	0,219977	22,310000	52,585000
3,193951	686,168219	390,631	0,214119	22,310000	52,625000
3,175934	672,529899	391,533	0,208364	22,310000	52,625000
3,157988	659,824172	392,433	0,203002	22,310000	52,625000
3,139995	645,699885	393,335	0,197042	22,310000	52,625000
3,121994	631,724859	394,237	0,191144	22,310000	52,625000
3,103980	620,102146	395,139	0,186239	22,300000	52,600000
3,085926	607,411461	396,040	0,180884	22,300000	52,600000
3,067901	591,508766	396,944	0,174173	22,300000	52,600000
3,049945	577,924828	397,845	0,168440	22,300000	52,600000
3,032028	564,553790	398,747	0,162798	22,310000	52,600000
3,013942	551,731200	399,647	0,157387	22,310000	52,600000
2,995965	538,601988	400,548	0,151846	22,300000	52,600000
2,977979	526,508349	401,450	0,146743	22,300000	52,600000
2,960008	513,630221	402,352	0,141308	22,300000	52,600000
2,941998	498,174152	403,255	0,134786	22,300000	52,600000
2,923990	486,589622	404,155	0,129897	22,300000	52,600000
2,906016	471,439018	405,057	0,123503	22,310000	52,600000
2,888027	460,332355	405,958	0,118816	22,310000	52,600000
2,870055	446,004425	406,861	0,112770	22,300000	52,560000
2,851940	431,362930	407,763	0,106591	22,300000	52,560000
2,833997	419,739059	408,664	0,101686	22,300000	52,585000
2,815986	406,015116	409,568	0,095895	22,300000	52,585000
2,798062	393,348730	410,469	0,090549	22,300000	52,585000
2,780061	381,105830	411,372	0,085383	22,300000	52,585000
2,771058	372,696284	412,158	0,081834	22,300000	52,585000
2,789019	385,165969	413,060	0,087096	22,300000	52,545000
2,806991	401,861254	413,963	0,094142	22,300000	52,545000
2,825015	414,644503	414,867	0,099536	22,280000	52,580000
2,842968	428,024798	415,767	0,105183	22,280000	52,580000
2,860977	444,170477	416,668	0,111996	22,280000	52,580000
2,879052	456,186593	417,568	0,117067	22,280000	52,580000
2,897006	472,026807	418,470	0,123751	22,310000	52,585000
2,914993	485,868770	419,372	0,129593	22,310000	52,585000
2,933053	499,507090	420,272	0,135348	22,300000	52,585000
2,950992	512,940610	421,173	0,141017	22,300000	52,585000
2,968935	524,134053	422,073	0,145741	22,300000	52,585000
2,986996	538,805632	422,976	0,151932	22,310000	52,600000
3,005003	552,499491	423,879	0,157711	22,310000	52,600000
3,023022	566,678160	424,779	0,163694	22,300000	52,585000
3,040983	579,492650	425,679	0,169102	22,300000	52,585000
3,059016	593,014107	426,579	0,174808	22,300000	52,585000
3,076996	605,005924	427,480	0,179869	22,300000	52,585000
3,095001	619,373195	428,381	0,185932	22,300000	52,600000
3,112951	632,133303	429,282	0,191316	22,300000	52,600000
3,130944	645,599221	430,183	0,196999	22,300000	52,600000
3,148949	660,764866	431,085	0,203399	22,300000	52,600000
3,166998	672,498658	431,987	0,208351	22,300000	52,600000
3,184951	685,784073	432,889	0,213957	22,300000	52,600000
3,202959	701,115179	433,790	0,220427	22,300000	52,600000
3,220988	712,573589	434,690	0,225262	22,300000	52,600000
3,238909	727,599230	435,590	0,231603	22,300000	52,600000
3,256915	739,262441	436,490	0,236525	22,310000	52,615000
3,274932	753,065064	437,391	0,242350	22,310000	52,615000
3,292926	766,813305	438,292	0,248151	22,310000	52,615000
3,310943	779,793256	439,193	0,253629	22,310000	52,615000
3,328902	792,936352	440,094	0,259175	22,310000	52,615000
3,346954	806,214825	440,995	0,264779	22,310000	52,615000
3,364914	819,797606	441,895	0,270511	22,310000	52,615000
3,382925	835,010691	442,796	0,276931	22,300000	52,650000
3,400886	848,264866	443,697	0,282524	22,300000	52,650000
3,418913	859,034823	444,597	0,287069	22,300000	52,625000
3,436922	872,703227	445,499	0,292837	22,300000	52,625000
3,454948	887,259099	446,400	0,298979	22,310000	52,585000
3,472899	900,488975	447,300	0,304563	22,310000	52,585000
3,490939	913,971092	448,201	0,310252	22,310000	52,585000
3,508887	925,728025	449,101	0,315213	22,310000	52,585000
3,523875	938,573756	450,004	0,320634	22,310000	52,585000
3,523866	937,970925	450,905	0,320380	22,320000	52,615000
3,523895	937,398178	451,808	0,320138	22,320000	52,615000
3,523824	936,889070	452,708	0,319923	22,310000	52,600000
3,523853	936,693526	453,609	0,319841	22,310000	52,600000
3,523903	936,002758	454,509	0,319549	22,290000	52,595000
3,523798	935,736634	455,410	0,319437	22,290000	52,595000
3,523921	935,792173	456,310	0,319460	22,290000	52,595000
3,523924	935,541090	457,214	0,319354	22,290000	52,595000
3,523887	935,408027	458,116	0,319298	22,290000	52,595000
3,523893	934,772799	459,019	0,319030	22,300000	52,575000
3,523872	934,756600	459,920	0,319023	22,300000	52,575000
3,505833	921,910869	460,821	0,313603	22,300000	52,575000
3,487910	907,732200	461,721	0,307619	22,300000	52,575000
3,469940	893,678493	462,621	0,301688	22,310000	52,615000
3,451867	879,664127	463,522	0,295774	22,310000	52,615000
3,433915	865,743483	464,425	0,289900	22,310000	52,615000
3,415928	851,980200	465,325	0,284092	22,310000	52,615000
3,397889	838,059556	466,226	0,278217	22,310000	52,615000
3,379876	823,544181	467,127	0,272092	22,300000	52,600000
3,361931	810,595472	468,028	0,266627	22,300000	52,600000
3,343869	796,566064	468,931	0,260707	22,300000	52,600000
3,325954	782,034490	469,832	0,254575	22,300000	52,600000
3,307947	768,529232	470,733	0,248875	22,310000	52,615000
3,289936	755,534240	471,634	0,243392	22,310000	52,615000
3,271916	739,536665	472,538	0,236641	22,310000	52,615000
3,253915	728,610504	473,439	0,232030	22,310000	52,615000
3,235988	714,965242	474,340	0,226271	22,310000	52,625000
3,217982	699,194452	475,242	0,219616	22,310000	52,625000
3,199951	685,909036	476,145	0,214010	22,310000	52,625000
3,181951	673,501833	477,047	0,208774	22,300000	52,585000
3,163945	660,405019	477,947	0,203247	22,300000	52,585000
3,145955	647,659953	478,848	0,197869	22,300000	52,615000
3,127996	631,772299	479,751	0,191164	22,300000	52,615000
3,110008	620,822997	480,652	0,186543	22,300000	52,615000
3,092010	607,411461	481,553	0,180884	22,300000	52,615000
3,073911	594,079763	482,453	0,175258	22,310000	52,585000
3,055986	578,184010	483,355	0,168550	22,310000	52,585000
3,038003	564,686852	484,256	0,162854	22,310000	52,585000
3,019989	551,480117	485,157	0,157281	22,300000	52,625000
3,001973	538,876213	486,057	0,151962	22,300000	52,625000
2,983988	527,605247	486,959	0,147206	22,310000	52,625000
2,965958	512,651344	487,860	0,140895	22,310000	52,625000
2,947970	500,964992	488,764	0,135963	22,310000	52,585000
2,929997	485,414044	489,667	0,129401	22,310000	52,585000
2,911999	474,550365	490,568	0,124816	22,300000	52,600000
2,894023	461,429252	491,469	0,119279	22,300000	52,600000
2,875945	448,332439	492,371	0,113752	22,300000	52,615000
2,857996	433,032574	493,272	0,107296	22,300000	52,615000
2,861005	433,761524	494,065	0,107604	22,300000	52,615000
2,879014	451,020300	494,969	0,114887	22,300000	52,575000
2,896989	465,489392	495,870	0,120993	22,300000	52,575000
2,915012	479,731700	496,772	0,127003	22,300000	52,585000
2,933011	493,989050	497,675	0,133020	22,300000	52,585000
2,951036	506,286332	498,577	0,138209	22,290000	52,595000
2,968993	519,046440	499,478	0,143594	22,290000	52,595000
2,987009	532,684760	500,378	0,149349	22,310000	52,615000
3,005030	546,785906	501,280	0,155300	22,310000	52,615000
3,023011	560,117604	502,181	0,160926	22,310000	52,615000
3,040973	574,084531	503,083	0,166820	22,310000	52,615000
3,058943	590,019624	503,987	0,173544	22,310000	52,615000
3,076950	601,502333	504,890	0,178390	22,310000	52,585000
3,095012	616,198210	505,791	0,184592	22,310000	52,585000
3,112946	631,027149	506,693	0,190850	22,310000	52,615000
3,130986	642,079430	507,595	0,195514	22,310000	52,615000
3,148939	655,740892	508,495	0,201279	22,300000	52,625000
3,166952	668,862004	509,398	0,206816	22,300000	52,625000
3,184910	684,984542	510,301	0,213620	22,310000	52,625000
3,202940	698,426161	511,202	0,219292	22,310000	52,625000
3,220970	709,337280	512,102	0,223896	22,310000	52,625000
3,238965	722,849480	513,004	0,229599	22,300000	52,585000
3,256901	738,745233	513,907	0,236307	22,300000	52,585000
3,274982	750,643328	514,808	0,241328	22,300000	52,625000
3,292915	763,262274	515,710	0,246653	22,300000	52,625000
3,310923	778,788924	516,612	0,253205	22,310000	52,615000
3,328886	792,512867	517,514	0,258997	22,310000	52,615000
3,346828	805,924402	518,417	0,264656	22,310000	52,600000
3,364927	818,833771	519,318	0,270104	22,310000	52,600000
3,382875	832,221009	520,219	0,275753	22,310000	52,600000
3,400952	846,133553	521,121	0,281625	22,300000	52,585000
3,418853	858,156611	522,021	0,286698	22,300000	52,585000
3,436918	870,744316	522,922	0,292010	22,320000	52,600000
3,454952	884,194035	523,825	0,297686	22,320000	52,600000
3,472842	899,549439	524,727	0,304166	22,320000	52,600000
3,490822	913,007257	525,627	0,309845	22,320000	52,600000
3,508827	926,394494	526,530	0,315495	22,300000	52,575000
3,526885	939,499408	527,432	0,321025	22,300000	52,575000
3,544845	951,702968	528,332	0,326175	22,300000	52,600000
3,562830	963,985208	529,233	0,331358	22,300000	52,600000
3,580843	978,523724	530,134	0,337493	22,300000	52,600000
3,598843	991,214409	531,038	0,342849	22,290000	52,610000
3,616835	1006,027149	531,939	0,349100	22,290000	52,610000
3,634856	1017,008849	532,841	0,353734	22,300000	52,625000
3,652863	1033,100146	533,741	0,360524	22,300000	52,625000
3,670849	1045,397429	534,641	0,365714	22,300000	52,625000
3,688894	1057,679669	535,543	0,370897	22,300000	52,625000
3,691857	1061,035156	536,444	0,372313	22,300000	52,585000
3,691823	1060,337446	537,346	0,372019	22,300000	52,585000
3,691883	1060,015782	538,247	0,371883	22,300000	52,585000
3,691862	1059,702218	539,147	0,371750	22,300000	52,625000
3,691878	1059,380554	540,048	0,371615	22,300000	52,625000
3,691825	1059,145670	540,949	0,371516	22,300000	52,625000
3,691877	1058,565980	541,851	0,371271	22,300000	52,625000
3,691877	1058,565980	542,752	0,371271	22,300000	52,625000
3,691839	1058,204976	543,653	0,371119	22,300000	52,625000
3,691849	1057,845129	544,553	0,370967	22,300000	52,615000
3,691833	1057,743308	545,455	0,370924	22,300000	52,615000
3,679850	1049,262024	546,357	0,367345	22,310000	52,615000
3,661844	1033,335030	547,258	0,360624	22,310000	52,615000
3,643900	1020,551781	548,161	0,355229	22,310000	52,615000
3,625868	1006,215751	549,064	0,349179	22,320000	52,600000
3,607790	993,447543	549,966	0,343791	22,320000	52,600000
3,589868	976,948960	550,870	0,336829	22,310000	52,640000
3,571900	965,395670	551,772	0,331953	22,310000	52,640000
3,553895	949,319415	552,673	0,325169	22,310000	52,640000
3,535876	937,900344	553,573	0,320350	22,310000	52,640000
3,517878	924,183344	554,475	0,314562	22,300000	52,600000
3,499917	909,927151	555,378	0,308545	22,300000	52,600000
3,481872	894,854071	556,281	0,302185	22,300000	52,600000
3,463946	880,511099	557,181	0,296132	22,300000	52,600000
3,445889	868,048356	558,081	0,290873	22,300000	52,600000
3,427882	855,296347	558,982	0,285491	22,290000	52,610000
3,409906	839,039590	559,883	0,278631	22,290000	52,610000
3,391895	828,059047	560,784	0,273997	22,300000	52,600000
3,373908	814,616271	561,687	0,268324	22,300000	52,600000
3,355894	798,227608	562,587	0,261408	22,300000	52,615000
3,337923	787,623112	563,489	0,256933	22,300000	52,615000
3,319903	773,177160	564,390	0,250837	22,300000	52,615000
3,301936	760,660036	565,292	0,245555	22,300000	52,615000
3,283884	746,904852	566,193	0,239750	22,300000	52,615000
3,265922	733,320914	567,094	0,234018	22,300000	52,535000
3,247927	720,207901	567,997	0,228484	22,300000	52,535000
3,229944	706,429576	568,898	0,222669	22,310000	52,585000
3,211927	690,714325	569,799	0,216038	22,310000	52,585000
3,193947	677,381470	570,700	0,210411	22,310000	52,615000
3,175958	666,322247	571,601	0,205744	22,310000	52,615000
3,157987	650,316573	572,504	0,198990	22,300000	52,615000
3,139942	638,513357	573,407	0,194009	22,300000	52,615000
3,121948	624,866938	574,310	0,188250	22,300000	52,615000
3,103953	612,883220	575,212	0,183193	22,300000	52,615000
3,085963	599,244900	576,114	0,177437	22,300000	52,615000
3,067913	586,273049	577,015	0,171963	22,300000	52,615000
3,050007	573,089455	577,918	0,166400	22,300000	52,615000
3,031950	559,812139	578,819	0,160797	22,320000	52,600000
3,013987	544,175568	579,720	0,154198	22,320000	52,600000
2,995925	532,676661	580,621	0,149346	22,320000	52,600000
2,977958	519,955893	581,523	0,143978	22,320000	52,600000
2,959971	505,611763	582,425	0,137924	22,300000	52,575000
2,941977	493,401261	583,329	0,132771	22,300000	52,575000
2,924007	477,709151	584,230	0,126149	22,300000	52,575000
2,905965	467,237717	585,133	0,121730	22,300000	52,625000
2,888054	454,093463	586,035	0,116184	22,300000	52,625000
2,870052	439,358246	586,937	0,109965	22,300000	52,585000
2,852049	425,626203	587,839	0,104170	22,300000	52,585000
2,834055	413,695711	588,740	0,099136	22,310000	52,585000
2,815944	399,408277	589,641	0,093106	22,310000	52,585000
2,797998	386,906194	590,541	0,087831	22,310000	52,585000
2,780026	373,111671	591,443	0,082009	22,310000	52,585000
2,762013	359,919977	592,344	0,076442	22,310000	52,585000
2,743993	349,143078	593,246	0,071895	22,310000	52,585000
2,726069	336,139986	594,147	0,066407	22,310000	52,585000
2,707960	322,956393	595,048	0,060844	22,300000	52,600000
2,689971	310,140745	595,949	0,055436	22,300000	52,600000
2,672071	294,668478	596,851	0,048906	22,300000	52,615000
2,653989	281,972008	597,752	0,043548	22,300000	52,615000
2,636067	271,241391	598,652	0,039020	22,300000	52,615000
2,618048	255,910286	599,553	0,032550	22,300000	52,615000
2,599989	244,952884	600,455	0,027926	22,320000	52,600000
2,582032	231,713751	601,355	0,022339	22,320000	52,600000
2,564008	219,212826	602,257	0,017064	22,320000	52,600000
2,546057	204,179086	603,159	0,010720	22,300000	52,600000
2,528007	191,152853	604,061	0,005223	22,300000	52,600000
2,509939	181,237967	604,961	0,001039	22,300000	52,600000
2,491994	168,359838	605,862	-0,004396	22,300000	52,600000
2,473953	153,201135	606,763	-0,010793	22,310000	52,615000
2,456017	142,972684	607,666	-0,015109	22,310000	52,615000
2,438039	128,183085	608,568	-0,021351	22,310000	52,615000
2,420003	115,822164	609,470	-0,026567	22,310000	52,615000
2,402008	104,127712	610,371	-0,031502	22,310000	52,615000
2,383982	90,873537	611,272	-0,037095	22,310000	52,615000
2,366026	76,686769	612,173	-0,043082	22,310000	52,615000
2,348013	66,380795	613,078	-0,047431	22,310000	52,615000
2,330029	53,721351	613,979	-0,052773	22,310000	52,615000
2,312051	38,728108	614,879	-0,059101	22,310000	52,615000
2,293980	28,507757	615,779	-0,063414	22,310000	52,615000
2,276059	14,132387	616,681	-0,069480	22,310000	52,575000
2,258005	2,689018	617,586	-0,074309	22,310000	52,575000
2,240043	-9,013533	618,488	-0,079248	22,310000	52,575000
2,222057	-23,019800	619,389	-0,085158	22,310000	52,575000
2,203990	-33,436852	620,291	-0,089554	22,300000	52,600000
2,186052	-46,134479	621,192	-0,094913	22,300000	52,600000
2,168018	-60,155787	622,092	-0,100830	22,300000	52,600000
2,150065	-70,126213	622,994	-0,105037	22,310000	52,615000
2,132018	-82,337872	623,895	-0,110190	22,310000	52,615000
2,114016	-95,270383	624,796	-0,115648	22,300000	52,615000
2,096041	-108,030491	625,697	-0,121033	22,300000	52,615000
2,078074	-120,335873	626,597	-0,126226	22,300000	52,615000
2,060106	-133,025400	627,497	-0,131581	22,300000	52,615000
2,042018	-144,994076	628,398	-0,136631	22,300000	52,600000
2,024045	-157,323756	629,299	-0,141834	22,300000	52,600000
[...]
3,312534	777,009358	385,294	0,252487	22,310000	52,800000
3,294622	762,274141	386,194	0,246269	22,310000	52,800000
3,276612	748,284073	387,094	0,240365	22,310000	52,800000
3,258540	732,583864	387,997	0,233740	22,310000	52,800000
3,240613	721,258516	388,900	0,228960	22,310000	52,800000
3,222596	707,674578	389,802	0,223228	22,310000	52,800000
3,204558	693,966834	390,703	0,217443	22,310000	52,785000
3,186628	678,094222	391,606	0,210745	22,310000	52,785000
3,168553	666,501592	392,509	0,205853	22,300000	52,785000
3,150643	652,409703	393,409	0,199906	22,300000	52,785000
3,132536	637,752009	394,310	0,193721	22,300000	52,785000
3,114598	625,822673	395,211	0,188687	22,300000	52,785000
3,096606	612,256091	396,113	0,182961	22,300000	52,800000
3,078625	596,265458	397,015	0,176213	22,300000	52,800000
3,060540	585,551040	397,917	0,171692	22,300000	52,800000
3,042614	571,317989	398,821	0,165686	22,300000	52,800000
3,024612	558,628462	399,723	0,160331	22,300000	52,800000
3,006578	545,029482	400,626	0,154592	22,300000	52,770000
2,988655	530,654112	401,526	0,148525	22,300000	52,770000
2,970613	518,419311	402,429	0,143362	22,300000	52,770000
2,952568	505,017032	403,331	0,137707	22,300000	52,770000
2,934626	489,576005	404,233	0,131190	22,300000	52,785000
2,916643	476,220009	405,136	0,125554	22,300000	52,785000
2,898646	465,136487	406,038	0,120877	22,310000	52,760000
2,880646	451,944794	406,940	0,115310	22,310000	52,760000
2,862617	436,826588	407,840	0,108930	22,310000	52,760000
2,844576	425,437602	408,743	0,104124	22,310000	52,800000
2,826671	412,756174	409,644	0,098772	22,310000	52,800000
2,808652	396,758599	410,547	0,092021	22,310000	52,730000
2,790639	385,793098	411,447	0,087394	22,310000	52,730000
2,781658	375,062481	412,230	0,082866	22,310000	52,730000
2,799657	392,737800	413,132	0,090325	22,310000	52,730000
2,817651	404,987643	414,033	0,095494	22,300000	52,760000
2,835646	420,326848	414,937	0,101967	22,300000	52,760000
2,853680	433,361180	415,837	0,107468	22,300000	52,760000
2,871622	446,858338	416,739	0,113164	22,300000	52,785000
2,889594	461,273049	417,640	0,119247	22,300000	52,785000
2,907678	474,706568	418,540	0,124916	22,310000	52,770000
2,925673	488,290507	419,441	0,130648	22,310000	52,770000
2,943612	501,888329	420,343	0,136386	22,290000	52,780000
2,961649	517,439277	421,245	0,142949	22,290000	52,780000
2,979616	531,642245	422,146	0,148942	22,310000	52,745000
2,997649	542,654028	423,048	0,153589	22,310000	52,745000
3,015584	558,439860	423,949	0,160251	22,310000	52,745000
3,033677	570,346055	424,850	0,165275	22,300000	52,770000
3,051636	583,921894	425,751	0,171004	22,300000	52,770000
3,069561	598,021882	426,652	0,176955	22,310000	52,785000
3,087617	610,264783	427,555	0,182121	22,310000	52,785000
3,105601	623,181094	428,456	0,187572	22,310000	52,785000
3,123603	636,945535	429,356	0,193380	22,310000	52,785000
3,141645	650,810639	430,259	0,199231	22,300000	52,770000
3,159566	663,743150	431,161	0,204689	22,300000	52,770000
3,177568	677,467093	432,062	0,210480	22,300000	52,785000
3,195598	692,022965	432,963	0,216623	22,300000	52,785000
3,213586	705,441443	433,864	0,222286	22,300000	52,785000
3,231547	720,020457	434,767	0,228438	22,300000	52,785000
3,249591	730,749917	435,668	0,232966	22,300000	52,785000
3,267570	746,606330	436,572	0,239657	22,310000	52,785000
3,285559	760,056048	437,474	0,245333	22,310000	52,785000
3,303576	773,349563	438,376	0,250943	22,310000	52,785000
3,321545	784,087122	439,276	0,255474	22,310000	52,785000
3,339587	799,536249	440,178	0,261994	22,310000	52,770000
3,357574	812,304456	441,080	0,267382	22,310000	52,770000
3,375536	825,613013	441,982	0,272998	22,310000	52,770000
3,393555	837,903353	442,884	0,278185	22,300000	52,800000
3,411584	851,110088	443,787	0,283758	22,300000	52,800000
3,429565	864,246242	444,687	0,289301	22,300000	52,800000
3,447534	880,055215	445,589	0,295973	22,300000	52,800000
3,465524	891,311139	446,494	0,300723	22,300000	52,745000
3,483493	906,328680	447,395	0,307060	22,300000	52,745000
3,501529	918,939527	448,299	0,312382	22,300000	52,800000
3,519532	932,083781	449,199	0,317929	22,300000	52,800000
3,534568	944,154278	450,099	0,323022	22,300000	52,800000
3,534553	943,213585	451,001	0,322625	22,300000	52,800000
3,534530	942,837539	451,903	0,322467	22,300000	52,800000
3,534557	942,257850	452,804	0,322222	22,300000	52,785000
3,534504	941,999824	453,706	0,322113	22,300000	52,785000
3,534517	941,505758	454,608	0,321905	22,300000	52,785000
3,534572	941,325255	455,511	0,321829	22,300000	52,785000
3,534481	940,924911	456,411	0,321660	22,300000	52,800000
3,534540	940,760608	457,312	0,321590	22,300000	52,800000
3,534533	940,438944	458,213	0,321455	22,310000	52,770000
3,534538	940,313981	459,114	0,321402	22,310000	52,770000
3,534450	939,961076	460,014	0,321253	22,310000	52,770000
3,516497	927,867437	460,915	0,316149	22,310000	52,770000
3,498545	913,829930	461,817	0,310226	22,310000	52,770000
3,480584	899,203477	462,721	0,304053	22,300000	52,785000
3,462454	885,510775	463,622	0,298275	22,300000	52,785000
3,444550	871,543848	464,524	0,292381	22,300000	52,785000
3,426560	855,060306	465,428	0,285425	22,300000	52,785000
3,408586	842,935427	466,330	0,280308	22,300000	52,760000
3,390541	829,845555	467,232	0,274784	22,300000	52,760000
3,372570	816,113513	468,134	0,268989	22,310000	52,785000
3,354545	802,327088	469,036	0,263171	22,310000	52,785000
3,336555	788,938694	469,937	0,257521	22,310000	52,785000
3,318557	772,643754	470,839	0,250645	22,310000	52,760000
3,300617	761,482709	471,741	0,245935	22,310000	52,760000
3,282533	747,108496	472,644	0,239869	22,310000	52,760000
3,264583	734,191027	473,546	0,234418	22,310000	52,760000
3,246621	718,115929	474,447	0,227634	22,310000	52,800000
3,228612	704,508849	475,349	0,221892	22,310000	52,800000
3,210621	691,074172	476,252	0,216223	22,310000	52,800000
3,192613	677,938018	477,154	0,210679	22,310000	52,800000
3,174660	665,514616	478,056	0,205437	22,310000	52,760000
3,156626	651,202884	478,960	0,199397	22,310000	52,760000
3,138576	639,022466	479,862	0,194257	22,310000	52,760000
3,120579	623,542099	480,764	0,187724	22,310000	52,760000
3,102654	610,279824	481,667	0,182127	22,310000	52,760000
3,084629	596,987467	482,569	0,176518	22,300000	52,810000
3,066565	586,099489	483,470	0,171923	22,300000	52,810000
3,048609	572,705310	484,370	0,166271	22,300000	52,810000
3,030636	556,950718	485,271	0,159623	22,300000	52,810000
3,012696	545,922736	486,174	0,154969	22,290000	52,795000
2,994623	531,343722	487,076	0,148816	22,290000	52,795000
2,976670	519,233884	487,978	0,143706	22,290000	52,795000
2,958622	506,442536	488,879	0,138308	22,290000	52,795000
2,940649	492,828514	489,781	0,132563	22,290000	52,795000
2,922640	479,543098	490,684	0,126957	22,290000	52,780000
2,904640	465,944118	491,586	0,121218	22,290000	52,780000
2,886673	452,886645	492,488	0,115708	22,290000	52,795000
2,868636	440,212159	493,389	0,110359	22,290000	52,795000
2,871679	438,856080	494,170	0,109787	22,310000	52,785000
2,889626	454,625713	495,071	0,116441	22,310000	52,785000
2,907619	468,193452	495,974	0,122167	22,310000	52,785000
2,925596	482,207818	496,877	0,128081	22,310000	52,785000
2,943624	498,479617	497,779	0,134948	22,310000	52,785000
2,961663	510,072247	498,681	0,139840	22,300000	52,800000
2,979692	523,733709	499,582	0,145605	22,300000	52,800000
2,997653	540,350313	500,484	0,152617	22,300000	52,810000
3,015594	553,181002	501,386	0,158032	22,300000	52,810000
3,033513	566,246575	502,288	0,163545	22,300000	52,810000
3,051579	579,124704	503,189	0,168980	22,300000	52,810000
3,069596	592,786165	504,091	0,174745	22,310000	52,770000
3,087712	608,885562	504,992	0,181539	22,310000	52,770000
3,105612	622,256600	505,892	0,187182	22,310000	52,770000
3,123629	633,417645	506,794	0,191892	22,300000	52,810000
3,141608	646,922902	507,694	0,197591	22,300000	52,810000
3,159572	663,124121	508,597	0,204428	22,310000	52,770000
3,177659	675,335780	509,499	0,209581	22,310000	52,770000
3,195601	687,437519	510,401	0,214688	22,300000	52,800000
3,213552	703,175911	511,302	0,221330	22,300000	52,800000
3,231634	714,674819	512,203	0,226182	22,300000	52,800000
3,249573	727,827172	513,106	0,231732	22,300000	52,800000
3,267633	741,135728	514,008	0,237349	22,300000	52,800000
3,285587	756,662378	514,910	0,243901	22,310000	52,785000
3,303581	770,739225	515,812	0,249841	22,310000	52,785000
3,321551	783,939018	516,713	0,255412	22,310000	52,760000
3,339536	797,263774	517,615	0,261035	22,310000	52,760000
3,357590	808,564823	518,519	0,265804	22,300000	52,810000
3,375601	821,889579	519,422	0,271427	22,300000	52,810000
3,393523	837,636071	520,322	0,278072	22,300000	52,785000
3,411543	851,329930	521,223	0,283851	22,300000	52,785000
3,429567	863,149345	522,126	0,288838	22,290000	52,780000
3,447570	875,587789	523,029	0,294087	22,290000	52,780000
3,465536	891,255600	523,930	0,300699	22,290000	52,780000
3,483514	902,206059	524,832	0,305320	22,300000	52,770000
3,501548	915,263533	525,734	0,310831	22,300000	52,770000
3,519558	929,379721	526,634	0,316788	22,310000	52,800000
3,537565	943,057381	527,534	0,322560	22,310000	52,800000
3,555559	955,605746	528,436	0,327855	22,310000	52,800000
3,573515	969,596971	529,337	0,333759	22,310000	52,800000
3,591469	982,357079	530,238	0,339144	22,310000	52,770000
3,609506	998,072330	531,139	0,345776	22,310000	52,770000
3,627533	1012,085539	532,040	0,351689	22,310000	52,770000
3,645505	1024,431418	532,941	0,356899	22,310000	52,785000
3,663512	1036,101572	533,842	0,361824	22,310000	52,785000
3,681490	1051,621279	534,742	0,368374	22,310000	52,800000
3,699511	1064,686852	535,645	0,373887	22,310000	52,800000
3,702528	1066,184094	536,546	0,374519	22,310000	52,800000
3,702417	1065,619446	537,446	0,374281	22,310000	52,800000
3,702434	1065,133479	538,347	0,374076	22,310000	52,800000
3,702540	1064,686852	539,248	0,373887	22,310000	52,800000
3,702469	1064,357089	540,152	0,373748	22,310000	52,800000
3,702521	1063,856080	541,052	0,373537	22,310000	52,800000
3,702500	1063,824839	541,952	0,373523	22,310000	52,800000
3,702496	1063,636237	542,856	0,373444	22,300000	52,770000
3,702476	1063,041506	543,757	0,373193	22,300000	52,770000
3,702436	1062,844805	544,659	0,373110	22,310000	52,785000
3,702477	1062,798523	545,561	0,373090	22,310000	52,785000
3,690514	1054,404019	546,462	0,369548	22,310000	52,760000
3,672474	1040,475276	547,362	0,363670	22,310000	52,760000
3,654538	1024,407120	548,264	0,356889	22,310000	52,800000
3,636477	1012,439601	549,166	0,351839	22,310000	52,800000
3,618496	998,565240	550,066	0,345984	22,310000	52,800000
3,600540	982,286498	550,968	0,339114	22,310000	52,800000
3,582516	970,631387	551,869	0,334196	22,310000	52,800000
3,564525	956,781324	552,773	0,328351	22,310000	52,800000
3,546480	940,611347	553,675	0,321527	22,310000	52,800000
3,528501	928,604488	554,576	0,316460	22,310000	52,785000
3,510545	915,334114	555,477	0,310860	22,310000	52,785000
3,492531	901,014283	556,377	0,304817	22,310000	52,800000
3,474545	885,668135	557,278	0,298341	22,310000	52,800000
3,456586	874,505933	558,180	0,293631	22,310000	52,800000
3,438523	860,680169	559,082	0,287796	22,310000	52,800000
3,420555	847,301031	559,984	0,282150	22,310000	52,800000
3,402587	831,122954	560,885	0,275323	22,310000	52,770000
3,384556	819,828847	561,786	0,270557	22,310000	52,770000
3,366603	803,854414	562,687	0,263816	22,300000	52,810000
3,348523	792,034999	563,589	0,258828	22,300000	52,810000
3,330580	776,978118	564,490	0,252474	22,300000	52,810000
3,312541	765,221184	565,393	0,247513	22,300000	52,810000
3,294631	752,406694	566,294	0,242105	22,300000	52,770000
3,276570	737,459734	567,197	0,235797	22,300000	52,770000
3,258583	723,248667	568,097	0,229800	22,300000	52,770000
3,240569	709,422902	569,002	0,223966	22,300000	52,770000
3,222614	696,702135	569,904	0,218598	22,300000	52,770000
3,204583	683,722184	570,807	0,213120	22,300000	52,745000
3,186654	669,574756	571,708	0,207150	22,300000	52,745000
3,168622	658,131387	572,608	0,202321	22,300000	52,785000
3,150661	642,580439	573,508	0,195758	22,300000	52,785000
3,132652	631,639237	574,411	0,191141	22,310000	52,770000
3,114586	616,308131	575,312	0,184671	22,310000	52,770000
3,096643	604,794181	576,214	0,179813	22,300000	52,770000
3,078546	589,062731	577,114	0,173174	22,300000	52,770000
3,060680	575,879138	578,017	0,167610	22,300000	52,770000
3,042599	563,448793	578,919	0,162365	22,310000	52,770000
3,024652	550,554465	579,820	0,156923	22,310000	52,770000
3,006605	538,202801	580,723	0,151711	22,310000	52,770000
2,988621	524,658203	581,624	0,145995	22,310000	52,770000
2,970684	512,157277	582,527	0,140720	22,300000	52,785000
2,952692	496,488309	583,429	0,134107	22,300000	52,785000
2,934663	483,077931	584,329	0,128448	22,300000	52,785000
2,916622	472,379712	585,232	0,123934	22,300000	52,785000
2,898664	457,259192	586,134	0,117553	22,300000	52,760000
2,880617	443,809473	587,034	0,111877	22,300000	52,760000
2,862653	430,610838	587,935	0,106307	22,300000	52,760000
2,844594	419,582855	588,838	0,101653	22,300000	52,770000
2,826688	404,690277	589,738	0,095369	22,300000	52,770000
2,808667	392,486717	590,638	0,090219	22,290000	52,780000
2,790641	380,400020	591,538	0,085118	22,290000	52,780000
2,772624	367,122704	592,440	0,079515	22,310000	52,785000
2,754688	352,090121	593,342	0,073171	22,310000	52,785000
2,736648	338,757266	594,245	0,067545	22,310000	52,785000
2,718678	326,397503	595,148	0,062329	22,310000	52,785000
2,700681	313,613096	596,049	0,056934	22,310000	52,785000
2,682603	301,723101	596,952	0,051917	22,300000	52,770000
2,664616	287,615012	597,854	0,045963	22,300000	52,770000
2,646642	273,372704	598,756	0,039953	22,300000	52,800000
2,628713	262,446544	599,657	0,035342	22,300000	52,800000
2,610724	249,632053	600,560	0,029934	22,300000	52,800000
2,592660	236,847647	601,462	0,024539	22,300000	52,800000
2,574724	222,002509	602,364	0,018274	22,310000	52,785000
2,556650	211,099489	603,266	0,013673	22,310000	52,785000
2,538701	196,467250	604,167	0,007499	22,310000	52,785000
2,520738	183,016375	605,069	0,001822	22,310000	52,785000
2,502675	172,388737	605,969	-0,002663	22,310000	52,785000
2,484606	157,135154	606,871	-0,009100	22,290000	52,780000
2,466651	144,117021	607,771	-0,014593	22,290000	52,780000
2,448685	131,568656	608,672	-0,019889	22,310000	52,800000
2,430674	120,971101	609,573	-0,024361	22,310000	52,800000
2,412615	108,814981	610,474	-0,029491	22,310000	52,800000
2,394736	94,360930	611,376	-0,035590	22,310000	52,800000
2,376690	83,615271	612,277	-0,040125	22,310000	52,770000
2,358656	68,871955	613,177	-0,046347	22,310000	52,770000
2,340688	57,515366	614,078	-0,051139	22,310000	52,770000
2,322648	45,326848	614,980	-0,056283	22,310000	52,770000
2,304742	31,343722	615,880	-0,062184	22,310000	52,770000
2,286681	20,832948	616,782	-0,066619	22,300000	52,760000
2,268676	8,080939	617,682	-0,072000	22,300000	52,760000
2,250662	-6,583697	618,584	-0,078189	22,310000	52,770000
2,232675	-16,733468	619,487	-0,082472	22,310000	52,770000
2,214650	-29,588455	620,389	-0,087897	22,310000	52,770000
2,196664	-41,729534	621,290	-0,093021	22,310000	52,770000
2,178718	-54,066156	622,192	-0,098227	22,320000	52,760000
2,160740	-68,715751	623,094	-0,104409	22,320000	52,760000
2,142706	-79,453310	623,995	-0,108940	22,320000	52,760000
2,124704	-92,213418	624,899	-0,114325	22,320000	52,760000
2,106668	-104,002749	625,802	-0,119300	22,320000	52,760000
2,088658	-115,986467	626,706	-0,124357	22,310000	52,800000
2,070690	-127,853321	627,608	-0,129365	22,310000	52,800000
2,052706	-140,833272	628,510	-0,134842	22,300000	52,800000
2,034702	-152,800791	629,411	-0,139893	22,300000	52,800000
2,016742	-164,816906	630,313	-0,144963	22,310000	52,800000
1,998670	-176,511358	631,214	-0,149898	22,310000	52,800000
1,980727	-188,910462	632,116	-0,155131	22,310000	52,800000
1,962719	-201,130221	633,018	-0,160288	22,310000	52,800000
1,944718	-213,005174	633,919	-0,165299	22,310000	52,800000
1,926656	-227,677910	634,823	-0,171491	22,300000	52,770000
1,908758	-239,277483	635,724	-0,176386	22,300000	52,770000
1,890717	-251,254258	636,626	-0,181440	22,300000	52,810000
1,872757	-261,474609	637,527	-0,185753	22,300000	52,810000
1,854692	-273,521966	638,428	-0,190837	22,300000	52,800000
1,836699	-285,067156	639,331	-0,195709	22,300000	52,800000
1,818709	-297,843463	640,231	-0,201101	22,310000	52,785000
1,800710	-308,078856	641,133	-0,205420	22,310000	52,785000
1,782725	-321,717176	642,036	-0,211175	22,310000	52,785000
1,764729	-333,474110	642,936	-0,216137	22,300000	52,785000
1,746755	-345,685769	643,837	-0,221290	22,300000	52,785000
1,728739	-354,879804	644,738	-0,225170	22,300000	52,785000
1,710730	-365,053873	645,639	-0,229463	22,300000	52,785000
1,692758	-379,216343	646,539	-0,235440	22,300000	52,760000
1,674756	-391,107496	647,440	-0,240458	22,300000	52,760000
1,656732	-402,017458	648,342	-0,245062	22,300000	52,760000
1,638751	-413,539507	649,242	-0,249924	22,300000	52,760000
1,620746	-424,347647	650,143	-0,254485	22,300000	52,770000
1,602759	-435,971518	651,044	-0,259391	22,300000	52,770000
1,584711	-445,878305	651,945	-0,263571	22,300000	52,770000
1,566679	-455,449543	652,847	-0,267610	22,310000	52,800000
1,548737	-468,797440	653,748	-0,273243	22,310000	52,800000
1,530680	-477,387487	654,649	-0,276868	22,300000	52,800000
1,512687	-491,142671	655,550	-0,282673	22,300000	52,800000
1,494686	-498,871862	656,452	-0,285935	22,300000	52,800000
1,476770	-509,773724	657,354	-0,290535	22,300000	52,800000
1,458771	-522,205226	658,256	-0,295781	22,310000	52,785000
1,440763	-532,143254	659,158	-0,299975	22,310000	52,785000
1,422744	-543,704643	660,060	-0,304854	22,310000	52,785000
1,404693	-552,859338	660,961	-0,308717	22,310000	52,785000
1,386762	-560,296949	661,861	-0,311856	22,310000	52,785000
1,368819	-572,470425	662,764	-0,316993	22,310000	52,785000
1,350760	-579,093463	663,664	-0,319788	22,310000	52,785000
1,332761	-591,249583	664,567	-0,324918	22,310000	52,785000
1,314711	-601,305632	665,469	-0,329162	22,310000	52,785000
1,296778	-611,581522	666,370	-0,333498	22,300000	52,810000
1,278763	-619,897345	667,271	-0,337007	22,300000	52,810000
1,260775	-626,528482	668,173	-0,339806	22,300000	52,810000
1,242794	-633,575006	669,073	-0,342779	22,300000	52,810000
1,224783	-642,784082	669,975	-0,346666	22,300000	52,810000
1,206740	-651,672653	670,876	-0,350417	22,310000	52,770000
1,188747	-660,906028	671,777	-0,354313	22,310000	52,770000
1,170736	-669,339872	672,678	-0,357872	22,310000	52,800000
1,152746	-678,384645	673,580	-0,361689	22,310000	52,800000
1,134762	-687,241975	674,481	-0,365427	22,300000	52,785000
1,116796	-694,029315	675,383	-0,368291	22,300000	52,785000
1,098768	-700,338789	676,285	-0,370954	22,300000	52,785000
1,080755	-705,628888	677,186	-0,373186	22,300000	52,785000
1,062727	-710,010691	678,087	-0,375035	22,310000	52,770000
1,044776	-718,139070	678,987	-0,378465	22,310000	52,770000
1,026718	-720,874371	679,890	-0,379620	22,310000	52,770000
1,008700	-729,981626	680,791	-0,383463	22,310000	52,770000
0,990767	-731,252083	681,692	-0,383999	22,310000	52,770000
0,972821	-732,607005	682,595	-0,384571	22,290000	52,805000
0,954770	-734,527733	683,496	-0,385381	22,290000	52,805000
0,936727	-735,389746	684,398	-0,385745	22,310000	52,785000
0,918770	-735,162961	685,302	-0,385649	22,310000	52,785000
0,900728	-730,381970	686,204	-0,383632	22,300000	52,760000
0,882763	-720,114179	687,105	-0,379299	22,300000	52,760000
0,864759	-680,750842	688,008	-0,362687	22,300000	52,760000
0,846795	-0,195544	688,909	-0,075493	22,300000	52,760000
0,828721	0,109921	689,810	-0,075364	22,300000	52,760000
0,810745	-0,502166	690,712	-0,075623	22,300000	52,770000
0,792750	-0,109921	691,613	-0,075457	22,300000	52,770000
0,774756	-0,078680	692,513	-0,075444	22,310000	52,770000
0,756816	-0,031241	693,414	-0,075424	22,310000	52,770000
0,738790	0,000000	694,314	-0,075411	22,310000	52,810000
0,720759	0,149261	695,217	-0,075348	22,310000	52,810000
0,702738	0,039340	696,120	-0,075394	22,300000	52,800000
0,690745	0,211743	696,720	-0,075321	22,300000	52,800000