File: Nanoindentation Datenauswertung/data/PDMS/13.09/EM-PDMS-150-10-150-20nms-3um-5
Quasi static measurement routine
Tip parameters (shape,radius, material...)
13.09.2022

Piezo position[nm]	MEMS displ.[nm]	Time[ms]	Cap [pf]	Temp [°C]	Rh [%]
eoh
0,669975	-0,023141	1,060	-0,075665	22,300000	52,140000
0,678989	0,116864	1,512	-0,075606	22,300000	52,140000
0,687991	0,077523	1,963	-0,075623	22,300000	52,140000
0,696988	-0,141162	2,414	-0,075715	22,300000	52,140000
0,705963	0,070581	2,864	-0,075625	22,300000	52,180000
0,715004	0,046283	3,315	-0,075636	22,300000	52,180000
0,723967	-0,070581	3,767	-0,075685	22,300000	52,180000
0,733046	0,164303	4,218	-0,075586	22,300000	52,180000
0,741988	0,023141	4,668	-0,075646	22,300000	52,165000
0,750982	-0,157361	5,118	-0,075722	22,300000	52,165000
0,759983	-0,180502	5,568	-0,075731	22,300000	52,165000
0,769001	-0,172403	6,018	-0,075728	22,300000	52,165000
0,777955	0,062481	6,468	-0,075629	22,300000	52,165000
0,786983	-0,149261	6,919	-0,075718	22,300000	52,165000
0,795972	0,085623	7,370	-0,075619	22,300000	52,165000
0,805020	-0,086780	7,820	-0,075692	22,300000	52,165000
0,813991	-0,062481	8,271	-0,075682	22,300000	52,165000
0,823004	-0,109921	8,721	-0,075702	22,290000	52,135000
0,831906	-0,109921	9,172	-0,075702	22,290000	52,135000
0,840990	-0,149261	9,622	-0,075718	22,290000	52,135000
0,849972	-0,188602	10,074	-0,075735	22,290000	52,135000
0,858952	-0,377203	10,524	-0,075814	22,290000	52,135000
0,867993	-0,290423	10,974	-0,075778	22,290000	52,135000
0,876945	-0,134219	11,425	-0,075712	22,290000	52,135000
0,886000	0,062481	11,875	-0,075629	22,290000	52,135000
0,894945	0,008099	12,325	-0,075652	22,290000	52,135000
0,903971	0,054382	12,776	-0,075632	22,290000	52,160000
0,912926	0,023141	13,226	-0,075646	22,290000	52,160000
0,921954	-0,172403	13,676	-0,075728	22,290000	52,160000
0,931017	-0,165460	14,130	-0,075725	22,290000	52,160000
0,940002	-0,227942	14,580	-0,075751	22,300000	52,165000
0,948922	-0,094879	15,030	-0,075695	22,300000	52,165000
0,957967	-0,086780	15,481	-0,075692	22,300000	52,165000
0,966986	0,031241	15,932	-0,075642	22,300000	52,165000
0,975945	-0,267282	16,383	-0,075768	22,300000	52,165000
0,985045	0,077523	16,834	-0,075623	22,300000	52,165000
0,993994	-0,149261	17,284	-0,075718	22,300000	52,165000
1,002983	-0,305465	17,736	-0,075784	22,300000	52,165000
1,011985	-0,165460	18,186	-0,075725	22,300000	52,165000
1,020980	-0,203643	18,636	-0,075741	22,300000	52,180000
1,030016	-0,172403	19,086	-0,075728	22,300000	52,180000
1,038980	-0,031241	19,537	-0,075668	22,300000	52,180000
1,047969	-0,062481	19,988	-0,075682	22,300000	52,180000
1,056964	-0,086780	20,438	-0,075692	22,300000	52,180000
1,065976	-0,086780	20,888	-0,075692	22,300000	52,180000
1,074929	-0,259182	21,338	-0,075765	22,300000	52,180000
1,083983	-0,165460	21,788	-0,075725	22,300000	52,180000
1,093013	-0,031241	22,238	-0,075668	22,300000	52,180000
1,102001	-0,062481	22,688	-0,075682	22,300000	52,155000
1,110947	-0,298523	23,138	-0,075781	22,300000	52,155000
1,120011	-0,141162	23,590	-0,075715	22,300000	52,155000
1,128988	-0,361004	24,041	-0,075808	22,300000	52,155000
1,137966	-0,118021	24,493	-0,075705	22,300000	52,155000
1,146972	-0,062481	24,943	-0,075682	22,300000	52,155000
1,155936	-0,446627	25,393	-0,075844	22,300000	52,155000
1,164964	-0,219842	25,843	-0,075748	22,300000	52,155000
1,173971	-0,126120	26,293	-0,075708	22,300000	52,155000
1,182897	-0,172403	26,743	-0,075728	22,300000	52,195000
1,191967	0,000000	27,193	-0,075655	22,300000	52,195000
1,200990	-0,039340	27,643	-0,075672	22,300000	52,195000
1,209940	0,023141	28,095	-0,075646	22,300000	52,195000
1,219019	0,085623	28,546	-0,075619	22,300000	52,195000
1,227960	-0,180502	28,996	-0,075731	22,300000	52,195000
1,236944	-0,031241	29,446	-0,075668	22,300000	52,195000
1,245957	-0,242984	29,897	-0,075758	22,300000	52,195000
1,254927	-0,101822	30,348	-0,075698	22,300000	52,195000
1,263958	-0,259182	30,800	-0,075765	22,300000	52,180000
1,272972	-0,227942	31,252	-0,075751	22,300000	52,180000
1,281968	-0,251083	31,702	-0,075761	22,300000	52,180000
1,290972	-0,016199	32,153	-0,075662	22,300000	52,180000
1,299984	0,124963	32,603	-0,075603	22,300000	52,180000
1,308973	-0,118021	33,053	-0,075705	22,300000	52,180000
1,317963	-0,446627	33,504	-0,075844	22,300000	52,180000
1,327004	-0,188602	33,956	-0,075735	22,300000	52,180000
1,335959	-0,321664	34,406	-0,075791	22,300000	52,180000
1,344949	-0,180502	34,856	-0,075731	22,300000	52,165000
1,353928	0,077523	35,308	-0,075623	22,300000	52,165000
1,363015	0,000000	35,760	-0,075655	22,300000	52,165000
1,371914	0,070581	36,210	-0,075625	22,300000	52,165000
1,380943	-0,259182	36,662	-0,075765	22,300000	52,165000
1,389964	-0,267282	37,112	-0,075768	22,300000	52,165000
1,398977	-0,423486	37,562	-0,075834	22,300000	52,165000
1,407969	-0,126120	38,013	-0,075708	22,300000	52,165000
1,416936	-0,180502	38,463	-0,075731	22,300000	52,165000
1,425984	-0,195544	38,914	-0,075738	22,290000	52,200000
1,434976	-0,259182	39,366	-0,075765	22,290000	52,200000
1,444028	-0,274224	39,817	-0,075771	22,290000	52,200000
1,452994	-0,211743	40,267	-0,075745	22,290000	52,200000
1,461977	-0,352905	40,720	-0,075804	22,300000	52,165000
1,470944	-0,219842	41,171	-0,075748	22,300000	52,165000
1,479963	-0,126120	41,621	-0,075708	22,300000	52,165000
1,488962	-0,329763	42,072	-0,075794	22,300000	52,165000
1,497989	-0,313564	42,522	-0,075788	22,300000	52,165000
1,506962	-0,352905	42,972	-0,075804	22,300000	52,165000
1,515992	-0,321664	43,423	-0,075791	22,300000	52,165000
1,524987	-0,290423	43,873	-0,075778	22,300000	52,165000
1,534032	-0,141162	44,324	-0,075715	22,300000	52,165000
1,542949	-0,195544	44,774	-0,075738	22,300000	52,155000
1,551953	-0,259182	45,225	-0,075765	22,300000	52,155000
1,560921	-0,431585	45,676	-0,075837	22,300000	52,155000
1,569997	-0,337863	46,126	-0,075798	22,300000	52,155000
1,578983	-0,227942	46,576	-0,075751	22,300000	52,155000
1,587973	-0,134219	47,028	-0,075712	22,300000	52,155000
1,597038	-0,227942	47,481	-0,075751	22,300000	52,155000
1,605962	-0,016199	47,932	-0,075662	22,300000	52,155000
1,614973	-0,337863	48,382	-0,075798	22,300000	52,155000
1,623981	-0,031241	48,832	-0,075668	22,300000	52,140000
1,632897	-0,337863	49,283	-0,075798	22,300000	52,140000
1,641908	0,038183	49,733	-0,075639	22,300000	52,140000
1,650953	-0,203643	50,183	-0,075741	22,300000	52,140000
1,659974	-0,267282	50,633	-0,075768	22,290000	52,150000
1,668929	-0,023141	51,083	-0,075665	22,290000	52,150000
1,677974	-0,337863	51,533	-0,075798	22,290000	52,150000
1,686927	-0,267282	51,983	-0,075768	22,290000	52,150000
1,695947	-5,298199	52,433	-0,077891	22,290000	52,150000
1,704936	-5,667302	52,884	-0,078047	22,290000	52,150000
1,713915	-6,371955	53,334	-0,078344	22,290000	52,150000
1,722926	-7,038424	53,786	-0,078625	22,290000	52,150000
1,731926	-7,579930	54,236	-0,078854	22,290000	52,150000
1,741027	-8,504425	54,686	-0,079244	22,300000	52,180000
1,749955	-9,617521	55,136	-0,079714	22,300000	52,180000
1,758900	-10,926161	55,588	-0,080266	22,300000	52,180000
1,767941	-11,733792	56,038	-0,080607	22,300000	52,180000
1,776957	-11,999917	56,488	-0,080719	22,300000	52,180000
1,785890	-11,765033	56,939	-0,080620	22,300000	52,140000
1,794920	-12,282240	57,390	-0,080838	22,300000	52,140000
1,803952	-212,519207	57,841	-0,165338	22,300000	52,140000
1,812905	-216,766791	58,293	-0,167131	22,300000	52,140000
1,821923	-213,271299	58,744	-0,165656	22,300000	52,140000
1,830900	-210,411036	59,194	-0,164449	22,300000	52,140000
1,839967	-207,400354	59,645	-0,163178	22,300000	52,140000
1,848969	-201,341963	60,095	-0,160622	22,300000	52,140000
1,857939	-197,869613	60,546	-0,159156	22,310000	52,155000
1,866871	-193,009941	60,997	-0,157105	22,310000	52,155000
1,875923	-185,642911	61,448	-0,153997	22,310000	52,155000
1,884916	-182,735208	61,898	-0,152770	22,310000	52,155000
1,893912	-177,225267	62,348	-0,150444	22,310000	52,155000
1,902887	-171,612346	62,798	-0,148076	22,300000	52,180000
1,911941	-164,401520	63,250	-0,145033	22,300000	52,180000
1,920945	-158,914720	63,700	-0,142717	22,300000	52,180000
1,929952	-154,016865	64,152	-0,140650	22,300000	52,180000
1,938886	-150,137228	64,602	-0,139013	22,300000	52,140000
1,947911	-144,399345	65,052	-0,136592	22,300000	52,140000
1,956922	-139,437852	65,502	-0,134498	22,300000	52,140000
1,965923	-132,258266	65,953	-0,131468	22,300000	52,140000
1,974864	-125,681511	66,403	-0,128693	22,300000	52,140000
1,983876	-121,919894	66,854	-0,127105	22,300000	52,140000
1,992918	-115,053873	67,305	-0,124208	22,300000	52,140000
2,001889	-110,594546	67,756	-0,122326	22,300000	52,140000
2,010892	-103,171977	68,206	-0,119194	22,300000	52,140000
2,019983	-99,346721	68,657	-0,117580	22,310000	52,195000
2,028997	-92,723684	69,108	-0,114785	22,310000	52,195000
2,037903	-87,448626	69,559	-0,112559	22,310000	52,195000
2,046951	-80,755008	70,009	-0,109734	22,310000	52,195000
2,055928	-76,396346	70,460	-0,107895	22,310000	52,195000
2,064916	-68,339705	70,910	-0,104495	22,300000	52,195000
2,073927	-64,601229	71,360	-0,102917	22,300000	52,195000
2,082888	-57,953893	71,810	-0,100112	22,300000	52,195000
2,091909	-52,969259	72,262	-0,098008	22,300000	52,195000
2,100944	-44,724017	72,713	-0,094529	22,300000	52,195000
2,109903	-39,041673	73,164	-0,092131	22,300000	52,195000
2,118924	-33,021466	73,616	-0,089590	22,300000	52,195000
2,127894	-29,071247	74,066	-0,087923	22,300000	52,195000
2,136933	-23,122778	74,518	-0,085413	22,300000	52,155000
2,145912	-16,334281	74,968	-0,082548	22,300000	52,155000
2,154935	-11,404028	75,419	-0,080468	22,300000	52,155000
2,163958	-5,408120	75,870	-0,077938	22,300000	52,155000
2,172850	0,627129	76,320	-0,075391	22,300000	52,155000
2,181940	6,756100	76,771	-0,072804	22,300000	52,195000
2,190902	13,379138	77,223	-0,070009	22,300000	52,195000
2,199870	18,772216	77,673	-0,067733	22,300000	52,195000
2,208921	26,147345	78,123	-0,064621	22,300000	52,195000
2,217895	33,146429	78,574	-0,061667	22,300000	52,180000
2,226907	37,104747	79,024	-0,059997	22,300000	52,180000
2,235868	44,699719	79,475	-0,056792	22,300000	52,180000
2,244938	49,904195	79,925	-0,054596	22,300000	52,180000
2,253928	57,295524	80,375	-0,051477	22,300000	52,180000
2,262939	61,723610	80,826	-0,049608	22,300000	52,180000
2,271930	66,881804	81,277	-0,047431	22,300000	52,180000
2,280917	73,119539	81,728	-0,044799	22,300000	52,180000
2,289938	80,879971	82,179	-0,041524	22,300000	52,180000
2,298882	87,824672	82,630	-0,038593	22,290000	52,160000
2,307899	91,578190	83,080	-0,037009	22,290000	52,160000
2,316928	99,926411	83,532	-0,033486	22,290000	52,160000
2,325943	104,612522	83,982	-0,031509	22,290000	52,160000
2,334949	109,683936	84,433	-0,029369	22,290000	52,160000
2,343844	116,095231	84,884	-0,026663	22,290000	52,160000
2,352911	124,356672	85,335	-0,023177	22,290000	52,160000
2,361914	128,142587	85,786	-0,021579	22,290000	52,160000
2,370925	135,056048	86,236	-0,018662	22,290000	52,160000
2,379933	140,331106	86,686	-0,016436	22,300000	52,165000
2,388882	146,553799	87,136	-0,013810	22,300000	52,165000
2,397919	152,378462	87,587	-0,011352	22,300000	52,165000
2,406893	159,619372	88,038	-0,008296	22,300000	52,165000
2,415967	164,636404	88,488	-0,006179	22,300000	52,165000
2,424952	172,897845	88,938	-0,002692	22,300000	52,205000
2,433970	176,715001	89,388	-0,001082	22,300000	52,205000
2,442944	183,494242	89,840	0,001779	22,300000	52,205000
2,451915	188,604997	90,290	0,003936	22,300000	52,205000
2,460929	194,765208	90,741	0,006536	22,300000	52,180000
2,469940	203,042848	91,192	0,010029	22,300000	52,180000
2,478919	207,063648	91,643	0,011726	22,300000	52,180000
2,487931	214,399437	92,093	0,014821	22,300000	52,180000
2,496932	220,214844	92,544	0,017275	22,300000	52,180000
2,505968	225,740984	92,995	0,019607	22,300000	52,180000
2,514994	233,688861	93,445	0,022961	22,300000	52,180000
2,523899	238,517291	93,895	0,024999	22,300000	52,180000
2,532905	243,776150	94,346	0,027218	22,300000	52,180000
2,541934	249,937519	94,798	0,029818	22,300000	52,180000
2,550875	255,266958	95,248	0,032067	22,300000	52,180000
2,559874	263,943785	95,698	0,035729	22,300000	52,180000
2,568954	269,476868	96,148	0,038064	22,300000	52,180000
2,577913	274,007933	96,598	0,039976	22,300000	52,180000
2,586956	281,908370	97,048	0,043310	22,300000	52,180000
2,595832	285,906028	97,500	0,044997	22,300000	52,180000
2,604975	292,215501	97,950	0,047660	22,300000	52,180000
2,613916	298,406953	98,400	0,050272	22,300000	52,180000
2,622947	306,425411	98,850	0,053656	22,300000	52,155000
2,631846	312,859847	99,301	0,056372	22,300000	52,155000
2,640860	317,257850	99,754	0,058228	22,300000	52,155000
2,649947	325,345731	100,205	0,061641	22,300000	52,155000
2,658940	329,327190	100,657	0,063321	22,300000	52,155000
2,667908	335,700302	101,107	0,066010	22,300000	52,155000
2,676973	341,845472	101,558	0,068604	22,300000	52,155000
2,685936	348,938278	102,009	0,071597	22,300000	52,155000
2,694889	356,744992	102,461	0,074891	22,300000	52,155000
2,703918	360,632729	102,911	0,076532	22,290000	52,160000
2,712899	366,699219	103,361	0,079092	22,290000	52,160000
2,721927	373,345398	103,811	0,081896	22,290000	52,160000
2,730847	382,061565	104,261	0,085575	22,290000	52,160000
2,739918	385,698219	104,712	0,087109	22,290000	52,200000
2,748824	392,831522	105,163	0,090120	22,290000	52,200000
2,757878	398,412045	105,614	0,092475	22,290000	52,200000
2,766928	404,281833	106,065	0,094952	22,290000	52,200000
2,775857	413,131063	106,516	0,098686	22,290000	52,200000
2,784830	417,301124	106,967	0,100446	22,300000	52,180000
2,793861	423,242650	107,418	0,102953	22,300000	52,180000
2,802910	430,571497	107,868	0,106046	22,300000	52,180000
2,811918	438,142171	108,319	0,109241	22,300000	52,180000
2,820895	442,218509	108,772	0,110961	22,300000	52,180000
2,829901	449,147012	109,222	0,113885	22,300000	52,180000
2,838859	454,955476	109,673	0,116336	22,300000	52,180000
2,847829	462,455569	110,124	0,119501	22,300000	52,180000
2,856894	469,807557	110,575	0,122604	22,290000	52,190000
2,865908	475,090714	111,025	0,124833	22,290000	52,190000
2,874873	480,342630	111,475	0,127049	22,290000	52,190000
2,883916	487,333614	111,926	0,130000	22,290000	52,190000
2,892896	493,102738	112,376	0,132434	22,290000	52,190000
2,901920	499,732718	112,828	0,135232	22,290000	52,190000
2,910885	508,041599	113,280	0,138738	22,290000	52,190000
2,919891	512,328523	113,733	0,140547	22,290000	52,190000
2,928923	519,445627	114,184	0,143551	22,290000	52,190000
2,937910	527,432844	114,635	0,146921	22,300000	52,165000
2,946860	531,131979	115,085	0,148482	22,300000	52,165000
2,955925	540,176753	115,536	0,152299	22,300000	52,165000
2,964852	546,832189	115,987	0,155108	22,300000	52,165000
2,973836	552,835040	116,439	0,157641	22,300000	52,165000
2,982811	557,201801	116,892	0,159484	22,300000	52,165000
2,991887	563,573756	117,343	0,162173	22,300000	52,165000
3,000895	572,477368	117,793	0,165930	22,300000	52,165000
3,009872	577,243317	118,244	0,167941	22,300000	52,165000
3,018865	582,643337	118,694	0,170220	22,300000	52,155000
3,027820	591,688111	119,146	0,174037	22,300000	52,155000
3,036839	596,759525	119,596	0,176177	22,300000	52,155000
3,045849	602,316906	120,047	0,178522	22,300000	52,155000
3,054886	609,245409	120,498	0,181446	22,300000	52,155000
3,063853	615,233218	120,949	0,183973	22,300000	52,155000
3,072901	621,770633	121,400	0,186732	22,300000	52,155000
3,081868	630,352581	121,850	0,190354	22,300000	52,155000
3,090779	634,640662	122,301	0,192163	22,300000	52,155000
3,099836	640,754591	122,751	0,194743	22,300000	52,180000
3,108862	647,479451	123,202	0,197581	22,300000	52,180000
3,117889	656,547366	123,654	0,201408	22,300000	52,180000
3,126820	660,435103	124,104	0,203048	22,300000	52,180000
3,135856	669,614096	124,554	0,206922	22,300000	52,180000
3,144817	673,626796	125,004	0,208615	22,300000	52,180000
3,153845	680,218593	125,454	0,211397	22,300000	52,180000
3,162862	686,355663	125,904	0,213987	22,300000	52,180000
3,171761	694,334780	126,354	0,217354	22,300000	52,180000
3,180890	699,217593	126,804	0,219415	22,300000	52,180000
3,189839	706,122954	127,254	0,222329	22,300000	52,180000
3,198838	715,026566	127,705	0,226086	22,300000	52,180000
3,207818	719,502092	128,155	0,227975	22,300000	52,180000
3,216848	725,616021	128,605	0,230555	22,290000	52,150000
3,225788	732,112939	129,055	0,233296	22,290000	52,150000
3,234802	738,289349	129,505	0,235903	22,290000	52,150000
3,243849	746,064823	129,956	0,239184	22,290000	52,150000
3,252810	754,137663	130,406	0,242591	22,290000	52,150000
3,261800	758,095981	130,856	0,244261	22,300000	52,195000
3,270797	764,751416	131,306	0,247070	22,300000	52,195000
3,279802	773,638829	131,757	0,250820	22,300000	52,195000
3,288890	780,199385	132,207	0,253589	22,300000	52,195000
3,297791	784,588131	132,658	0,255441	22,300000	52,195000
3,306835	792,537165	133,111	0,258795	22,300000	52,195000
3,315831	797,694202	133,562	0,260972	22,300000	52,195000
3,324801	804,693285	134,012	0,263925	22,300000	52,195000
3,333848	810,602414	134,462	0,266419	22,300000	52,195000
3,342857	817,641995	134,912	0,269390	22,300000	52,140000
3,351851	824,672319	135,362	0,272356	22,300000	52,140000
3,360787	830,237800	135,814	0,274705	22,300000	52,140000
3,369712	837,314407	136,264	0,277691	22,300000	52,140000
3,378813	843,380896	136,714	0,280251	22,300000	52,180000
3,387787	849,785249	137,164	0,282954	22,300000	52,180000
3,396844	856,212743	137,616	0,285667	22,300000	52,180000
3,405790	864,912711	138,066	0,289338	22,300000	52,180000
3,414793	869,465760	138,517	0,291259	22,300000	52,180000
3,423805	876,167478	138,967	0,294087	22,300000	52,165000
3,432826	882,704893	139,417	0,296846	22,300000	52,165000
3,441768	888,951885	139,869	0,299482	22,300000	52,165000
3,450801	898,082281	140,321	0,303335	22,300000	52,165000
3,459785	902,181761	140,771	0,305065	22,300000	52,165000
3,468790	910,796107	141,222	0,308701	22,300000	52,165000
3,477731	917,755850	141,674	0,311638	22,300000	52,165000
3,486820	924,191443	142,125	0,314354	22,300000	52,165000
3,495805	928,588289	142,577	0,316209	22,300000	52,220000
3,504814	935,807215	143,028	0,319255	22,300000	52,220000
3,513786	943,205485	143,479	0,322377	22,300000	52,220000
3,522762	948,050115	143,931	0,324422	22,300000	52,220000
3,531704	955,942452	144,381	0,327752	22,300000	52,220000
3,540794	961,256850	144,831	0,329995	22,300000	52,165000
3,549714	969,878138	145,281	0,333633	22,300000	52,165000
3,558772	976,689777	145,732	0,336508	22,300000	52,165000
3,567761	980,976701	146,183	0,338317	22,300000	52,165000
3,576775	990,060815	146,634	0,342150	22,290000	52,175000
3,585738	994,490059	147,085	0,344020	22,290000	52,175000
3,594801	1002,860264	147,536	0,347552	22,290000	52,175000
3,603708	1007,351988	147,986	0,349447	22,290000	52,175000
3,612785	1014,084947	148,437	0,352289	22,290000	52,175000
3,621754	1020,151437	148,888	0,354849	22,290000	52,190000
3,630784	1028,898845	149,338	0,358540	22,290000	52,190000
3,639752	1033,515532	149,788	0,360488	22,290000	52,190000
3,648734	1039,926827	150,238	0,363194	22,290000	52,190000
3,657791	1048,948460	150,690	0,367001	22,300000	52,180000
3,666744	1054,254758	151,141	0,369240	22,300000	52,180000
3,669729	1057,248084	151,591	0,370503	22,300000	52,180000
3,669737	1056,786415	152,042	0,370309	22,300000	52,180000
3,669789	1056,371029	152,492	0,370133	22,300000	52,180000
3,669785	1056,119946	152,942	0,370027	22,290000	52,175000
3,669745	1055,783240	153,393	0,369885	22,290000	52,175000
3,669748	1055,696460	153,844	0,369849	22,290000	52,175000
3,669644	1055,171153	154,295	0,369627	22,290000	52,175000
3,669730	1055,085530	154,747	0,369591	22,290000	52,175000
3,669744	1054,427160	155,200	0,369313	22,290000	52,175000
3,669699	1054,716427	155,650	0,369435	22,290000	52,175000
3,669778	1054,434103	156,100	0,369316	22,290000	52,175000
3,669684	1054,049957	156,551	0,369154	22,300000	52,180000
3,669792	1053,846314	157,001	0,369068	22,300000	52,180000
3,669755	1053,815073	157,453	0,369055	22,300000	52,180000
3,669684	1053,540849	157,905	0,368939	22,300000	52,180000
3,669659	1053,352247	158,355	0,368859	22,300000	52,180000
3,669786	1053,148604	158,805	0,368773	22,300000	52,140000
3,669685	1053,196044	159,255	0,368793	22,300000	52,140000
3,669776	1053,008599	159,707	0,368714	22,300000	52,140000
3,669776	1052,733218	160,158	0,368598	22,300000	52,140000
3,669744	1052,435852	160,608	0,368473	22,300000	52,140000
3,669769	1052,325931	161,058	0,368426	22,300000	52,140000
3,666733	1052,334031	161,510	0,368430	22,300000	52,140000
3,657698	1045,193785	161,960	0,365417	22,300000	52,140000
3,648713	1035,889829	162,410	0,361490	22,300000	52,140000
3,639719	1030,724693	162,861	0,359311	22,300000	52,180000
3,630728	1023,364605	163,312	0,356205	22,300000	52,180000
3,621791	1015,605330	163,762	0,352930	22,300000	52,180000
3,612683	1008,723110	164,213	0,350026	22,300000	52,180000
3,603734	1001,825848	164,664	0,347115	22,290000	52,160000
3,594721	994,976026	165,114	0,344225	22,290000	52,160000
3,585734	985,304123	165,565	0,340143	22,290000	52,160000
3,576742	980,648095	166,015	0,338178	22,290000	52,160000
3,567755	971,524641	166,465	0,334328	22,290000	52,160000
3,558770	966,853571	166,916	0,332357	22,290000	52,160000
3,549754	959,994492	167,367	0,329462	22,290000	52,160000
3,540764	952,870446	167,818	0,326456	22,290000	52,160000
3,531732	945,487217	168,270	0,323340	22,290000	52,160000
3,522778	938,989142	168,722	0,320598	22,300000	52,155000
3,513765	932,131220	169,173	0,317704	22,300000	52,155000
3,504725	923,987800	169,624	0,314268	22,300000	52,155000
3,495786	915,835123	170,074	0,310827	22,300000	52,155000
3,486716	911,398937	170,524	0,308955	22,300000	52,155000
3,477784	902,173662	170,974	0,305062	22,290000	52,175000
3,468836	895,707985	171,426	0,302333	22,290000	52,175000
3,459762	889,507276	171,876	0,299717	22,290000	52,175000
3,450767	883,018457	172,327	0,296979	22,290000	52,175000
3,441758	876,967010	172,779	0,294425	22,290000	52,175000
3,432825	869,834864	173,230	0,291415	22,290000	52,175000
3,423806	863,054465	173,681	0,288554	22,290000	52,175000
3,414816	856,345805	174,132	0,285723	22,290000	52,175000
3,405798	847,527816	174,583	0,282001	22,300000	52,195000
3,396802	842,801207	175,033	0,280007	22,300000	52,195000
3,387811	835,237476	175,484	0,276815	22,300000	52,195000
3,378852	829,241567	175,934	0,274285	22,300000	52,195000
3,369844	821,050707	176,384	0,270828	22,300000	52,195000
3,360832	813,087789	176,834	0,267468	22,290000	52,160000
3,351907	808,078856	177,285	0,265354	22,290000	52,160000
3,342776	802,184769	177,735	0,262867	22,290000	52,160000
3,333825	795,491151	178,185	0,260042	22,290000	52,160000
3,324881	786,375796	178,635	0,256195	22,290000	52,160000
3,315788	780,842713	179,085	0,253860	22,290000	52,160000
3,306837	773,387746	179,536	0,250714	22,290000	52,160000
3,297909	767,808381	179,987	0,248360	22,290000	52,160000
3,288873	761,412128	180,438	0,245661	22,290000	52,160000
3,279820	754,569248	180,888	0,242773	22,300000	52,165000
3,270855	748,016791	181,340	0,240008	22,300000	52,165000
3,261862	740,359338	181,790	0,236776	22,300000	52,165000
3,252857	734,535832	182,240	0,234319	22,300000	52,165000
3,243822	727,826015	182,691	0,231487	22,300000	52,155000
3,234823	720,301624	183,141	0,228312	22,300000	52,155000
3,225873	714,313814	183,593	0,225785	22,300000	52,155000
3,216822	706,984967	184,043	0,222692	22,300000	52,155000
3,207821	698,754767	184,493	0,219219	22,300000	52,155000
3,198850	694,459743	184,945	0,217407	22,290000	52,160000
3,189885	685,579273	185,396	0,213659	22,290000	52,160000
3,180895	681,103747	185,846	0,211771	22,290000	52,160000
3,171796	673,556215	186,298	0,208585	22,290000	52,160000
3,162843	667,693369	186,749	0,206111	22,290000	52,160000
3,153889	660,991651	187,200	0,203283	22,290000	52,160000
3,144872	652,158620	187,650	0,199556	22,290000	52,160000
3,135850	647,949219	188,103	0,197779	22,290000	52,160000
3,126880	640,158703	188,553	0,194492	22,300000	52,155000
3,117844	632,383229	189,004	0,191210	22,300000	52,155000
3,108874	625,980034	189,455	0,188508	22,300000	52,155000
3,099873	618,823589	189,906	0,185488	22,300000	52,155000
3,090864	613,015125	190,356	0,183037	22,300000	52,155000
3,081833	608,352155	190,808	0,181069	22,290000	52,190000
3,072868	600,271216	191,258	0,177659	22,290000	52,190000
3,063834	592,651946	191,708	0,174444	22,290000	52,190000
3,054871	585,692202	192,158	0,171507	22,290000	52,190000
3,045952	579,170986	192,609	0,168755	22,290000	52,190000
3,036827	575,009025	193,060	0,166999	22,290000	52,190000
3,027920	568,080522	193,511	0,164075	22,290000	52,190000
3,018861	561,841630	193,962	0,161442	22,290000	52,190000
3,009924	553,038683	194,412	0,157727	22,290000	52,190000
3,000804	548,579356	194,863	0,155845	22,290000	52,175000
2,991895	541,565231	195,314	0,152885	22,290000	52,175000
2,982822	535,302040	195,764	0,150242	22,290000	52,175000
2,973834	527,597147	196,215	0,146991	22,290000	52,175000
2,964854	519,351905	196,666	0,143511	22,300000	52,180000
2,955909	515,385488	197,118	0,141837	22,300000	52,180000
2,946859	509,107255	197,571	0,139188	22,300000	52,180000
2,937902	502,452977	198,021	0,136380	22,300000	52,180000
2,928914	493,877971	198,472	0,132761	22,300000	52,180000
2,919906	486,847647	198,922	0,129794	22,300000	52,180000
2,910952	480,224609	199,375	0,127000	22,300000	52,180000
2,901881	473,585373	199,826	0,124198	22,300000	52,180000
2,892889	469,282250	200,276	0,122382	22,300000	52,180000
2,883812	462,761034	200,726	0,119630	22,300000	52,180000
2,874859	456,216677	201,176	0,116868	22,300000	52,180000
2,865833	450,102747	201,626	0,114288	22,300000	52,180000
2,856885	440,713168	202,077	0,110326	22,300000	52,180000
2,847860	436,175161	202,528	0,108411	22,300000	52,180000
2,838848	427,733218	202,978	0,104848	22,300000	52,205000
2,829903	423,901020	203,428	0,103231	22,300000	52,205000
2,820886	414,777566	203,879	0,099381	22,300000	52,205000
2,811908	410,921070	204,332	0,097753	22,300000	52,205000
2,802901	404,306132	204,782	0,094962	22,300000	52,195000
2,793869	397,118446	205,232	0,091929	22,300000	52,195000
2,784886	389,436695	205,684	0,088687	22,300000	52,195000
2,775815	384,389579	206,135	0,086557	22,300000	52,195000
2,766910	375,712752	206,587	0,082896	22,300000	52,205000
2,757919	371,245325	207,038	0,081010	22,300000	52,205000
2,748948	364,096981	207,489	0,077994	22,300000	52,205000
2,739893	358,383396	207,940	0,075583	22,300000	52,205000
2,730884	351,540516	208,390	0,072695	22,300000	52,205000
2,721918	345,129221	208,841	0,069989	22,300000	52,155000
2,712900	338,608005	209,291	0,067237	22,300000	52,155000
2,703915	332,384155	209,742	0,064611	22,300000	52,155000
2,694856	325,792358	210,192	0,061829	22,300000	52,155000
2,685931	319,443545	210,642	0,059150	22,300000	52,165000
2,676945	312,805465	211,092	0,056349	22,300000	52,165000
2,667825	306,346731	211,543	0,053623	22,300000	52,165000
2,658880	297,137654	211,993	0,049737	22,300000	52,165000
2,649892	291,916978	212,443	0,047534	22,300000	52,165000
2,640914	284,604330	212,894	0,044448	22,300000	52,165000
2,631941	279,800198	213,344	0,042420	22,300000	52,165000
2,622934	271,327014	213,795	0,038845	22,300000	52,165000
2,613880	267,493659	214,245	0,037227	22,300000	52,165000
2,604921	260,870622	214,695	0,034432	22,290000	52,190000
2,595961	253,902779	215,146	0,031492	22,290000	52,190000
2,586899	246,347147	215,597	0,028303	22,290000	52,190000
2,577889	241,699219	216,049	0,026342	22,290000	52,190000
2,568953	234,989401	216,500	0,023510	22,290000	52,190000
2,559932	228,625546	216,950	0,020825	22,290000	52,190000
2,550866	220,262283	217,401	0,017295	22,290000	52,190000
2,541941	215,911721	217,852	0,015459	22,290000	52,190000
2,532884	209,265542	218,303	0,012655	22,290000	52,190000
2,523937	200,706735	218,753	0,009043	22,300000	52,180000
2,514956	195,769541	219,203	0,006959	22,300000	52,180000
2,505878	188,025307	219,654	0,003691	22,300000	52,180000
2,496924	183,463002	220,105	0,001766	22,300000	52,180000
2,487894	177,514533	220,555	-0,000744	22,300000	52,140000
2,478955	171,313824	221,006	-0,003361	22,300000	52,140000
2,469967	163,201644	221,456	-0,006784	22,300000	52,140000
2,460945	156,256942	221,907	-0,009715	22,300000	52,140000
2,451892	152,103081	222,358	-0,011468	22,300000	52,140000
2,442932	145,778566	222,811	-0,014137	22,290000	52,160000
2,433952	139,507276	223,261	-0,016783	22,290000	52,160000
2,424930	130,830448	223,712	-0,020445	22,290000	52,160000
2,415920	126,606006	224,162	-0,022228	22,290000	52,160000
2,406919	120,022308	224,612	-0,025006	22,290000	52,200000
2,397897	111,878888	225,063	-0,028442	22,290000	52,200000
2,388933	106,909295	225,514	-0,030540	22,290000	52,200000
2,379945	101,407453	225,965	-0,032861	22,290000	52,200000
2,370917	95,121122	226,416	-0,035514	22,290000	52,200000
2,361854	89,328856	226,867	-0,037958	22,300000	52,155000
2,352928	82,219852	227,317	-0,040958	22,300000	52,155000
2,343895	74,711660	227,768	-0,044127	22,300000	52,155000
2,334955	69,052457	228,219	-0,046515	22,300000	52,155000
2,325937	62,444461	228,670	-0,049304	22,300000	52,220000
2,316949	57,742150	229,120	-0,051288	22,300000	52,220000
2,307855	52,012367	229,571	-0,053706	22,300000	52,220000
2,298885	43,296199	230,021	-0,057384	22,300000	52,220000
2,289925	37,700635	230,472	-0,059746	22,300000	52,220000
2,280968	33,985301	230,922	-0,061313	22,300000	52,165000
2,271910	27,597147	231,373	-0,064009	22,300000	52,165000
2,262920	21,679919	231,824	-0,066506	22,300000	52,165000
2,253936	14,876379	232,275	-0,069377	22,300000	52,165000
2,244907	9,742484	232,725	-0,071544	22,300000	52,165000
2,235832	1,026316	233,176	-0,075222	22,300000	52,165000
2,226890	-5,055215	233,627	-0,077789	22,300000	52,165000
2,217896	-10,683177	234,077	-0,080164	22,300000	52,165000
2,208894	-16,115595	234,528	-0,082456	22,300000	52,165000
2,199867	-22,801114	234,979	-0,085277	22,290000	52,160000
2,190913	-27,723267	235,430	-0,087354	22,290000	52,160000
2,181904	-33,311889	235,882	-0,089713	22,290000	52,160000
2,172888	-39,457059	236,332	-0,092306	22,290000	52,160000
2,163885	-45,773475	236,783	-0,094972	22,310000	52,165000
2,154865	-53,573247	237,233	-0,098263	22,310000	52,165000
2,145958	-58,549782	237,685	-0,100363	22,310000	52,165000
2,136939	-66,466417	238,135	-0,103704	22,310000	52,165000
2,127892	-72,556048	238,585	-0,106274	22,310000	52,165000
2,118893	-76,929752	239,035	-0,108120	22,310000	52,165000
2,109924	-84,038757	239,487	-0,111120	22,310000	52,165000
2,100930	-88,663544	239,938	-0,113071	22,310000	52,165000
2,091950	-94,503249	240,388	-0,115536	22,310000	52,165000
2,082928	-100,256174	240,840	-0,117963	22,300000	52,140000
2,073887	-108,956143	241,292	-0,121635	22,300000	52,140000
2,064921	-114,474184	241,744	-0,123963	22,300000	52,140000
2,055932	-120,337030	242,194	-0,126438	22,300000	52,140000
2,046945	-125,282324	242,645	-0,128524	22,300000	52,140000
2,037939	-129,930252	243,095	-0,130486	22,300000	52,140000
2,028914	-136,146003	243,546	-0,133109	22,300000	52,140000
2,019933	-143,443609	243,996	-0,136188	22,300000	52,140000
2,010893	-147,668052	244,446	-0,137971	22,300000	52,140000
2,001948	-154,745816	244,896	-0,140958	22,290000	52,160000
1,992951	-159,126463	245,346	-0,142807	22,290000	52,160000
1,983930	-166,752675	245,797	-0,146025	22,290000	52,160000
1,974914	-170,891495	246,248	-0,147771	22,290000	52,160000
1,965921	-178,643828	246,699	-0,151043	22,290000	52,200000
1,956958	-182,499167	247,152	-0,152670	22,290000	52,200000
1,947935	-188,652436	247,602	-0,155267	22,290000	52,200000
1,938971	-195,212992	248,053	-0,158035	22,290000	52,200000
1,929923	-201,271383	248,504	-0,160592	22,290000	52,200000
1,920918	-206,876203	248,954	-0,162957	22,290000	52,225000
1,912005	-215,466251	249,404	-0,166582	22,290000	52,225000
1,902930	-219,487050	249,854	-0,168279	22,290000	52,225000
1,893943	-226,188768	250,305	-0,171107	22,290000	52,225000
1,885008	-233,681918	250,755	-0,174269	22,290000	52,225000
1,875887	-237,898262	251,206	-0,176048	22,290000	52,225000
1,866917	-244,035332	251,658	-0,178638	22,290000	52,225000
1,857990	-249,709577	252,110	-0,181033	22,290000	52,225000
1,848989	-257,015283	252,561	-0,184116	22,300000	52,155000
1,839940	-264,273549	253,011	-0,187179	22,300000	52,155000
1,830983	-268,184427	253,463	-0,188829	22,300000	52,155000
1,821938	-275,974943	253,914	-0,192117	22,300000	52,155000
1,812991	-279,667136	254,365	-0,193675	22,300000	52,155000
1,803890	-286,086530	254,816	-0,196384	22,300000	52,155000
1,794941	-290,695118	255,266	-0,198329	22,300000	52,155000
1,785934	-297,467417	255,716	-0,201187	22,300000	52,155000
1,776951	-301,378295	256,167	-0,202837	22,300000	52,155000
1,767946	-308,400520	256,618	-0,205800	22,300000	52,195000
1,758973	-313,463835	257,068	-0,207937	22,300000	52,195000
1,749994	-318,786332	257,519	-0,210183	22,300000	52,195000
1,740969	-324,140070	257,970	-0,212442	22,300000	52,195000
1,731976	-332,259192	258,421	-0,215869	22,300000	52,195000
1,722974	-337,699709	258,873	-0,218165	22,300000	52,205000
1,713956	-343,986041	259,324	-0,220817	22,300000	52,205000
1,704968	-346,800022	259,774	-0,222005	22,300000	52,205000
1,695993	-354,528057	260,224	-0,225266	22,300000	52,205000
1,686907	-357,435760	260,674	-0,226493	22,310000	52,165000
1,677962	-364,073839	261,125	-0,229294	22,310000	52,165000
1,668947	-369,153353	261,575	-0,231438	22,310000	52,165000
1,659911	-372,962409	262,026	-0,233045	22,310000	52,165000
1,650944	-378,511691	262,477	-0,235387	22,310000	52,165000
1,641934	-384,115355	262,929	-0,237752	22,310000	52,180000
1,633045	-391,780908	263,380	-0,240987	22,310000	52,180000
1,624039	-394,760349	263,831	-0,242244	22,310000	52,180000
1,614972	-402,856330	264,282	-0,245661	22,310000	52,180000
1,605943	-406,555465	264,732	-0,247222	22,300000	52,180000
1,596919	-412,285249	265,182	-0,249640	22,300000	52,180000
1,587938	-418,320498	265,633	-0,252187	22,300000	52,180000
1,578975	-423,869779	266,085	-0,254528	22,300000	52,180000
1,570007	-429,497741	266,536	-0,256903	22,300000	52,180000
1,561023	-436,951551	266,988	-0,260049	22,290000	52,175000
1,551951	-440,839288	267,438	-0,261689	22,290000	52,175000
1,542971	-446,859495	267,890	-0,264230	22,290000	52,175000
1,533977	-449,813481	268,340	-0,265477	22,290000	52,175000
1,524988	-456,232875	268,790	-0,268186	22,310000	52,180000
1,515990	-460,136811	269,241	-0,269833	22,310000	52,180000
1,506929	-466,516865	269,692	-0,272525	22,310000	52,180000
1,498014	-470,772549	270,143	-0,274321	22,310000	52,180000
1,488973	-475,812722	270,593	-0,276448	22,290000	52,160000
1,479965	-482,608162	271,044	-0,279316	22,290000	52,160000
1,470911	-486,479700	271,494	-0,280950	22,290000	52,160000
1,461965	-492,867854	271,944	-0,283646	22,290000	52,160000
1,453020	-495,979201	272,394	-0,284958	22,290000	52,160000
1,444032	-502,751500	272,844	-0,287816	22,290000	52,160000
1,434983	-508,198960	273,295	-0,290115	22,290000	52,160000
1,425989	-512,846888	273,745	-0,292077	22,290000	52,160000
1,416969	-515,386645	274,196	-0,293148	22,290000	52,160000
1,407950	-522,761774	274,647	-0,296261	22,290000	52,190000
1,398986	-525,795598	275,098	-0,297541	22,290000	52,190000
1,389889	-532,284416	275,548	-0,300279	22,290000	52,190000
1,380911	-536,062232	275,998	-0,301874	22,290000	52,190000
1,371939	-541,737633	276,450	-0,304269	22,290000	52,190000
1,363036	-549,135904	276,900	-0,307391	22,310000	52,195000
1,353975	-554,144837	277,351	-0,309504	22,310000	52,195000
1,344980	-556,865096	277,801	-0,310652	22,310000	52,195000
1,336009	-561,465584	278,251	-0,312594	22,310000	52,195000
1,326904	-567,837539	278,702	-0,315283	22,300000	52,165000
1,317972	-571,623454	279,154	-0,316880	22,300000	52,165000
1,308981	-578,325172	279,605	-0,319708	22,300000	52,165000
1,300002	-581,037332	280,055	-0,320853	22,300000	52,165000
1,291009	-585,309214	280,506	-0,322656	22,300000	52,165000
1,281942	-591,806132	280,956	-0,325397	22,290000	52,135000
1,273023	-593,656278	281,407	-0,326178	22,290000	52,135000
1,263921	-597,018707	281,858	-0,327597	22,290000	52,135000
1,254986	-602,551790	282,308	-0,329932	22,290000	52,135000
1,245984	-604,158953	282,758	-0,330610	22,300000	52,180000
1,237014	-609,598313	283,208	-0,332906	22,300000	52,180000
1,228043	-613,509192	283,659	-0,334556	22,300000	52,180000
1,218955	-616,009608	284,110	-0,335611	22,300000	52,180000
1,209967	-620,509432	284,562	-0,337510	22,300000	52,165000
1,201029	-624,648252	285,013	-0,339257	22,300000	52,165000
1,191928	-630,879045	285,463	-0,341886	22,300000	52,165000
1,182960	-633,598147	285,914	-0,343034	22,300000	52,165000
1,173987	-638,889403	286,365	-0,345267	22,300000	52,165000
1,165030	-645,088955	286,815	-0,347883	22,290000	52,150000
1,155977	-647,612513	287,266	-0,348948	22,290000	52,150000
1,146945	-652,064897	287,716	-0,350827	22,290000	52,150000
1,137948	-657,308714	288,167	-0,353040	22,290000	52,150000
1,128940	-659,205143	288,619	-0,353840	22,300000	52,180000
1,119978	-663,327764	289,069	-0,355580	22,300000	52,180000
1,111003	-664,880545	289,520	-0,356235	22,300000	52,180000
1,101956	-665,389653	289,971	-0,356450	22,300000	52,180000
1,093025	-668,735884	290,421	-0,357862	22,300000	52,180000
1,083984	-672,067073	290,871	-0,359268	22,290000	52,200000
1,074998	-677,256507	291,322	-0,361458	22,290000	52,200000
1,065989	-679,788165	291,772	-0,362526	22,290000	52,200000
1,056912	-681,958818	292,223	-0,363442	22,290000	52,200000
1,047920	-684,615438	292,673	-0,364563	22,300000	52,195000
1,038982	-686,293182	293,124	-0,365271	22,300000	52,195000
1,029997	-690,839288	293,574	-0,367189	22,300000	52,195000
1,021029	-692,375870	294,024	-0,367838	22,300000	52,195000
1,011999	-691,881804	294,475	-0,367629	22,300000	52,195000
1,002932	-696,718333	294,927	-0,369670	22,300000	52,195000
0,994005	-699,547356	295,378	-0,370864	22,300000	52,195000
0,984991	-701,530565	295,828	-0,371701	22,300000	52,195000
0,976025	-702,134553	296,278	-0,371956	22,300000	52,195000
0,966989	-703,074089	296,730	-0,372353	22,290000	52,160000
0,957968	-704,297106	297,180	-0,372869	22,290000	52,160000
0,948993	-704,666210	297,632	-0,373024	22,290000	52,160000
0,940008	-703,027807	298,085	-0,372333	22,290000	52,160000
0,931038	-703,277733	298,535	-0,372438	22,290000	52,160000
0,921909	-696,780815	298,985	-0,369697	22,300000	52,205000
0,913027	-692,822497	299,436	-0,368026	22,300000	52,205000
0,904016	-681,794515	299,887	-0,363373	22,300000	52,205000
0,895049	-647,055965	300,338	-0,348713	22,300000	52,205000
0,886015	-0,510265	300,790	-0,075871	22,300000	52,180000
0,876988	-0,227942	301,242	-0,075751	22,300000	52,180000
0,868030	0,077523	301,693	-0,075623	22,300000	52,180000
0,858976	-0,227942	302,145	-0,075751	22,300000	52,180000
0,849973	0,000000	302,595	-0,075655	22,300000	52,180000
0,840916	0,077523	303,046	-0,075623	22,300000	52,180000
0,831982	-0,016199	303,498	-0,075662	22,300000	52,180000
0,822979	-0,101822	303,948	-0,075698	22,300000	52,180000
0,813979	0,180502	304,398	-0,075579	22,300000	52,180000
0,805035	-0,118021	304,848	-0,075705	22,290000	52,190000
0,796050	-0,031241	305,299	-0,075668	22,290000	52,190000
0,787017	0,133062	305,750	-0,075599	22,290000	52,190000
0,777963	-0,023141	306,201	-0,075665	22,290000	52,190000
0,768974	0,187444	306,652	-0,075576	22,290000	52,175000
0,759955	0,124963	307,104	-0,075603	22,290000	52,175000
0,751005	0,376046	307,555	-0,075497	22,290000	52,175000
0,741939	0,015042	308,006	-0,075649	22,290000	52,175000
0,732985	-0,070581	308,456	-0,075685	22,290000	52,175000
0,723956	-0,157361	308,908	-0,075722	22,300000	52,205000
0,714957	0,344805	309,360	-0,075510	22,300000	52,205000
0,706012	-0,023141	309,810	-0,075665	22,300000	52,205000
0,697013	0,328606	310,261	-0,075517	22,300000	52,205000
0,687921	0,313564	310,711	-0,075523	22,310000	52,195000
0,678944	0,038183	311,162	-0,075639	22,310000	52,195000
0,670045	0,156204	311,614	-0,075589	22,310000	52,195000