File: Nanoindentation Datenauswertung/data/PDMS/09.09/EM-PDMS-110-10-110, 20nms,2,2um
Quasi static measurement routine
Tip parameters (shape,radius, material...)
09.09.2022

Piezo position[nm]	MEMS displ.[nm]	Time[ms]	Cap [pf]	Temp [°C]	Rh [%]
eoh
0,492052	-0,086780	0,188	-0,075798	22,560000	53,805000
0,498118	-0,023141	0,488	-0,075771	22,560000	53,805000
0,504126	0,188602	0,788	-0,075682	22,560000	53,805000
0,510092	-0,180502	1,090	-0,075837	22,560000	53,805000
0,516080	0,101822	1,390	-0,075718	22,550000	53,815000
0,522070	0,156204	1,690	-0,075695	22,550000	53,815000
0,528134	0,078680	1,990	-0,075728	22,550000	53,815000
0,534110	-0,047440	2,292	-0,075781	22,550000	53,815000
0,540067	0,133062	2,593	-0,075705	22,550000	53,815000
0,546106	0,039340	2,894	-0,075745	22,550000	53,815000
0,552054	0,116864	3,195	-0,075712	22,550000	53,815000
0,558099	0,000000	3,497	-0,075761	22,550000	53,815000
0,564074	-0,070581	3,797	-0,075791	22,550000	53,815000
0,570076	0,093722	4,098	-0,075722	22,550000	53,815000
0,576063	0,116864	4,399	-0,075712	22,550000	53,815000
0,582064	-0,133062	4,700	-0,075817	22,550000	53,815000
0,588101	0,039340	5,001	-0,075745	22,550000	53,815000
0,594057	-0,070581	5,302	-0,075791	22,550000	53,815000
0,600118	-0,078680	5,602	-0,075794	22,540000	53,815000
0,606110	-0,031241	5,902	-0,075774	22,540000	53,815000
0,612069	-0,062481	6,203	-0,075788	22,540000	53,815000
0,618065	0,070581	6,504	-0,075731	22,540000	53,815000
0,624092	0,016199	6,806	-0,075754	22,540000	53,815000
0,630093	-0,054382	7,108	-0,075784	22,540000	53,815000
0,636049	0,078680	7,408	-0,075728	22,550000	53,800000
0,642073	-0,054382	7,708	-0,075784	22,550000	53,800000
0,648093	-0,180502	8,010	-0,075837	22,550000	53,800000
0,654040	0,031241	8,310	-0,075748	22,550000	53,800000
0,660087	-0,047440	8,610	-0,075781	22,550000	53,800000
0,666040	0,055539	8,910	-0,075738	22,550000	53,800000
0,672122	0,016199	9,210	-0,075754	22,550000	53,800000
0,678075	-0,031241	9,510	-0,075774	22,540000	53,800000
0,684091	-0,054382	9,811	-0,075784	22,540000	53,800000
0,690035	0,016199	10,112	-0,075754	22,540000	53,800000
0,696065	0,093722	10,412	-0,075722	22,540000	53,800000
0,702101	0,016199	10,713	-0,075754	22,540000	53,800000
0,708123	0,149261	11,014	-0,075698	22,540000	53,800000
0,714090	-0,242984	11,314	-0,075864	22,540000	53,800000
0,720113	0,047440	11,614	-0,075741	22,550000	53,800000
0,726065	-0,039340	11,914	-0,075778	22,550000	53,800000
0,732067	-0,078680	12,214	-0,075794	22,550000	53,800000
0,738113	-0,149261	12,514	-0,075824	22,550000	53,800000
0,744079	-0,078680	12,815	-0,075794	22,550000	53,800000
0,750061	0,085623	13,116	-0,075725	22,550000	53,800000
0,756073	-0,086780	13,418	-0,075798	22,560000	53,790000
0,762049	0,008099	13,720	-0,075758	22,560000	53,790000
0,768096	0,016199	14,020	-0,075754	22,560000	53,790000
0,774085	-0,101822	14,320	-0,075804	22,560000	53,790000
0,780115	0,078680	14,621	-0,075728	22,560000	53,790000
0,786073	0,109921	14,922	-0,075715	22,560000	53,790000
0,792096	-0,226785	15,222	-0,075857	22,560000	53,790000
0,798056	0,321664	15,522	-0,075625	22,550000	53,815000
0,804070	0,000000	15,823	-0,075761	22,550000	53,815000
0,810048	0,116864	16,123	-0,075712	22,550000	53,815000
0,816090	0,062481	16,424	-0,075735	22,550000	53,815000
0,822118	-0,109921	16,725	-0,075808	22,550000	53,815000
0,828070	-0,054382	17,025	-0,075784	22,550000	53,815000
0,834077	0,008099	17,327	-0,075758	22,550000	53,815000
0,840051	-0,274224	17,627	-0,075877	22,550000	53,815000
0,846125	0,031241	17,929	-0,075748	22,550000	53,815000
0,852110	-0,109921	18,229	-0,075808	22,550000	53,815000
0,858104	-0,047440	18,529	-0,075781	22,550000	53,815000
0,864083	-0,164303	18,830	-0,075831	22,550000	53,815000
0,870067	-0,109921	19,131	-0,075808	22,550000	53,815000
0,876058	-0,023141	19,432	-0,075771	22,540000	53,800000
0,882067	-0,008099	19,733	-0,075765	22,540000	53,800000
0,888072	-0,164303	20,034	-0,075831	22,540000	53,800000
0,894088	0,141162	20,334	-0,075702	22,540000	53,800000
0,900094	-0,187444	20,636	-0,075840	22,540000	53,800000
0,906064	0,039340	20,936	-0,075745	22,540000	53,800000
0,912050	0,070581	21,236	-0,075731	22,540000	53,800000
0,918117	-0,118021	21,536	-0,075811	22,540000	53,800000
0,924113	0,039340	21,836	-0,075745	22,540000	53,800000
0,930100	0,055539	22,136	-0,075738	22,540000	53,800000
0,936048	0,078680	22,436	-0,075728	22,540000	53,800000
0,942100	-0,070581	22,739	-0,075791	22,540000	53,800000
0,948066	-0,016199	23,040	-0,075768	22,540000	53,800000
0,954117	-0,078680	23,340	-0,075794	22,540000	53,800000
0,960083	0,016199	23,641	-0,075754	22,550000	53,775000
0,966098	-0,039340	23,942	-0,075778	22,550000	53,775000
0,972115	-0,086780	24,243	-0,075798	22,550000	53,775000
0,978087	0,415386	24,543	-0,075586	22,550000	53,775000
0,984103	0,031241	24,844	-0,075748	22,550000	53,775000
0,990063	-0,016199	25,145	-0,075768	22,550000	53,775000
0,996113	0,109921	25,446	-0,075715	22,560000	53,790000
1,002082	-0,141162	25,746	-0,075821	22,560000	53,790000
1,008038	0,016199	26,046	-0,075754	22,560000	53,790000
1,014064	0,109921	26,346	-0,075715	22,560000	53,790000
1,020086	0,047440	26,646	-0,075741	22,560000	53,790000
1,026091	-0,149261	26,946	-0,075824	22,560000	53,790000
1,032121	-0,203643	27,246	-0,075847	22,560000	53,790000
1,038101	0,070581	27,546	-0,075731	22,540000	53,815000
1,044079	0,062481	27,846	-0,075735	22,540000	53,815000
1,050066	-0,101822	28,147	-0,075804	22,540000	53,815000
1,056141	-0,149261	28,447	-0,075824	22,540000	53,815000
1,062078	0,062481	28,748	-0,075735	22,540000	53,815000
1,068086	0,070581	29,048	-0,075731	22,540000	53,815000
1,074100	0,016199	29,348	-0,075754	22,540000	53,815000
1,080084	0,031241	29,648	-0,075748	22,540000	53,815000
1,086076	-0,093722	29,948	-0,075801	22,540000	53,815000
1,092075	0,085623	30,248	-0,075725	22,540000	53,815000
1,098131	-0,211743	30,549	-0,075851	22,540000	53,815000
1,104047	-0,126120	30,850	-0,075814	22,540000	53,815000
1,110079	0,188602	31,150	-0,075682	22,540000	53,815000
1,116115	-0,109921	31,451	-0,075808	22,550000	53,840000
1,122079	-0,149261	31,752	-0,075824	22,550000	53,840000
1,128107	-0,141162	32,052	-0,075821	22,550000	53,840000
1,134071	0,328606	32,353	-0,075623	22,550000	53,840000
1,140112	-0,329763	32,653	-0,075900	22,550000	53,840000
1,146095	-0,242984	32,954	-0,075864	22,550000	53,840000
1,152054	0,093722	33,254	-0,075722	22,550000	53,840000
1,158097	-0,219842	33,556	-0,075854	22,550000	53,785000
1,164082	-0,039340	33,856	-0,075778	22,550000	53,785000
1,170076	-0,086780	34,158	-0,075798	22,550000	53,785000
1,176035	0,070581	34,460	-0,075731	22,550000	53,785000
1,182026	-0,180502	34,761	-0,075837	22,550000	53,785000
1,188045	-0,187444	35,063	-0,075840	22,550000	53,785000
1,194099	-0,109921	35,364	-0,075808	22,550000	53,785000
1,200095	-0,234884	35,664	-0,075860	22,550000	53,785000
1,206073	0,219842	35,966	-0,075668	22,550000	53,785000
1,212039	-0,226785	36,266	-0,075857	22,550000	53,785000
1,218078	0,047440	36,566	-0,075741	22,550000	53,785000
1,224067	0,016199	36,867	-0,075754	22,550000	53,785000
1,230108	0,000000	37,169	-0,075761	22,550000	53,785000
1,236053	-0,031241	37,469	-0,075774	22,560000	53,820000
1,242062	-0,016199	37,769	-0,075768	22,560000	53,820000
1,248052	-0,266125	38,071	-0,075874	22,560000	53,820000
1,254060	-0,195544	38,372	-0,075844	22,560000	53,820000
1,260110	0,093722	38,674	-0,075722	22,560000	53,820000
1,266076	0,124963	38,974	-0,075708	22,560000	53,820000
1,272104	-0,086780	39,275	-0,075798	22,560000	53,820000
1,278074	0,164303	39,575	-0,075692	22,560000	53,820000
1,284004	0,023141	39,875	-0,075751	22,560000	53,820000
1,290055	-0,126120	40,175	-0,075814	22,560000	53,820000
1,296053	-0,149261	40,476	-0,075824	22,560000	53,820000
1,302093	0,180502	40,776	-0,075685	22,560000	53,820000
1,308100	-0,101822	41,077	-0,075804	22,560000	53,820000
1,314064	-0,078680	41,379	-0,075794	22,560000	53,820000
1,320114	-0,446627	41,680	-0,075950	22,560000	53,820000
1,326061	-0,203643	41,980	-0,075847	22,560000	53,820000
1,332126	-0,172403	42,280	-0,075834	22,560000	53,820000
1,338038	-0,031241	42,580	-0,075774	22,560000	53,820000
1,344062	0,055539	42,880	-0,075738	22,560000	53,820000
1,350062	-0,149261	43,181	-0,075824	22,560000	53,820000
1,356103	0,047440	43,482	-0,075741	22,540000	53,825000
1,362061	-0,070581	43,782	-0,075791	22,540000	53,825000
1,368069	-0,078680	44,083	-0,075794	22,540000	53,825000
1,374029	-0,149261	44,384	-0,075824	22,540000	53,825000
1,380076	-0,039340	44,684	-0,075778	22,540000	53,825000
1,386087	-0,219842	44,986	-0,075854	22,540000	53,825000
1,392039	-0,078680	45,287	-0,075794	22,540000	53,825000
1,398073	-0,195544	45,588	-0,075844	22,550000	53,800000
1,404059	0,101822	45,888	-0,075718	22,550000	53,800000
1,410040	0,008099	46,188	-0,075758	22,550000	53,800000
1,416068	0,242984	46,489	-0,075659	22,550000	53,800000
1,422048	-0,234884	46,790	-0,075860	22,550000	53,800000
1,428043	-0,118021	47,091	-0,075811	22,550000	53,800000
1,434021	-0,133062	47,392	-0,075817	22,560000	53,805000
1,440067	-0,016199	47,693	-0,075768	22,560000	53,805000
1,446110	-0,187444	47,994	-0,075840	22,560000	53,805000
1,452046	-0,219842	48,295	-0,075854	22,560000	53,805000
1,458050	-0,054382	48,596	-0,075784	22,560000	53,805000
1,464036	-0,211743	48,897	-0,075851	22,560000	53,805000
1,470070	-0,031241	49,198	-0,075774	22,560000	53,805000
1,476059	-0,141162	49,499	-0,075821	22,550000	53,815000
1,482013	-0,031241	49,800	-0,075774	22,550000	53,815000
1,488028	-0,164303	50,100	-0,075831	22,550000	53,815000
1,494035	0,039340	50,401	-0,075745	22,550000	53,815000
1,500007	-0,274224	50,702	-0,075877	22,550000	53,815000
1,506075	-0,118021	51,002	-0,075811	22,550000	53,815000
1,512074	-0,164303	51,304	-0,075831	22,550000	53,815000
1,518089	0,234884	51,604	-0,075662	22,560000	53,790000
1,524072	0,047440	51,905	-0,075741	22,560000	53,790000
1,530069	-0,226785	52,206	-0,075857	22,560000	53,790000
1,536050	-0,126120	52,506	-0,075814	22,560000	53,790000
1,542057	0,031241	52,806	-0,075748	22,560000	53,790000
1,548068	0,008099	53,107	-0,075758	22,560000	53,790000
1,554035	-0,070581	53,409	-0,075791	22,560000	53,790000
1,560036	-0,234884	53,709	-0,075860	22,560000	53,790000
1,566078	-0,195544	54,010	-0,075844	22,560000	53,790000
1,572019	-0,062481	54,311	-0,075788	22,560000	53,790000
1,578071	-0,016199	54,612	-0,075768	22,560000	53,790000
1,583988	0,078680	54,914	-0,075728	22,560000	53,790000
1,590042	-0,195544	55,215	-0,075844	22,560000	53,790000
1,596062	-0,195544	55,516	-0,075844	22,550000	53,785000
1,602086	-0,054382	55,816	-0,075784	22,550000	53,785000
1,608100	0,000000	56,116	-0,075761	22,550000	53,785000
1,614098	-0,047440	56,416	-0,075781	22,550000	53,785000
1,620054	-0,195544	56,716	-0,075844	22,550000	53,785000
1,626060	-0,376046	57,017	-0,075920	22,550000	53,785000
1,632024	-0,164303	57,318	-0,075831	22,550000	53,785000
1,638053	-0,321664	57,618	-0,075897	22,550000	53,785000
1,644044	-0,008099	57,920	-0,075765	22,550000	53,785000
1,650063	-0,352905	58,220	-0,075910	22,550000	53,785000
1,656044	-0,211743	58,520	-0,075851	22,550000	53,785000
1,662058	-0,305465	58,821	-0,075890	22,550000	53,785000
1,668066	-0,211743	59,123	-0,075851	22,550000	53,785000
1,674004	0,008099	59,423	-0,075758	22,550000	53,825000
1,680039	-0,259182	59,723	-0,075871	22,550000	53,825000
1,686076	0,055539	60,024	-0,075738	22,550000	53,825000
1,692027	-0,282324	60,324	-0,075880	22,550000	53,825000
1,698048	-0,180502	60,624	-0,075837	22,550000	53,825000
1,704045	-0,579689	60,925	-0,076006	22,550000	53,825000
1,710047	-0,180502	61,225	-0,075837	22,550000	53,825000
1,716026	-0,062481	61,525	-0,075788	22,550000	53,825000
1,722046	-0,149261	61,825	-0,075824	22,550000	53,825000
1,728081	-0,172403	62,126	-0,075834	22,550000	53,825000
1,734055	-0,226785	62,426	-0,075857	22,550000	53,825000
1,740055	-0,203643	62,726	-0,075847	22,550000	53,825000
1,746137	-0,282324	63,026	-0,075880	22,550000	53,825000
1,751964	-0,101822	63,326	-0,075804	22,550000	53,825000
1,758091	-0,242984	63,626	-0,075864	22,550000	53,825000
1,764054	-0,399187	63,927	-0,075930	22,550000	53,825000
1,770034	-0,509108	64,227	-0,075976	22,550000	53,825000
1,776023	-0,752092	64,527	-0,076079	22,550000	53,825000
1,782015	-0,109921	64,828	-0,075808	22,550000	53,825000
1,788060	-0,290423	65,128	-0,075884	22,550000	53,825000
1,794031	-0,290423	65,428	-0,075884	22,560000	53,820000
1,800008	-0,359847	65,729	-0,075913	22,560000	53,820000
1,806026	0,070581	66,030	-0,075731	22,560000	53,820000
1,812012	-0,219842	66,331	-0,075854	22,560000	53,820000
1,818022	0,013885	66,631	-0,075755	22,560000	53,820000
1,824077	-0,259182	66,932	-0,075871	22,560000	53,820000
1,830087	-0,187444	67,232	-0,075840	22,560000	53,820000
1,836035	-0,219842	67,532	-0,075854	22,550000	53,785000
1,842037	-0,211743	67,832	-0,075851	22,550000	53,785000
1,848047	-0,321664	68,133	-0,075897	22,550000	53,785000
1,854006	-0,054382	68,434	-0,075784	22,550000	53,785000
1,860028	-0,211743	68,734	-0,075851	22,550000	53,785000
1,866013	-0,195544	69,034	-0,075844	22,550000	53,785000
1,872064	-0,118021	69,335	-0,075811	22,550000	53,785000
1,878052	-0,290423	69,636	-0,075884	22,550000	53,815000
1,883993	-0,242984	69,936	-0,075864	22,550000	53,815000
1,890051	-0,274224	70,236	-0,075877	22,550000	53,815000
1,895973	-0,305465	70,538	-0,075890	22,550000	53,815000
1,901998	0,282324	70,838	-0,075642	22,550000	53,815000
1,908059	-0,336706	71,138	-0,075903	22,550000	53,815000
1,914042	-0,454726	71,439	-0,075953	22,550000	53,825000
1,920038	-0,431585	71,740	-0,075943	22,550000	53,825000
1,926013	-0,329763	72,040	-0,075900	22,550000	53,825000
1,932026	-0,259182	72,340	-0,075871	22,550000	53,825000
1,938038	-0,658370	72,640	-0,076039	22,550000	53,825000
1,943995	-147,290849	72,941	-0,137918	22,550000	53,825000
1,950011	-155,058223	73,242	-0,141196	22,550000	53,825000
1,955964	-154,478534	73,544	-0,140951	22,550000	53,840000
1,962016	-153,240475	73,845	-0,140429	22,550000	53,840000
1,968027	-153,491558	74,147	-0,140535	22,550000	53,840000
1,973993	-148,983634	74,447	-0,138632	22,550000	53,840000
1,979996	-146,351313	74,748	-0,137521	22,550000	53,840000
1,986028	-143,772216	75,050	-0,136433	22,550000	53,840000
1,992025	-141,083198	75,350	-0,135298	22,550000	53,840000
1,997951	-138,379138	75,650	-0,134157	22,550000	53,840000
2,003994	-134,648761	75,951	-0,132583	22,550000	53,840000
2,010011	-131,450635	76,251	-0,131233	22,550000	53,840000
2,015983	-128,441110	76,551	-0,129963	22,550000	53,840000
2,021998	-124,239809	76,852	-0,128190	22,550000	53,840000
2,028008	-120,312731	77,153	-0,126533	22,550000	53,840000
2,033998	-117,396929	77,454	-0,125303	22,560000	53,790000
2,040031	-113,509192	77,754	-0,123662	22,560000	53,790000
2,045990	-110,013700	78,055	-0,122187	22,560000	53,790000
2,051978	-105,907277	78,356	-0,120454	22,560000	53,790000
2,058026	-99,809547	78,656	-0,117881	22,560000	53,790000
2,063969	-96,086113	78,957	-0,116310	22,560000	53,790000
2,070049	-94,674495	79,257	-0,115714	22,560000	53,790000
2,075995	-91,132720	79,558	-0,114219	22,550000	53,785000
2,082081	-85,112513	79,858	-0,111679	22,550000	53,785000
2,087962	-81,334697	80,158	-0,110084	22,550000	53,785000
2,093993	-80,088539	80,458	-0,109559	22,550000	53,785000
2,099996	-76,373204	80,759	-0,107991	22,550000	53,785000
2,106003	-70,329856	81,060	-0,105440	22,550000	53,785000
2,111981	-66,356496	81,361	-0,103764	22,550000	53,785000
2,117985	-65,079097	81,662	-0,103225	22,550000	53,800000
2,124067	-60,305049	81,962	-0,101210	22,550000	53,800000
2,129999	-57,123121	82,263	-0,099867	22,550000	53,800000
2,135938	-53,501509	82,564	-0,098339	22,550000	53,800000
2,142039	-49,089622	82,865	-0,096477	22,550000	53,800000
2,148018	-45,781574	83,166	-0,095081	22,550000	53,800000
2,153944	-42,113679	83,468	-0,093533	22,550000	53,825000
2,160031	-38,593889	83,768	-0,092048	22,550000	53,825000
2,166020	-34,809131	84,068	-0,090451	22,550000	53,825000
2,172030	-31,508025	84,368	-0,089058	22,550000	53,825000
2,178005	-27,440943	84,670	-0,087341	22,550000	53,825000
2,184022	-23,490725	84,970	-0,085674	22,550000	53,825000
2,190007	-17,055132	85,272	-0,082958	22,550000	53,825000
2,196014	-13,426577	85,573	-0,081427	22,550000	53,825000
2,202058	-12,164220	85,873	-0,080895	22,550000	53,825000
2,207981	-7,767374	86,174	-0,079039	22,550000	53,825000
2,214009	-1,998251	86,474	-0,076604	22,550000	53,825000
2,219989	-0,274224	86,774	-0,075877	22,550000	53,825000
2,225981	3,378629	87,075	-0,074335	22,550000	53,825000
2,232005	9,734384	87,375	-0,071653	22,550000	53,825000
2,237966	13,794524	87,675	-0,069940	22,540000	53,815000
2,243986	17,462419	87,976	-0,068392	22,540000	53,815000
2,249956	18,897179	88,276	-0,067787	22,540000	53,815000
2,255969	25,183510	88,576	-0,065134	22,540000	53,815000
2,261981	28,529741	88,876	-0,063722	22,540000	53,815000
2,267962	30,614772	89,176	-0,062842	22,540000	53,815000
2,274022	34,315064	89,476	-0,061280	22,540000	53,815000
2,280003	38,343963	89,776	-0,059580	22,540000	53,815000
2,286041	44,512274	90,077	-0,056977	22,540000	53,815000
2,292027	48,423152	90,378	-0,055327	22,540000	53,815000
2,298020	51,879304	90,678	-0,053868	22,540000	53,815000
2,304011	55,312315	90,978	-0,052419	22,540000	53,815000
2,309975	58,909629	91,279	-0,050901	22,540000	53,815000
2,315984	63,723017	91,579	-0,048870	22,550000	53,815000
2,322028	67,038007	91,880	-0,047471	22,550000	53,815000
2,327996	71,208068	92,180	-0,045711	22,550000	53,815000
2,334007	74,163211	92,482	-0,044464	22,550000	53,815000
2,340070	78,379554	92,782	-0,042685	22,550000	53,815000
2,346034	81,907444	93,083	-0,041196	22,550000	53,815000
2,352021	85,739642	93,383	-0,039579	22,550000	53,800000
2,357987	89,697960	93,683	-0,037909	22,550000	53,800000
2,364014	94,408370	93,983	-0,035921	22,550000	53,800000
2,370054	97,826338	94,283	-0,034479	22,550000	53,800000
2,376015	101,564814	94,584	-0,032901	22,550000	53,800000
2,381989	106,987976	94,885	-0,030612	22,550000	53,800000
2,388066	109,833198	95,186	-0,029412	22,550000	53,800000
2,393966	113,814657	95,487	-0,027731	22,550000	53,785000
2,399966	117,859755	95,788	-0,026024	22,550000	53,785000
2,406008	121,880554	96,088	-0,024328	22,550000	53,785000
2,411998	125,737050	96,388	-0,022700	22,550000	53,785000
2,417994	132,171486	96,689	-0,019985	22,550000	53,785000
2,424032	134,389579	96,989	-0,019049	22,550000	53,785000
2,430001	140,314907	97,289	-0,016548	22,550000	53,785000
2,435984	144,226942	97,591	-0,014897	22,550000	53,815000
2,441990	148,474526	97,892	-0,013105	22,550000	53,815000
2,448009	152,605247	98,192	-0,011362	22,550000	53,815000
2,453995	156,077597	98,492	-0,009896	22,550000	53,815000
2,459989	160,733625	98,792	-0,007932	22,550000	53,815000
2,465921	164,621362	99,092	-0,006291	22,550000	53,815000
2,471991	166,486550	99,393	-0,005504	22,550000	53,815000
2,477992	172,262617	99,694	-0,003066	22,550000	53,815000
2,484025	175,130980	99,995	-0,001856	22,550000	53,815000
2,490004	178,839372	100,296	-0,000291	22,550000	53,815000
2,495971	183,572923	100,597	0,001707	22,550000	53,815000
2,502005	187,061473	100,899	0,003179	22,550000	53,815000
2,507983	191,215334	101,200	0,004932	22,550000	53,815000
2,514035	195,244233	101,502	0,006632	22,550000	53,815000
2,519967	201,803632	101,803	0,009400	22,550000	53,815000
2,526022	203,489475	102,103	0,010111	22,550000	53,815000
2,532037	209,767708	102,403	0,012761	22,550000	53,815000
2,537980	214,118271	102,704	0,014597	22,550000	53,815000
2,544009	216,508766	103,004	0,015605	22,550000	53,815000
2,550016	219,721934	103,305	0,016961	22,550000	53,815000
2,555947	226,540516	103,606	0,019839	22,560000	53,790000
2,561998	230,185269	103,907	0,021377	22,560000	53,790000
2,568016	231,981033	104,208	0,022135	22,560000	53,790000
2,574001	236,134895	104,509	0,023888	22,560000	53,790000
2,579985	241,644837	104,811	0,026213	22,560000	53,790000
2,586026	244,882303	105,112	0,027579	22,560000	53,790000
2,591992	249,435352	105,412	0,029500	22,550000	53,800000
2,597994	253,088205	105,713	0,031042	22,550000	53,800000
2,604064	256,677420	106,013	0,032557	22,550000	53,800000
2,609963	260,886821	106,313	0,034333	22,550000	53,800000
2,615994	264,712076	106,614	0,035947	22,550000	53,800000
2,622008	269,304465	106,914	0,037885	22,550000	53,800000
2,627981	275,818739	107,215	0,040634	22,550000	53,800000
2,633960	279,783999	107,515	0,042308	22,550000	53,855000
2,640039	281,665386	107,816	0,043102	22,550000	53,855000
2,646015	285,725526	108,117	0,044815	22,550000	53,855000
2,651955	292,277982	108,417	0,047580	22,550000	53,855000
2,657968	296,416802	108,717	0,049327	22,550000	53,855000
2,663999	301,158453	109,017	0,051328	22,550000	53,855000
2,670024	304,732626	109,318	0,052836	22,550000	53,855000
2,675988	309,137570	109,618	0,054695	22,550000	53,815000
2,682011	310,775974	109,920	0,055386	22,550000	53,815000
2,688017	314,624371	110,221	0,057010	22,550000	53,815000
2,690926	318,989975	110,522	0,058853	22,550000	53,815000
2,691002	318,377888	110,823	0,058594	22,550000	53,815000
2,690913	317,829439	111,123	0,058363	22,550000	53,815000
2,691039	317,775057	111,423	0,058340	22,550000	53,815000
2,690958	317,092389	111,724	0,058052	22,550000	53,815000
2,690997	316,952384	112,024	0,057993	22,550000	53,815000
2,690963	316,489559	112,324	0,057797	22,550000	53,815000
2,690967	316,481459	112,626	0,057794	22,550000	53,815000
2,691001	316,003592	112,927	0,057592	22,550000	53,815000
2,691028	316,082272	113,227	0,057625	22,550000	53,815000
2,690987	315,407703	113,527	0,057341	22,550000	53,815000
2,690998	315,470185	113,827	0,057367	22,550000	53,815000
2,690988	315,361421	114,127	0,057321	22,550000	53,815000
2,690967	315,227201	114,427	0,057265	22,550000	53,815000
2,690996	314,632470	114,728	0,057014	22,550000	53,815000
2,690974	314,788674	115,028	0,057080	22,550000	53,815000
2,691005	314,632470	115,328	0,057014	22,550000	53,815000
2,691005	314,460067	115,630	0,056941	22,550000	53,785000
2,691006	314,435769	115,932	0,056931	22,550000	53,785000
2,690985	314,161545	116,232	0,056815	22,550000	53,785000
2,690973	314,248325	116,533	0,056852	22,550000	53,785000
2,690957	314,138403	116,833	0,056805	22,550000	53,785000
2,691003	313,808640	117,133	0,056666	22,550000	53,785000
2,690961	313,847980	117,434	0,056683	22,550000	53,800000
2,690929	313,729960	117,734	0,056633	22,550000	53,800000
2,690906	313,706818	118,034	0,056623	22,550000	53,800000
2,690997	313,362013	118,334	0,056478	22,550000	53,800000
2,690946	313,228951	118,634	0,056421	22,550000	53,800000
2,690987	313,353914	118,935	0,056474	22,550000	53,800000
2,690953	313,213909	119,235	0,056415	22,550000	53,800000
2,691017	313,079689	119,535	0,056358	22,560000	53,820000
2,690975	312,923486	119,836	0,056292	22,560000	53,820000
2,691010	312,829763	120,136	0,056253	22,560000	53,820000
2,691036	312,774224	120,436	0,056229	22,560000	53,820000
2,684895	307,985134	120,736	0,054208	22,560000	53,820000
2,678976	305,673319	121,036	0,053233	22,560000	53,820000
2,672987	300,892328	121,336	0,051215	22,560000	53,820000
2,666989	293,775224	121,637	0,048212	22,560000	53,820000
2,660943	290,828181	121,939	0,046968	22,560000	53,820000
2,654997	286,901103	122,239	0,045311	22,560000	53,820000
2,648972	281,195618	122,540	0,042903	22,560000	53,820000
2,642996	277,574006	122,840	0,041375	22,560000	53,820000
2,636972	272,973517	123,140	0,039434	22,560000	53,820000
2,630985	266,969509	123,440	0,036900	22,550000	53,800000
2,624955	263,544598	123,740	0,035455	22,550000	53,800000
2,619007	258,340121	124,041	0,033258	22,550000	53,800000
2,612956	253,887737	124,342	0,031379	22,550000	53,800000
2,606963	249,545274	124,642	0,029547	22,550000	53,800000
2,601005	243,165220	124,943	0,026854	22,550000	53,800000
2,595002	241,048948	125,243	0,025961	22,550000	53,800000
2,589052	236,534082	125,543	0,024056	22,550000	53,800000
2,582985	232,160378	125,844	0,022210	22,550000	53,800000
2,577007	227,441869	126,146	0,020219	22,550000	53,800000
2,571040	220,795690	126,446	0,017415	22,550000	53,800000
2,565022	218,984884	126,746	0,016650	22,550000	53,800000
2,558963	214,345055	127,048	0,014692	22,550000	53,800000
2,552935	209,963252	127,349	0,012843	22,550000	53,800000
2,546995	203,998584	127,650	0,010326	22,550000	53,825000
2,540955	198,677244	127,950	0,008081	22,550000	53,825000
2,534975	196,247408	128,251	0,007055	22,550000	53,825000
2,528996	189,412628	128,552	0,004171	22,550000	53,825000
2,523022	187,523141	128,852	0,003374	22,550000	53,825000
2,516963	183,095055	129,154	0,001505	22,550000	53,825000
2,510998	178,164803	129,454	-0,000576	22,540000	53,840000
2,505019	173,047106	129,755	-0,002735	22,540000	53,840000
2,498987	168,469759	130,055	-0,004667	22,540000	53,840000
2,493004	165,412794	130,355	-0,005957	22,540000	53,840000
2,486989	159,973434	130,656	-0,008252	22,540000	53,840000
2,480992	155,591630	130,957	-0,010102	22,540000	53,840000
2,474948	152,181761	131,259	-0,011541	22,540000	53,840000
2,468980	148,035999	131,560	-0,013290	22,560000	53,820000
2,462974	143,575515	131,860	-0,015172	22,560000	53,820000
2,456927	139,124287	132,161	-0,017051	22,560000	53,820000
2,450999	134,829264	132,461	-0,018863	22,560000	53,820000
2,445011	128,181928	132,761	-0,021668	22,560000	53,820000
2,439043	126,246159	133,062	-0,022485	22,560000	53,820000
2,432981	122,084197	133,362	-0,024242	22,560000	53,820000
2,426983	117,639912	133,664	-0,026117	22,560000	53,820000
2,420990	111,158037	133,964	-0,028853	22,560000	53,820000
2,414993	107,560723	134,264	-0,030371	22,560000	53,820000
2,408987	101,870279	134,564	-0,032772	22,560000	53,820000
2,403013	100,263116	134,864	-0,033450	22,560000	53,820000
2,396969	95,544607	135,164	-0,035441	22,560000	53,820000
2,391023	90,105247	135,465	-0,037737	22,550000	53,825000
2,384971	84,955152	135,766	-0,039910	22,550000	53,825000
2,379008	82,956902	136,066	-0,040753	22,550000	53,825000
2,372970	77,517541	136,366	-0,043049	22,550000	53,825000
2,367042	72,046940	136,667	-0,045357	22,550000	53,825000
2,361031	68,221684	136,968	-0,046972	22,550000	53,825000
2,354992	66,199135	137,268	-0,047825	22,550000	53,825000
2,348960	60,689194	137,568	-0,050150	22,550000	53,825000
2,343022	56,080606	137,869	-0,052095	22,550000	53,825000
2,336980	53,258525	138,169	-0,053286	22,550000	53,825000
2,330945	47,929086	138,471	-0,055535	22,550000	53,825000
2,324992	44,244992	138,773	-0,057090	22,550000	53,825000
2,318954	40,209151	139,074	-0,058793	22,550000	53,825000
2,312991	36,203393	139,374	-0,060483	22,550000	53,825000
2,306990	32,018291	139,674	-0,062250	22,550000	53,800000
2,301001	25,472777	139,975	-0,065012	22,550000	53,800000
2,294971	23,584447	140,276	-0,065809	22,550000	53,800000
2,289040	19,476868	140,577	-0,067542	22,550000	53,800000
2,282985	15,628471	140,877	-0,069166	22,550000	53,800000
2,276977	10,220351	141,178	-0,071448	22,550000	53,800000
2,271020	6,732959	141,479	-0,072920	22,540000	53,815000
2,264995	2,853321	141,780	-0,074557	22,540000	53,815000
2,259008	-3,582272	142,080	-0,077273	22,540000	53,815000
2,253036	-7,924735	142,381	-0,079105	22,540000	53,815000
2,247017	-9,468259	142,682	-0,079757	22,540000	53,815000
2,240984	-13,912544	142,983	-0,081632	22,540000	53,815000
2,235004	-20,010275	143,283	-0,084206	22,540000	53,815000
2,229054	-22,189027	143,583	-0,085125	22,560000	53,830000
2,223020	-26,092963	143,884	-0,086772	22,560000	53,830000
2,217004	-32,574839	144,184	-0,089508	22,560000	53,830000
2,210979	-34,549948	144,485	-0,090341	22,560000	53,830000
2,205039	-38,625130	144,785	-0,092061	22,560000	53,830000
2,198994	-42,826431	145,085	-0,093834	22,560000	53,830000
2,192958	-47,929086	145,386	-0,095987	22,560000	53,830000
2,187008	-51,480117	145,686	-0,097486	22,540000	53,840000
2,181041	-55,696460	145,986	-0,099265	22,540000	53,840000
2,174998	-60,313148	146,286	-0,101213	22,540000	53,840000
2,169000	-63,644337	146,586	-0,102619	22,540000	53,840000
2,163012	-69,114938	146,886	-0,104928	22,540000	53,840000
2,157004	-71,858338	147,187	-0,106085	22,540000	53,840000
2,150981	-76,248241	147,488	-0,107938	22,550000	53,775000
2,145010	-82,462835	147,789	-0,110561	22,550000	53,775000
2,139042	-84,242400	148,091	-0,111312	22,550000	53,775000
2,132985	-88,349980	148,392	-0,113045	22,550000	53,775000
2,127020	-92,362680	148,693	-0,114738	22,550000	53,775000
2,121042	-99,025057	148,994	-0,117550	22,550000	53,775000
2,115018	-102,998417	149,294	-0,119227	22,550000	53,775000
2,109041	-104,871705	149,594	-0,120017	22,540000	53,800000
2,103034	-109,112346	149,895	-0,121807	22,540000	53,800000
2,097064	-115,586123	150,195	-0,124539	22,540000	53,800000
2,091035	-119,685602	150,495	-0,126269	22,540000	53,800000
2,084978	-120,877379	150,796	-0,126771	22,540000	53,800000
2,079063	-125,157361	151,097	-0,128578	22,540000	53,800000
2,073025	-130,283157	151,398	-0,130741	22,550000	53,825000
2,067043	-133,190860	151,698	-0,131968	22,550000	53,825000
2,061047	-137,259099	151,999	-0,133685	22,550000	53,825000
2,054990	-141,546023	152,300	-0,135494	22,550000	53,825000
2,049058	-146,609338	152,601	-0,137630	22,550000	53,825000
2,043077	-151,014283	152,901	-0,139489	22,550000	53,825000
2,037023	-154,407953	153,202	-0,140921	22,550000	53,825000
2,030981	-158,146429	153,502	-0,142499	22,550000	53,785000
2,025029	-161,556298	153,802	-0,143938	22,550000	53,785000
2,019036	-166,392828	154,102	-0,145979	22,550000	53,785000
2,013020	-170,515449	154,402	-0,147719	22,550000	53,785000
2,006940	-174,245825	154,702	-0,149293	22,550000	53,785000
2,001008	-178,227285	155,003	-0,150973	22,550000	53,785000
1,995012	-181,934519	155,304	-0,152538	22,550000	53,785000
1,989050	-188,135228	155,604	-0,155154	22,560000	53,820000
1,983065	-189,811815	155,904	-0,155862	22,560000	53,820000
1,977024	-193,653269	156,206	-0,157483	22,560000	53,820000
1,971091	-199,609838	156,506	-0,159997	22,560000	53,820000
1,964970	-201,859171	156,807	-0,160946	22,560000	53,820000
1,959046	-205,660128	157,108	-0,162550	22,560000	53,820000
1,953017	-209,759608	157,409	-0,164280	22,540000	53,825000
1,947065	-216,203301	157,710	-0,166999	22,540000	53,825000
1,941013	-218,099730	158,010	-0,167799	22,540000	53,825000
1,935041	-221,940027	158,311	-0,169420	22,540000	53,825000
1,929001	-225,725942	158,611	-0,171018	22,540000	53,825000
1,923081	-231,823673	158,913	-0,173591	22,540000	53,825000
1,916992	-234,197969	159,213	-0,174593	22,540000	53,825000
1,910994	-239,474184	159,513	-0,176819	22,540000	53,825000
1,905061	-242,287008	159,813	-0,178006	22,540000	53,825000
1,899039	-245,806798	160,113	-0,179492	22,540000	53,825000
1,893000	-251,058714	160,414	-0,181708	22,540000	53,825000
1,886952	-254,529908	160,715	-0,183173	22,540000	53,825000
1,880999	-257,015283	161,016	-0,184222	22,540000	53,825000
1,875049	-262,132979	161,317	-0,186381	22,540000	53,825000
1,869057	-266,060056	161,617	-0,188039	22,550000	53,815000
1,863054	-268,803456	161,919	-0,189196	22,550000	53,815000
1,857013	-274,768124	162,220	-0,191713	22,550000	53,815000
1,851034	-276,350989	162,520	-0,192381	22,550000	53,815000
1,845021	-280,286165	162,820	-0,194042	22,550000	53,815000
1,838997	-284,016541	163,121	-0,195616	22,550000	53,815000
1,833031	-287,716834	163,422	-0,197178	22,550000	53,825000
1,827029	-294,080689	163,722	-0,199863	22,550000	53,825000
1,821024	-295,428669	164,022	-0,200432	22,550000	53,825000
1,815005	-299,104663	164,322	-0,201983	22,550000	53,825000
1,809058	-302,560815	164,622	-0,203442	22,550000	53,825000
1,803024	-306,323589	164,922	-0,205030	22,550000	53,825000
1,797046	-312,468759	165,223	-0,207623	22,550000	53,825000
1,791060	-316,543941	165,523	-0,209343	22,550000	53,825000
1,785031	-317,704476	165,823	-0,209833	22,550000	53,825000
1,779075	-321,623454	166,124	-0,211486	22,550000	53,825000
1,773016	-327,463159	166,424	-0,213951	22,550000	53,825000
1,767110	-330,661286	166,724	-0,215300	22,550000	53,825000
1,760996	-334,790849	167,025	-0,217043	22,550000	53,825000
1,755039	-336,382970	167,326	-0,217715	22,550000	53,825000
1,748967	-340,669894	167,627	-0,219524	22,550000	53,785000
1,743061	-346,211076	167,928	-0,221862	22,550000	53,785000
1,737048	-349,942610	168,229	-0,223437	22,550000	53,785000
1,731054	-353,101396	168,530	-0,224770	22,550000	53,785000
1,725024	-357,160378	168,830	-0,226483	22,550000	53,785000
1,719026	-359,480293	169,131	-0,227462	22,550000	53,785000
1,713027	-363,454810	169,432	-0,229139	22,550000	53,825000
1,707043	-366,158870	169,732	-0,230280	22,550000	53,825000
1,701029	-369,905445	170,033	-0,231861	22,550000	53,825000
1,695057	-373,926244	170,333	-0,233558	22,550000	53,825000
1,689054	-376,850146	170,634	-0,234792	22,550000	53,825000
1,683014	-380,870946	170,934	-0,236489	22,550000	53,825000
1,677007	-384,233375	171,234	-0,237908	22,550000	53,825000
1,671033	-387,541423	171,536	-0,239304	22,550000	53,825000
1,665019	-391,655945	171,837	-0,241040	22,550000	53,825000
1,658970	-395,064657	172,139	-0,242479	22,550000	53,825000
1,653039	-400,685676	172,439	-0,244851	22,550000	53,825000
1,647046	-402,754508	172,740	-0,245724	22,550000	53,825000
1,641049	-408,812898	173,041	-0,248280	22,550000	53,825000
1,635113	-410,216417	173,341	-0,248873	22,550000	53,825000
1,629024	-416,189185	173,641	-0,251393	22,540000	53,825000
1,623061	-417,379804	173,941	-0,251896	22,540000	53,825000
1,617108	-421,573006	174,242	-0,253665	22,540000	53,825000
1,611007	-427,263450	174,542	-0,256066	22,540000	53,825000
1,605048	-430,328514	174,842	-0,257360	22,540000	53,825000
1,599086	-431,433510	175,143	-0,257826	22,540000	53,825000
1,593065	-436,010858	175,443	-0,259758	22,540000	53,800000
1,587085	-440,149678	175,744	-0,261504	22,540000	53,800000
1,581064	-442,139829	176,044	-0,262344	22,540000	53,800000
1,575078	-445,298615	176,345	-0,263677	22,540000	53,800000
1,569087	-448,598563	176,647	-0,265070	22,540000	53,800000
1,563075	-452,407620	176,947	-0,266677	22,540000	53,800000
1,557115	-455,535166	177,248	-0,267997	22,540000	53,800000
1,551081	-460,324256	177,548	-0,270018	22,540000	53,800000
1,545011	-463,616104	177,848	-0,271407	22,540000	53,800000
1,539054	-466,610588	178,148	-0,272671	22,540000	53,800000
1,533023	-472,206152	178,448	-0,275032	22,540000	53,800000
1,527076	-475,514199	178,748	-0,276428	22,540000	53,800000
1,520994	-477,144503	179,050	-0,277116	22,540000	53,800000
1,514976	-480,311389	179,351	-0,278453	22,540000	53,800000
1,509079	-483,485217	179,651	-0,279792	22,550000	53,825000
1,503065	-489,160619	179,953	-0,282187	22,550000	53,825000
1,497036	-493,000916	180,254	-0,283808	22,550000	53,825000
1,491061	-493,376962	180,554	-0,283966	22,550000	53,825000
1,485064	-496,558890	180,855	-0,285309	22,550000	53,825000
1,479031	-499,773215	181,156	-0,286666	22,550000	53,825000
1,473047	-503,268707	181,456	-0,288141	22,550000	53,800000
1,467064	-509,084114	181,756	-0,290595	22,550000	53,800000
1,461087	-510,259692	182,056	-0,291091	22,550000	53,800000
1,455061	-514,845138	182,357	-0,293026	22,550000	53,800000
1,449062	-519,054539	182,657	-0,294802	22,550000	53,800000
1,443068	-520,927827	182,958	-0,295593	22,550000	53,800000
1,437069	-524,853747	183,258	-0,297250	22,550000	53,800000
1,431092	-528,545940	183,558	-0,298808	22,550000	53,785000
1,425055	-529,839538	183,860	-0,299354	22,550000	53,785000
1,419030	-534,847314	184,160	-0,301467	22,550000	53,785000
1,413063	-538,515208	184,460	-0,303015	22,550000	53,785000
1,407067	-539,582022	184,762	-0,303465	22,550000	53,785000
1,401062	-542,747751	185,062	-0,304801	22,550000	53,785000
1,395053	-547,905945	185,362	-0,306978	22,550000	53,785000
1,389085	-548,940360	185,662	-0,307414	22,540000	53,800000
1,383111	-553,125463	185,963	-0,309180	22,540000	53,800000
1,377066	-554,113596	186,263	-0,309597	22,540000	53,800000
1,371034	-558,439860	186,563	-0,311423	22,540000	53,800000
1,365066	-558,871445	186,863	-0,311605	22,540000	53,800000
1,359100	-563,887320	187,164	-0,313722	22,540000	53,800000
1,353059	-564,718093	187,464	-0,314072	22,540000	53,800000
1,347090	-567,994900	187,764	-0,315455	22,540000	53,800000
1,341017	-570,761441	188,065	-0,316623	22,540000	53,800000
1,335036	-573,762867	188,365	-0,317889	22,540000	53,800000
1,328999	-577,070914	188,665	-0,319285	22,540000	53,800000
1,323081	-579,280908	188,966	-0,320218	22,540000	53,800000
1,317067	-582,212909	189,266	-0,321455	22,540000	53,800000
1,311093	-586,813398	189,567	-0,323396	22,550000	53,785000
1,305003	-587,322506	189,867	-0,323611	22,550000	53,785000
1,299052	-590,207068	190,167	-0,324829	22,550000	53,785000
1,293018	-595,224100	190,468	-0,326946	22,550000	53,785000
1,287094	-599,087539	190,768	-0,328576	22,550000	53,785000
1,281082	-602,136404	191,070	-0,329863	22,550000	53,785000
1,275087	-605,616854	191,370	-0,331332	22,550000	53,785000
1,269031	-606,572590	191,670	-0,331735	22,550000	53,800000
1,263088	-611,385978	191,970	-0,333766	22,550000	53,800000
1,257068	-614,160619	192,270	-0,334937	22,550000	53,800000
1,251077	-616,871621	192,570	-0,336081	22,550000	53,800000
1,245052	-618,871029	192,872	-0,336925	22,550000	53,800000
1,239087	-619,247075	193,172	-0,337083	22,550000	53,800000
1,233015	-621,951135	193,473	-0,338225	22,550000	53,785000
1,227061	-624,819498	193,773	-0,339435	22,550000	53,785000
1,221081	-628,378629	194,074	-0,340937	22,550000	53,785000
1,215058	-629,428086	194,374	-0,341380	22,550000	53,785000
1,209098	-633,198960	194,675	-0,342971	22,550000	53,785000
1,203121	-635,753758	194,975	-0,344049	22,550000	53,785000
1,197065	-638,434677	195,277	-0,345181	22,550000	53,785000
1,191092	-643,474850	195,578	-0,347308	22,550000	53,785000
1,185110	-645,888487	195,879	-0,348326	22,550000	53,785000
1,179092	-645,872288	196,180	-0,348319	22,550000	53,785000
1,173061	-648,004758	196,481	-0,349219	22,550000	53,785000
1,167048	-652,731367	196,783	-0,351214	22,550000	53,785000
1,161104	-655,003841	197,084	-0,352173	22,550000	53,785000
1,155087	-655,967676	197,385	-0,352580	22,550000	53,785000
1,149060	-659,103321	197,685	-0,353903	22,550000	53,785000
1,143109	-661,799282	197,985	-0,355041	22,550000	53,785000
1,137102	-662,825598	198,286	-0,355474	22,550000	53,785000
1,131122	-664,315897	198,587	-0,356103	22,550000	53,785000
1,125061	-666,980617	198,887	-0,357227	22,550000	53,785000
1,119074	-671,479284	199,188	-0,359125	22,550000	53,785000
1,113123	-674,371945	199,488	-0,360346	22,550000	53,785000
1,107086	-675,147179	199,788	-0,360673	22,550000	53,785000
1,101095	-677,593213	200,089	-0,361706	22,550000	53,785000
1,095037	-680,727701	200,390	-0,363028	22,550000	53,785000
1,089016	-680,727701	200,691	-0,363028	22,550000	53,785000
1,083084	-683,213076	200,991	-0,364077	22,550000	53,785000
1,077059	-685,556132	201,292	-0,365066	22,550000	53,785000
1,071019	-687,138996	201,593	-0,365734	22,550000	53,785000
1,065080	-690,783749	201,895	-0,367272	22,550000	53,785000
1,059034	-689,819914	202,195	-0,366865	22,550000	53,785000
1,053046	-690,847388	202,495	-0,367299	22,550000	53,785000
1,047063	-691,364596	202,796	-0,367517	22,550000	53,785000
1,041030	-694,162378	203,096	-0,368698	22,550000	53,785000
1,035104	-693,778232	203,396	-0,368536	22,550000	53,785000
1,029042	-695,847064	203,697	-0,369409	22,550000	53,785000
1,023085	-699,217593	203,997	-0,370831	22,550000	53,785000
1,017087	-698,143837	204,298	-0,370378	22,550000	53,785000
1,011086	-698,033916	204,598	-0,370332	22,550000	53,785000
1,005058	-699,931502	204,898	-0,371132	22,550000	53,785000
0,999076	-697,196201	205,199	-0,369978	22,550000	53,785000
0,993059	-697,454227	205,501	-0,370087	22,550000	53,785000
0,987098	-696,467250	205,802	-0,369670	22,550000	53,785000
0,981031	-697,446127	206,102	-0,370083	22,550000	53,785000
0,975068	-696,780815	206,403	-0,369803	22,550000	53,785000
0,969125	-695,219935	206,705	-0,369144	22,550000	53,785000
0,963101	-692,532074	207,005	-0,368010	22,550000	53,785000
0,957034	-686,050198	207,305	-0,365274	22,550000	53,785000
0,951139	-678,540849	207,606	-0,362105	22,550000	53,785000
0,945095	-666,181085	207,906	-0,356890	22,550000	53,785000
0,939077	-647,197127	208,206	-0,348878	22,550000	53,785000
0,933069	-0,713909	208,506	-0,076063	22,550000	53,785000
0,927087	-0,720851	208,806	-0,076065	22,550000	53,785000
0,921103	-0,477868	209,107	-0,075963	22,550000	53,785000
0,915064	-0,502166	209,407	-0,075973	22,550000	53,815000
0,909104	-0,627129	209,708	-0,076026	22,550000	53,815000
0,903090	-0,367947	210,008	-0,075917	22,550000	53,815000
0,897072	-0,367947	210,308	-0,075917	22,550000	53,815000
0,891072	-0,392245	210,608	-0,075927	22,550000	53,815000
0,885059	-0,336706	210,908	-0,075903	22,550000	53,815000
0,879112	-0,266125	211,208	-0,075874	22,550000	53,815000
0,873074	-0,313564	211,509	-0,075894	22,550000	53,825000
0,867059	-0,149261	211,810	-0,075824	22,550000	53,825000
0,861075	-0,359847	212,110	-0,075913	22,550000	53,825000
0,855072	-0,078680	212,410	-0,075794	22,550000	53,825000
0,849100	-0,454726	212,711	-0,075953	22,550000	53,825000
0,843044	-0,242984	213,012	-0,075864	22,550000	53,825000
0,837075	-0,141162	213,312	-0,075821	22,550000	53,825000
0,831084	-0,234884	213,613	-0,075860	22,540000	53,800000
0,825083	-0,344805	213,913	-0,075907	22,540000	53,800000
0,819034	-0,290423	214,213	-0,075884	22,540000	53,800000
0,813090	-0,266125	214,515	-0,075874	22,540000	53,800000
0,807108	-0,298523	214,815	-0,075887	22,540000	53,800000
0,801077	-0,298523	215,116	-0,075887	22,540000	53,800000
0,795119	-0,149261	215,416	-0,075824	22,540000	53,800000
0,789040	0,219842	215,717	-0,075668	22,540000	53,800000
0,783073	-0,344805	216,017	-0,075907	22,540000	53,800000
0,777140	-0,266125	216,318	-0,075874	22,540000	53,800000
0,771098	-0,195544	216,618	-0,075844	22,540000	53,800000
0,765023	0,039340	216,918	-0,075745	22,540000	53,800000
0,759124	-0,242984	217,218	-0,075864	22,540000	53,800000
0,753112	-0,149261	217,520	-0,075824	22,540000	53,825000
0,747100	-0,054382	217,820	-0,075784	22,540000	53,825000
0,741061	0,023141	218,122	-0,075751	22,540000	53,825000
0,735122	-0,062481	218,424	-0,075788	22,540000	53,825000
0,729116	-0,336706	218,724	-0,075903	22,540000	53,825000
0,723041	0,016199	219,024	-0,075754	22,540000	53,825000
0,717046	-0,164303	219,325	-0,075831	22,540000	53,825000
0,711115	-0,118021	219,625	-0,075811	22,540000	53,785000
0,705074	-0,062481	219,926	-0,075788	22,540000	53,785000
0,699046	-0,298523	220,226	-0,075887	22,540000	53,785000
0,693050	-0,118021	220,527	-0,075811	22,540000	53,785000
0,687141	-0,259182	220,827	-0,075871	22,540000	53,785000
0,681023	0,000000	221,128	-0,075761	22,540000	53,785000
0,675082	-0,054382	221,428	-0,075784	22,560000	53,820000
0,669036	-0,062481	221,728	-0,075788	22,560000	53,820000
0,663080	-0,282324	222,028	-0,075880	22,560000	53,820000
0,657101	0,070581	222,328	-0,075731	22,560000	53,820000
0,651112	-0,290423	222,628	-0,075884	22,560000	53,820000
0,645121	-0,313564	222,928	-0,075894	22,560000	53,820000
0,639050	-0,211743	223,228	-0,075851	22,560000	53,820000
0,633138	-0,062481	223,528	-0,075788	22,550000	53,785000
0,627065	-0,133062	223,828	-0,075817	22,550000	53,785000
0,621063	-0,149261	224,128	-0,075824	22,550000	53,785000
0,615082	-0,141162	224,430	-0,075821	22,550000	53,785000
0,609078	-0,156204	224,730	-0,075827	22,550000	53,785000
0,603113	-0,180502	225,031	-0,075837	22,550000	53,785000
0,597103	-0,016199	225,334	-0,075768	22,550000	53,785000
0,591104	-0,298523	225,634	-0,075887	22,550000	53,760000
0,585005	-0,226785	225,934	-0,075857	22,550000	53,760000
0,579113	-0,133062	226,234	-0,075817	22,550000	53,760000
0,573126	-0,118021	226,534	-0,075811	22,550000	53,760000
0,567091	-0,187444	226,835	-0,075840	22,550000	53,760000
0,561116	-0,047440	227,136	-0,075781	22,550000	53,760000
0,555064	-0,109921	227,438	-0,075808	22,550000	53,800000
0,549088	0,164303	227,738	-0,075692	22,550000	53,800000
0,543083	0,016199	228,039	-0,075754	22,550000	53,800000
0,537060	0,070581	228,339	-0,075731	22,550000	53,800000
0,531017	-0,016199	228,641	-0,075768	22,550000	53,800000
0,525068	-0,259182	228,942	-0,075871	22,550000	53,800000
0,519114	0,149261	229,243	-0,075698	22,550000	53,800000
0,513051	-0,047440	229,544	-0,075781	22,550000	53,800000
0,507038	0,234884	229,844	-0,075662	22,550000	53,800000
0,501073	0,172403	230,144	-0,075688	22,550000	53,800000
0,495071	-0,133062	230,444	-0,075817	22,550000	53,800000
0,492086	0,109921	230,594	-0,075715	22,550000	53,800000