File: Nanoindentation Datenauswertung/data/PDMS_10-1/test-6
Quasi static measurement routine
Tip parameters (shape,radius, material...)
16.09.2022

Piezo position[nm]	MEMS displ.[nm]	Time[ms]	Cap [pf]	Temp [°C]	Rh [%]
eoh
0,618039	0,094879	1,071	-0,075754	22,120000	48,275000
0,628037	-0,031241	1,573	-0,075808	22,120000	48,275000
0,638041	-0,039340	2,076	-0,075811	22,120000	48,275000
0,648072	0,000000	2,578	-0,075794	22,120000	48,275000
0,658085	-0,156204	3,079	-0,075860	22,110000	48,260000
0,668068	0,031241	3,580	-0,075781	22,110000	48,260000
0,678076	0,134219	4,080	-0,075738	22,110000	48,260000
0,688055	-0,108764	4,580	-0,075840	22,110000	48,260000
0,698036	0,195544	5,080	-0,075712	22,110000	48,250000
0,708109	-0,039340	5,581	-0,075811	22,110000	48,250000
0,718043	0,203643	6,082	-0,075708	22,110000	48,250000
0,728073	-0,251083	6,583	-0,075900	22,110000	48,250000
0,738024	0,008099	7,085	-0,075791	22,110000	48,285000
0,748081	-0,133062	7,588	-0,075851	22,110000	48,285000
0,758061	0,047440	8,088	-0,075774	22,110000	48,285000
0,768070	0,062481	8,589	-0,075768	22,110000	48,285000
0,778021	-0,085623	9,089	-0,075831	22,110000	48,260000
0,788067	-0,093722	9,591	-0,075834	22,110000	48,260000
0,798063	0,109921	10,095	-0,075748	22,110000	48,260000
0,808074	0,000000	10,596	-0,075794	22,110000	48,260000
0,818034	-0,116864	11,097	-0,075844	22,110000	48,260000
0,828046	-0,141162	11,598	-0,075854	22,110000	48,260000
0,838046	-0,266125	12,099	-0,075907	22,110000	48,260000
0,848107	-0,093722	12,600	-0,075834	22,110000	48,260000
0,858055	-0,219842	13,101	-0,075887	22,110000	48,250000
0,868054	0,227942	13,602	-0,075698	22,110000	48,250000
0,878033	-0,211743	14,102	-0,075884	22,110000	48,250000
0,888081	-0,148104	14,602	-0,075857	22,110000	48,250000
0,898101	-0,047440	15,102	-0,075814	22,120000	48,260000
0,908078	0,055539	15,605	-0,075771	22,120000	48,260000
0,918025	0,055539	16,105	-0,075771	22,120000	48,260000
0,928022	-0,108764	16,607	-0,075840	22,120000	48,260000
0,938017	-0,047440	17,108	-0,075814	22,110000	48,250000
0,948069	-0,031241	17,610	-0,075808	22,110000	48,250000
0,958056	-0,124963	18,113	-0,075847	22,110000	48,250000
0,968047	-0,062481	18,614	-0,075821	22,110000	48,250000
0,978064	0,039340	19,114	-0,075778	22,110000	48,250000
0,988049	0,094879	19,614	-0,075754	22,110000	48,250000
0,998048	0,000000	20,115	-0,075794	22,110000	48,250000
1,008082	0,298523	20,615	-0,075668	22,110000	48,250000
1,018085	0,016199	21,117	-0,075788	22,110000	48,250000
1,028033	0,164303	21,620	-0,075725	22,110000	48,250000
1,038061	0,062481	22,121	-0,075768	22,110000	48,250000
1,048068	-0,124963	22,622	-0,075847	22,110000	48,250000
1,058053	0,000000	23,124	-0,075794	22,110000	48,260000
1,068097	0,062481	23,625	-0,075768	22,110000	48,260000
1,078026	-0,211743	24,125	-0,075884	22,110000	48,260000
1,088093	-0,289266	24,627	-0,075917	22,110000	48,260000
1,098080	0,094879	25,128	-0,075754	22,110000	48,260000
1,108101	0,126120	25,629	-0,075741	22,110000	48,260000
1,118074	-0,077523	26,131	-0,075827	22,110000	48,260000
1,128019	-0,077523	26,631	-0,075827	22,110000	48,260000
1,138084	0,062481	27,134	-0,075768	22,120000	48,275000
1,148039	-0,258025	27,636	-0,075903	22,120000	48,275000
1,158023	-0,047440	28,136	-0,075814	22,120000	48,275000
1,168080	-0,008099	28,636	-0,075798	22,120000	48,275000
1,178069	-0,344805	29,136	-0,075940	22,120000	48,275000
1,188046	-0,039340	29,636	-0,075811	22,120000	48,275000
1,198066	-0,085623	30,136	-0,075831	22,120000	48,275000
1,208052	0,298523	30,637	-0,075668	22,120000	48,275000
1,218094	0,118021	31,139	-0,075745	22,110000	48,235000
1,227992	0,149261	31,641	-0,075731	22,110000	48,235000
1,238030	-0,062481	32,141	-0,075821	22,110000	48,235000
1,248033	0,118021	32,641	-0,075745	22,110000	48,235000
1,258036	0,008099	33,141	-0,075791	22,110000	48,260000
1,268082	-0,039340	33,644	-0,075811	22,110000	48,260000
1,278030	0,195544	34,144	-0,075712	22,110000	48,260000
1,288064	0,134219	34,644	-0,075738	22,110000	48,260000
1,298034	-0,141162	35,144	-0,075854	22,120000	48,220000
1,308053	-0,039340	35,644	-0,075811	22,120000	48,220000
1,318015	0,141162	36,144	-0,075735	22,120000	48,220000
1,328070	-0,133062	36,644	-0,075851	22,120000	48,220000
1,338109	-0,101822	37,147	-0,075837	22,120000	48,220000
1,348054	-0,281167	37,649	-0,075913	22,120000	48,220000
1,358050	-0,124963	38,150	-0,075847	22,120000	48,220000
1,368050	0,062481	38,652	-0,075768	22,120000	48,220000
1,378004	0,024298	39,154	-0,075784	22,110000	48,235000
1,388094	-0,008099	39,656	-0,075798	22,110000	48,235000
1,398035	0,141162	40,157	-0,075735	22,110000	48,235000
1,408048	-0,108764	40,658	-0,075840	22,110000	48,235000
1,418038	-0,047440	41,159	-0,075814	22,110000	48,250000
1,428047	-0,047440	41,660	-0,075814	22,110000	48,250000
1,438006	-0,039340	42,161	-0,075811	22,110000	48,250000
1,448027	-0,141162	42,662	-0,075854	22,110000	48,250000
1,458023	0,118021	43,162	-0,075745	22,110000	48,250000
1,468045	-0,156204	43,663	-0,075860	22,110000	48,250000
1,478056	0,195544	44,165	-0,075712	22,110000	48,250000
1,488016	0,047440	44,667	-0,075774	22,110000	48,250000
1,498067	-0,070581	45,168	-0,075824	22,120000	48,260000
1,508029	-0,108764	45,668	-0,075840	22,120000	48,260000
1,518050	-0,141162	46,169	-0,075854	22,120000	48,260000
1,528043	-0,077523	46,669	-0,075827	22,120000	48,260000
1,538045	0,180502	47,169	-0,075718	22,120000	48,250000
1,548065	-0,015042	47,669	-0,075801	22,120000	48,250000
1,558035	-0,085623	48,169	-0,075831	22,120000	48,250000
1,568017	-0,141162	48,670	-0,075854	22,120000	48,250000
1,578052	-0,062481	49,170	-0,075821	22,110000	48,250000
1,588053	-0,266125	49,672	-0,075907	22,110000	48,250000
1,598071	-0,313564	50,174	-0,075927	22,110000	48,250000
1,608042	-0,195544	50,674	-0,075877	22,110000	48,250000
1,618065	0,118021	51,174	-0,075745	22,110000	48,250000
1,628059	-0,180502	51,674	-0,075871	22,110000	48,250000
1,638027	-0,077523	52,174	-0,075827	22,110000	48,250000
1,648038	-0,116864	52,678	-0,075844	22,110000	48,250000
1,658007	-0,031241	53,180	-0,075808	22,120000	48,250000
1,668067	-0,141162	53,680	-0,075854	22,120000	48,250000
1,678050	-0,116864	54,180	-0,075844	22,120000	48,250000
1,688015	0,039340	54,681	-0,075778	22,120000	48,250000
1,698027	0,016199	55,182	-0,075788	22,110000	48,260000
1,708079	0,118021	55,682	-0,075745	22,110000	48,260000
1,718050	0,039340	56,185	-0,075778	22,110000	48,260000
1,728029	-0,289266	56,686	-0,075917	22,110000	48,260000
1,738064	-0,062481	57,187	-0,075821	22,110000	48,275000
1,748073	-0,054382	57,688	-0,075817	22,110000	48,275000
1,758022	-0,039340	58,189	-0,075811	22,110000	48,275000
1,768032	-0,085623	58,690	-0,075831	22,110000	48,275000
1,778025	-0,085623	59,190	-0,075831	22,120000	48,275000
1,788029	-0,039340	59,691	-0,075811	22,120000	48,275000
1,798056	0,016199	60,191	-0,075788	22,120000	48,275000
1,808018	-0,156204	60,691	-0,075860	22,120000	48,275000
1,818038	-0,141162	61,192	-0,075854	22,110000	48,260000
1,828040	-0,116864	61,693	-0,075844	22,110000	48,260000
1,838050	-0,164303	62,194	-0,075864	22,110000	48,260000
1,848034	0,000000	62,695	-0,075794	22,110000	48,260000
1,857983	0,109921	63,197	-0,075748	22,110000	48,260000
1,868014	-0,226785	63,699	-0,075890	22,110000	48,260000
1,877993	0,109921	64,199	-0,075748	22,110000	48,260000
1,887962	-0,164303	64,703	-0,075864	22,110000	48,260000
1,898041	0,094879	65,204	-0,075754	22,120000	48,250000
1,908047	-0,101822	65,707	-0,075837	22,120000	48,250000
1,918046	-0,015042	66,208	-0,075801	22,120000	48,250000
1,928033	-0,108764	66,708	-0,075840	22,120000	48,250000
1,938036	0,062481	67,210	-0,075768	22,120000	48,220000
1,948033	0,008099	67,712	-0,075791	22,120000	48,220000
1,957994	-0,093722	68,214	-0,075834	22,120000	48,220000
1,967969	-0,070581	68,715	-0,075824	22,120000	48,220000
1,978001	-0,015042	69,215	-0,075801	22,120000	48,260000
1,987979	-0,108764	69,716	-0,075840	22,120000	48,260000
1,998025	-0,008099	70,217	-0,075798	22,120000	48,260000
2,008027	-0,047440	70,719	-0,075814	22,120000	48,260000
2,018008	-0,124963	71,219	-0,075847	22,120000	48,260000
2,028015	-0,015042	71,720	-0,075801	22,120000	48,260000
2,038011	0,000000	72,221	-0,075794	22,120000	48,260000
2,047992	0,055539	72,722	-0,075771	22,120000	48,260000
2,057973	-0,148104	73,222	-0,075857	22,110000	48,285000
2,068032	0,126120	73,723	-0,075741	22,110000	48,285000
2,077992	0,047440	74,224	-0,075774	22,110000	48,285000
2,088002	-0,274224	74,725	-0,075910	22,110000	48,285000
2,097962	-0,251083	75,225	-0,075900	22,120000	48,250000
2,108001	-0,148104	75,726	-0,075857	22,120000	48,250000
2,117933	-0,258025	76,228	-0,075903	22,120000	48,250000
2,128047	-0,195544	76,730	-0,075877	22,120000	48,250000
2,138005	0,031241	77,231	-0,075781	22,110000	48,275000
2,147978	0,259182	77,732	-0,075685	22,110000	48,275000
2,158023	0,109921	78,233	-0,075748	22,110000	48,275000
2,167983	-0,148104	78,733	-0,075857	22,110000	48,275000
2,177993	-0,211743	79,235	-0,075884	22,120000	48,250000
2,187985	0,008099	79,737	-0,075791	22,120000	48,250000
2,198008	-0,164303	80,238	-0,075864	22,120000	48,250000
2,208041	0,157361	80,738	-0,075728	22,120000	48,250000
2,217976	-0,156204	81,242	-0,075860	22,110000	48,250000
2,228034	-0,093722	81,743	-0,075834	22,110000	48,250000
2,237954	-0,187444	82,245	-0,075874	22,110000	48,250000
2,247971	-0,062481	82,746	-0,075821	22,110000	48,250000
2,257996	-0,108764	83,248	-0,075840	22,110000	48,235000
2,268031	-0,391088	83,749	-0,075959	22,110000	48,235000
2,278000	-0,047440	84,249	-0,075814	22,110000	48,235000
2,288046	-0,047440	84,750	-0,075814	22,110000	48,235000
2,297976	-0,219842	85,251	-0,075887	22,120000	48,260000
2,308025	-0,133062	85,753	-0,075851	22,120000	48,260000
2,317992	-0,124963	86,254	-0,075847	22,120000	48,260000
2,328026	0,141162	86,754	-0,075735	22,120000	48,260000
2,337978	0,078680	87,256	-0,075761	22,120000	48,260000
2,347997	0,141162	87,756	-0,075735	22,120000	48,260000
2,358012	-0,274224	88,258	-0,075910	22,120000	48,260000
2,367974	-0,093722	88,759	-0,075834	22,120000	48,260000
2,378029	-0,133062	89,260	-0,075851	22,110000	48,250000
2,387987	0,047440	89,760	-0,075774	22,110000	48,250000
2,398024	0,039340	90,262	-0,075778	22,110000	48,250000
2,407969	-0,156204	90,764	-0,075860	22,110000	48,250000
2,418005	-0,242984	91,266	-0,075897	22,120000	48,260000
2,427996	-0,039340	91,767	-0,075811	22,120000	48,260000
2,437997	0,282324	92,269	-0,075675	22,120000	48,260000
2,448018	-0,156204	92,770	-0,075860	22,120000	48,260000
2,457956	-0,054382	93,271	-0,075817	22,110000	48,260000
2,467995	-0,148104	93,773	-0,075857	22,110000	48,260000
2,478007	0,234884	94,274	-0,075695	22,110000	48,260000
2,487983	-0,172403	94,774	-0,075867	22,110000	48,260000
2,497974	-0,274224	95,274	-0,075910	22,110000	48,260000
2,507952	-0,031241	95,776	-0,075808	22,110000	48,260000
2,517989	0,055539	96,278	-0,075771	22,110000	48,260000
2,528006	0,141162	96,781	-0,075735	22,110000	48,260000
2,537979	-0,258025	97,284	-0,075903	22,110000	48,260000
2,547975	-0,023141	97,785	-0,075804	22,110000	48,260000
2,558007	-0,101822	98,286	-0,075837	22,110000	48,260000
2,567965	-0,124963	98,787	-0,075847	22,110000	48,260000
2,577941	0,039340	99,288	-0,075778	22,110000	48,260000
2,587946	-0,313564	99,788	-0,075927	22,110000	48,260000
2,598011	-0,070581	100,289	-0,075824	22,110000	48,260000
2,607980	-0,023141	100,789	-0,075804	22,110000	48,260000
2,617949	-0,203643	101,289	-0,075880	22,110000	48,235000
2,628009	-0,070581	101,793	-0,075824	22,110000	48,235000
2,637954	0,047440	102,293	-0,075774	22,110000	48,235000
2,648050	0,055539	102,793	-0,075771	22,110000	48,235000
2,658003	-0,141162	103,294	-0,075854	22,110000	48,235000
2,668026	-0,141162	103,794	-0,075854	22,110000	48,235000
2,677978	-0,124963	104,294	-0,075847	22,110000	48,235000
2,687978	-0,023141	104,794	-0,075804	22,110000	48,235000
2,697952	-0,289266	105,294	-0,075917	22,120000	48,250000
2,707949	-0,085623	105,795	-0,075831	22,120000	48,250000
2,717960	-0,164303	106,296	-0,075864	22,120000	48,250000
2,728035	-0,062481	106,796	-0,075821	22,120000	48,250000
2,737963	-0,164303	107,297	-0,075864	22,120000	48,250000
2,747963	-7,179586	107,799	-0,078824	22,120000	48,250000
2,757981	-203,794940	108,302	-0,161796	22,120000	48,250000
2,767962	-204,139746	108,804	-0,161941	22,120000	48,250000
2,777968	-200,839797	109,305	-0,160549	22,120000	48,250000
2,787974	-196,457994	109,806	-0,158700	22,120000	48,250000
2,798010	-190,627546	110,308	-0,156239	22,120000	48,250000
2,807954	-185,751675	110,810	-0,154182	22,120000	48,250000
2,817976	-181,049365	111,312	-0,152197	22,110000	48,275000
2,828037	-175,265199	111,813	-0,149756	22,110000	48,275000
2,837942	-169,652279	112,313	-0,147388	22,110000	48,275000
2,847942	-165,718259	112,813	-0,145728	22,110000	48,275000
2,857969	-159,518707	113,314	-0,143111	22,110000	48,275000
2,867990	-153,098156	113,815	-0,140402	22,110000	48,275000
2,877955	-148,482626	114,316	-0,138454	22,110000	48,275000
2,887955	-141,592306	114,817	-0,135546	22,110000	48,275000
2,897939	-137,274141	115,318	-0,133724	22,120000	48,235000
2,907939	-132,007183	115,818	-0,131501	22,120000	48,235000
2,917952	-126,167478	116,318	-0,129037	22,120000	48,235000
2,927969	-120,586956	116,819	-0,126682	22,120000	48,235000
2,937920	-114,865271	117,322	-0,124268	22,110000	48,250000
2,947929	-109,010525	117,823	-0,121797	22,110000	48,250000
2,957922	-101,854080	118,324	-0,118777	22,110000	48,250000
2,967924	-97,159869	118,824	-0,116796	22,110000	48,250000
2,977895	-91,821173	119,324	-0,114543	22,110000	48,250000
2,987956	-84,194961	119,825	-0,111325	22,110000	48,250000
2,997926	-80,026057	120,325	-0,109565	22,110000	48,250000
3,007994	-72,775890	120,825	-0,106506	22,110000	48,250000
3,017929	-67,993743	121,325	-0,104488	22,120000	48,275000
3,027909	-61,856672	121,828	-0,101898	22,120000	48,275000
3,037958	-54,928169	122,328	-0,098974	22,120000	48,275000
3,047977	-50,500083	122,828	-0,097105	22,120000	48,275000
3,057957	-43,735884	123,328	-0,094251	22,120000	48,260000
3,067880	-37,794357	123,829	-0,091744	22,120000	48,260000
3,077934	-30,982718	124,331	-0,088869	22,120000	48,260000
3,087940	-26,045524	124,832	-0,086786	22,120000	48,260000
3,097985	-20,355080	125,333	-0,084384	22,110000	48,250000
3,107899	-14,695877	125,835	-0,081996	22,110000	48,250000
3,117907	-7,570674	126,338	-0,078989	22,110000	48,250000
3,127919	-1,912628	126,839	-0,076602	22,110000	48,250000
3,137921	5,885987	127,341	-0,073311	22,120000	48,250000
3,147938	10,651936	127,843	-0,071299	22,120000	48,250000
3,157970	16,562222	128,344	-0,068805	22,120000	48,250000
3,167923	23,162119	128,846	-0,066020	22,120000	48,250000
3,177942	29,266791	129,346	-0,063444	22,120000	48,260000
3,187944	35,475600	129,846	-0,060824	22,120000	48,260000
3,197923	42,051198	130,346	-0,058049	22,120000	48,260000
3,207951	47,459318	130,847	-0,055767	22,120000	48,260000
3,217925	52,906778	131,348	-0,053468	22,110000	48,250000
3,227886	59,365512	131,850	-0,050742	22,110000	48,250000
3,237900	65,235301	132,351	-0,048265	22,110000	48,250000
3,247869	71,733375	132,851	-0,045523	22,110000	48,250000
3,257948	77,556881	133,353	-0,043065	22,120000	48,250000
3,267934	85,567239	133,856	-0,039685	22,120000	48,250000
3,277948	91,398845	134,358	-0,037224	22,120000	48,250000
3,287907	96,344139	134,858	-0,035137	22,120000	48,250000
3,297912	102,865355	135,360	-0,032385	22,120000	48,275000
3,307878	109,872538	135,860	-0,029428	22,120000	48,275000
3,317919	115,861504	136,362	-0,026901	22,120000	48,275000
3,327886	121,770633	136,862	-0,024407	22,120000	48,275000
3,337884	128,331189	137,363	-0,021639	22,110000	48,250000
3,347881	133,903612	137,863	-0,019287	22,110000	48,250000
3,357886	140,675911	138,363	-0,016429	22,110000	48,250000
3,367855	146,108329	138,866	-0,014137	22,110000	48,250000
3,377870	152,723267	139,368	-0,011345	22,110000	48,250000
3,387854	159,111421	139,869	-0,008649	22,110000	48,250000
3,397878	166,776973	140,369	-0,005415	22,110000	48,250000
3,407864	171,965251	140,870	-0,003225	22,110000	48,250000
3,417891	178,087280	141,372	-0,000642	22,110000	48,285000
3,427860	185,838455	141,873	0,002629	22,110000	48,285000
3,437897	190,784906	142,374	0,004717	22,110000	48,285000
3,447905	197,861513	142,876	0,007703	22,110000	48,285000
3,457887	203,207152	143,377	0,009959	22,110000	48,250000
3,467846	210,575339	143,879	0,013068	22,110000	48,250000
3,477853	216,108422	144,381	0,015403	22,110000	48,250000
3,487813	222,653936	144,882	0,018166	22,110000	48,250000
3,497823	230,232709	145,382	0,021364	22,110000	48,235000
3,507859	234,911878	145,882	0,023338	22,110000	48,235000
3,517820	241,316230	146,382	0,026041	22,110000	48,235000
3,527814	247,844389	146,884	0,028796	22,110000	48,235000
3,537834	255,808464	147,384	0,032157	22,110000	48,235000
3,547856	260,840538	147,885	0,034280	22,110000	48,235000
3,557886	267,023891	148,385	0,036890	22,110000	48,235000
3,567766	274,713742	148,887	0,040135	22,110000	48,235000
3,577761	280,521049	149,389	0,042585	22,110000	48,260000
3,587780	287,222767	149,890	0,045414	22,110000	48,260000
3,597836	293,978867	150,391	0,048265	22,110000	48,260000
3,607843	299,042182	150,893	0,050401	22,110000	48,260000
3,617808	305,791340	151,394	0,053250	22,110000	48,250000
3,627843	312,045274	151,895	0,055889	22,110000	48,250000
3,637810	318,065481	152,395	0,058429	22,110000	48,250000
3,647820	324,742900	152,896	0,061247	22,110000	48,250000
3,657818	331,045431	153,398	0,063907	22,110000	48,235000
3,667839	337,550448	153,899	0,066652	22,110000	48,235000
3,677838	343,679419	154,400	0,069238	22,110000	48,235000
3,687787	350,200635	154,900	0,071990	22,110000	48,235000
3,697863	358,094130	155,401	0,075321	22,120000	48,260000
3,707781	362,968843	155,901	0,077378	22,120000	48,260000
3,717833	369,450718	156,404	0,080114	22,120000	48,260000
3,727823	377,108172	156,906	0,083345	22,120000	48,260000
3,737850	383,269541	157,408	0,085945	22,110000	48,235000
3,747834	389,602155	157,909	0,088618	22,110000	48,235000
3,757818	395,645503	158,410	0,091168	22,110000	48,235000
3,767767	402,222258	158,910	0,093943	22,110000	48,235000
3,777801	408,727275	159,412	0,096688	22,110000	48,235000
3,787813	415,059890	159,912	0,099361	22,110000	48,235000
3,797838	421,244400	160,413	0,101971	22,110000	48,235000
3,807752	427,914877	160,913	0,104786	22,110000	48,235000
3,817842	434,396753	161,413	0,107521	22,110000	48,250000
3,827791	440,847388	161,915	0,110243	22,110000	48,250000
3,837835	448,982709	162,416	0,113676	22,110000	48,250000
3,847798	455,385904	162,917	0,116378	22,110000	48,250000
3,857811	461,767115	163,418	0,119071	22,110000	48,250000
3,867747	466,845472	163,918	0,121214	22,110000	48,250000
3,877801	473,289164	164,420	0,123934	22,110000	48,250000
3,887803	481,291423	164,920	0,127311	22,110000	48,250000
3,897802	487,976942	165,421	0,130132	22,110000	48,235000
3,907800	493,831689	165,924	0,132603	22,110000	48,235000
3,917777	499,498991	166,425	0,134994	22,110000	48,235000
3,927804	506,286332	166,927	0,137858	22,110000	48,235000
3,937775	512,720768	167,428	0,140574	22,110000	48,250000
3,947790	519,509266	167,929	0,143438	22,110000	48,250000
3,957788	525,858079	168,431	0,146118	22,110000	48,250000
3,967814	532,771540	168,932	0,149035	22,110000	48,250000
3,977809	538,743150	169,432	0,151555	22,120000	48,235000
3,987783	545,554789	169,932	0,154430	22,120000	48,235000
3,997793	552,373371	170,433	0,157307	22,120000	48,235000
4,007806	558,574080	170,935	0,159924	22,120000	48,235000
4,017745	566,560140	171,436	0,163294	22,120000	48,235000
4,027803	572,925152	171,937	0,165980	22,120000	48,235000
4,037756	578,113429	172,438	0,168169	22,120000	48,235000
4,047769	586,084447	172,938	0,171533	22,120000	48,235000
4,057802	593,006007	173,439	0,174454	22,120000	48,260000
4,067741	598,790173	173,939	0,176895	22,120000	48,260000
4,077765	604,912202	174,441	0,179479	22,120000	48,260000
4,087757	611,221675	174,941	0,182141	22,120000	48,260000
4,097760	618,142078	175,441	0,185062	22,110000	48,275000
4,107753	625,086780	175,941	0,187992	22,110000	48,275000
4,117776	631,278232	176,443	0,190605	22,110000	48,275000
4,117709	632,054623	176,943	0,190933	22,110000	48,275000
4,117747	631,074589	177,443	0,190519	22,110000	48,275000
4,117771	631,035249	177,943	0,190502	22,110000	48,275000
4,117739	630,636062	178,445	0,190334	22,110000	48,275000
4,117783	630,659203	178,947	0,190344	22,110000	48,275000
4,117734	630,204476	179,448	0,190152	22,110000	48,275000
4,117717	629,875870	179,949	0,190013	22,110000	48,275000
4,117785	629,577347	180,451	0,189887	22,110000	48,275000
4,117758	629,225600	180,952	0,189739	22,110000	48,275000
4,117756	629,271882	181,452	0,189758	22,110000	48,250000
4,117796	629,161961	181,953	0,189712	22,110000	48,250000
4,117717	628,997658	182,453	0,189643	22,110000	48,250000
4,117764	628,394827	182,954	0,189388	22,110000	48,250000
4,117801	628,441110	183,454	0,189408	22,120000	48,250000
4,117757	628,378629	183,954	0,189381	22,120000	48,250000
4,117803	627,907703	184,455	0,189183	22,120000	48,250000
4,117724	628,229367	184,956	0,189318	22,120000	48,250000
4,117783	627,971342	185,457	0,189209	22,120000	48,260000
4,117722	627,868363	185,959	0,189166	22,120000	48,260000
4,117770	627,971342	186,460	0,189209	22,120000	48,260000
4,107793	621,904852	186,961	0,186649	22,120000	48,260000
4,097756	614,451042	187,461	0,183504	22,110000	48,250000
4,087747	607,255258	187,962	0,180467	22,110000	48,250000
4,077698	598,390986	188,462	0,176727	22,110000	48,250000
4,067740	592,370779	188,962	0,174186	22,110000	48,250000
4,057718	584,242400	189,463	0,170756	22,110000	48,275000
4,047741	577,149595	189,965	0,167763	22,110000	48,275000
4,037781	570,189851	190,465	0,164826	22,110000	48,275000
4,027804	564,483209	190,965	0,162417	22,110000	48,275000
4,017786	556,237967	191,465	0,158938	22,110000	48,235000
4,007758	550,421403	191,968	0,156483	22,110000	48,235000
3,997746	543,180493	192,468	0,153428	22,110000	48,235000
3,987748	535,781065	192,968	0,150305	22,110000	48,235000
3,977723	529,235551	193,471	0,147543	22,110000	48,275000
3,967741	522,777973	193,971	0,144818	22,110000	48,275000
3,957777	515,582189	194,472	0,141781	22,110000	48,275000
3,947779	509,013533	194,972	0,139009	22,110000	48,275000
3,937815	502,344213	195,474	0,136195	22,110000	48,260000
3,927772	495,077847	195,974	0,133128	22,110000	48,260000
3,917773	488,337946	196,476	0,130284	22,110000	48,260000
3,907781	480,099646	196,976	0,126808	22,110000	48,260000
3,897786	474,855830	197,476	0,124595	22,120000	48,250000
3,887769	468,037248	197,976	0,121717	22,120000	48,250000
3,877853	461,030065	198,476	0,118760	22,120000	48,250000
3,867789	452,737383	198,979	0,115261	22,120000	48,250000
3,857777	445,918802	199,481	0,112383	22,120000	48,260000
3,847828	439,373288	199,982	0,109621	22,120000	48,260000
3,837787	433,730284	200,483	0,107240	22,120000	48,260000
3,827778	426,378295	200,984	0,104137	22,120000	48,260000
3,817819	419,496075	201,484	0,101233	22,110000	48,260000
3,807835	411,901103	201,985	0,098028	22,110000	48,260000
3,797855	406,461743	202,486	0,095732	22,110000	48,260000
3,787779	399,666303	202,988	0,092865	22,110000	48,260000
3,777796	393,113846	203,488	0,090100	22,110000	48,250000
3,767797	384,931085	203,990	0,086646	22,110000	48,250000
3,757754	379,782148	204,490	0,084474	22,110000	48,250000
3,747827	372,954310	204,991	0,081592	22,110000	48,250000
3,737844	364,528566	205,492	0,078037	22,110000	48,250000
3,727785	357,866188	205,994	0,075225	22,110000	48,250000
3,717723	351,086946	206,495	0,072364	22,110000	48,250000
3,707846	346,046773	206,996	0,070237	22,110000	48,250000
3,697845	338,310639	207,497	0,066973	22,120000	48,250000
3,687834	331,319655	207,998	0,064022	22,120000	48,250000
3,677800	325,213826	208,500	0,061446	22,120000	48,250000
3,667750	317,884979	209,000	0,058353	22,120000	48,250000
3,657831	310,406870	209,502	0,055197	22,110000	48,260000
3,647824	304,930484	210,003	0,052886	22,110000	48,260000
3,637749	298,439351	210,505	0,050147	22,110000	48,260000
3,627789	291,494650	211,006	0,047216	22,110000	48,260000
3,617784	284,942193	211,506	0,044451	22,120000	48,260000
3,607839	276,876296	212,006	0,041047	22,120000	48,260000
3,597774	271,068989	212,506	0,038597	22,120000	48,260000
3,587819	264,460993	213,009	0,035808	22,120000	48,260000
3,577804	256,200709	213,511	0,032322	22,110000	48,260000
3,567837	251,073756	214,013	0,030159	22,110000	48,260000
3,557754	244,247075	214,513	0,027278	22,110000	48,260000
3,547819	236,832605	215,016	0,024149	22,110000	48,260000
3,537854	230,263950	215,517	0,021377	22,110000	48,260000
3,527775	223,460410	216,019	0,018506	22,110000	48,260000
3,517898	217,221518	216,521	0,015873	22,110000	48,260000
3,507794	208,772632	217,024	0,012308	22,110000	48,260000
3,497842	203,521873	217,525	0,010092	22,110000	48,250000
3,487813	196,035665	218,026	0,006933	22,110000	48,250000
3,477855	188,291432	218,528	0,003665	22,110000	48,250000
3,467849	182,068739	219,029	0,001039	22,110000	48,250000
3,457832	175,358921	219,530	-0,001793	22,110000	48,250000
3,447830	169,676577	220,032	-0,004191	22,110000	48,250000
3,437818	162,912378	220,533	-0,007045	22,110000	48,250000
3,427870	156,305539	221,033	-0,009833	22,110000	48,250000
3,417896	148,999833	221,533	-0,012917	22,120000	48,235000
3,407887	141,404862	222,033	-0,016122	22,120000	48,235000
3,397854	135,746816	222,533	-0,018509	22,120000	48,235000
3,387867	129,671070	223,035	-0,021073	22,120000	48,235000
3,377783	122,829347	223,535	-0,023960	22,110000	48,260000
3,367870	114,685926	224,037	-0,027397	22,110000	48,260000
3,357840	109,253508	224,537	-0,029689	22,110000	48,260000
3,347832	102,756591	225,037	-0,032431	22,110000	48,260000
3,337905	94,620113	225,537	-0,035865	22,110000	48,235000
3,327873	88,584864	226,038	-0,038412	22,110000	48,235000
3,317884	82,534573	226,541	-0,040965	22,110000	48,235000
3,307869	75,166386	227,045	-0,044074	22,110000	48,235000
3,297925	67,548273	227,547	-0,047289	22,110000	48,235000
3,287876	60,846555	228,049	-0,050117	22,110000	48,235000
3,277900	54,348480	228,549	-0,052859	22,110000	48,235000
3,267919	47,718500	229,051	-0,055657	22,110000	48,235000
3,257932	40,836280	229,551	-0,058562	22,120000	48,260000
3,247920	34,769790	230,052	-0,061122	22,120000	48,260000
3,237895	26,249167	230,553	-0,064717	22,120000	48,260000
3,227874	20,950968	231,053	-0,066953	22,120000	48,260000
3,217843	12,736967	231,554	-0,070419	22,120000	48,260000
3,207892	7,345046	232,054	-0,072695	22,120000	48,260000
3,197870	-0,509108	232,554	-0,076009	22,120000	48,260000
3,187896	-5,862846	233,054	-0,078269	22,120000	48,260000
3,177909	-12,767051	233,555	-0,081182	22,120000	48,250000
3,167984	-20,903529	234,057	-0,084616	22,120000	48,250000
3,157931	-26,390329	234,560	-0,086931	22,120000	48,250000
3,147939	-33,852238	235,061	-0,090080	22,120000	48,250000
3,137916	-40,890662	235,562	-0,093050	22,110000	48,275000
3,127893	-47,285758	236,064	-0,095749	22,110000	48,275000
3,117919	-53,557048	236,564	-0,098396	22,110000	48,275000
3,107931	-60,681094	237,064	-0,101402	22,110000	48,275000
3,097921	-67,405954	237,564	-0,104240	22,120000	48,260000
3,087950	-73,613605	238,064	-0,106859	22,120000	48,260000
3,077965	-80,244742	238,567	-0,109658	22,120000	48,260000
3,067934	-88,223860	239,068	-0,113025	22,120000	48,260000
3,057943	-93,154112	239,568	-0,115105	22,120000	48,260000
3,047912	-100,121955	240,069	-0,118046	22,120000	48,260000
3,037908	-106,807474	240,570	-0,120867	22,120000	48,260000
3,027929	-113,141245	241,071	-0,123540	22,120000	48,260000
3,017896	-119,490059	241,572	-0,126219	22,120000	48,235000
3,007890	-126,958910	242,073	-0,129371	22,120000	48,235000
2,997964	-132,688694	242,573	-0,131789	22,120000	48,235000
2,987910	-138,645263	243,074	-0,134303	22,120000	48,235000
2,977925	-146,499417	243,576	-0,137617	22,120000	48,220000
2,967911	-152,621445	244,078	-0,140201	22,120000	48,220000
2,957964	-159,486310	244,579	-0,143098	22,120000	48,220000
2,947939	-165,176753	245,079	-0,145499	22,120000	48,235000
2,937914	-172,254517	245,582	-0,148486	22,120000	48,235000
2,927987	-178,634571	246,082	-0,151178	22,120000	48,235000
2,917920	-186,684269	246,584	-0,154575	22,120000	48,235000
2,908019	-191,371538	247,085	-0,156553	22,110000	48,250000
2,897908	-199,774141	247,588	-0,160099	22,110000	48,250000
2,887919	-205,911211	248,088	-0,162689	22,110000	48,250000
2,877963	-211,194368	248,589	-0,164918	22,110000	48,250000
2,867930	-219,369030	249,090	-0,168368	22,110000	48,235000
2,857933	-225,944628	249,591	-0,171143	22,110000	48,235000
2,847912	-232,567665	250,092	-0,173938	22,110000	48,235000
2,837939	-237,983884	250,593	-0,176224	22,110000	48,235000
2,827973	-244,395179	251,094	-0,178929	22,120000	48,250000
2,818022	-250,712752	251,595	-0,181595	22,120000	48,250000
2,807968	-256,826681	252,096	-0,184175	22,120000	48,250000
2,797987	-263,371038	252,597	-0,186937	22,120000	48,250000
2,788012	-270,135238	253,099	-0,189792	22,120000	48,235000
2,777952	-276,155445	253,600	-0,192332	22,120000	48,235000
2,767916	-282,832864	254,100	-0,195150	22,120000	48,235000
2,757955	-289,730126	254,601	-0,198061	22,120000	48,235000
2,748000	-296,949052	255,102	-0,201107	22,120000	48,235000
2,737975	-303,501509	255,602	-0,203872	22,120000	48,235000
2,727965	-309,983385	256,103	-0,206607	22,120000	48,235000
2,717989	-315,744409	256,604	-0,209039	22,120000	48,235000
2,707978	-322,155704	257,104	-0,211744	22,110000	48,260000
2,697937	-326,639329	257,604	-0,213636	22,110000	48,260000
2,687966	-332,392254	258,107	-0,216064	22,110000	48,260000
2,678012	-338,568665	258,610	-0,218670	22,110000	48,260000
2,668012	-345,129221	259,110	-0,221439	22,110000	48,260000
2,657951	-351,948960	259,611	-0,224317	22,110000	48,260000
2,647967	-357,725026	260,112	-0,226754	22,110000	48,260000
2,637973	-363,799615	260,613	-0,229318	22,110000	48,260000
2,627976	-369,631220	261,114	-0,231779	22,120000	48,235000
2,617931	-377,719102	261,615	-0,235192	22,120000	48,235000
2,607957	-382,524391	262,116	-0,237220	22,120000	48,235000
2,597980	-388,763283	262,616	-0,239853	22,120000	48,235000
2,587915	-394,736050	263,119	-0,242373	22,120000	48,235000
2,577967	-402,683927	263,621	-0,245727	22,120000	48,235000
2,568001	-409,087122	264,121	-0,248429	22,120000	48,235000
2,557947	-414,150437	264,622	-0,250566	22,120000	48,235000
2,548020	-420,515449	265,122	-0,253252	22,110000	48,220000
2,537971	-426,291515	265,622	-0,255689	22,110000	48,220000
2,527974	-432,428586	266,124	-0,258279	22,110000	48,220000
2,518054	-438,659379	266,625	-0,260909	22,110000	48,220000
2,507965	-444,679586	267,129	-0,263449	22,110000	48,275000
2,498015	-451,240142	267,632	-0,266218	22,110000	48,275000
2,487994	-455,402103	268,134	-0,267974	22,110000	48,275000
2,478009	-461,711576	268,634	-0,270637	22,110000	48,275000
2,467983	-468,139070	269,134	-0,273349	22,120000	48,275000
2,457991	-476,133229	269,636	-0,276723	22,120000	48,275000
2,447951	-480,561315	270,139	-0,278591	22,120000	48,275000
2,438024	-487,325515	270,640	-0,281446	22,120000	48,275000
2,427996	-493,698626	271,141	-0,284135	22,120000	48,275000
2,417999	-499,443452	271,641	-0,286560	22,120000	48,275000
2,407950	-505,400020	272,142	-0,289073	22,120000	48,275000
2,398005	-510,392754	272,642	-0,291180	22,120000	48,275000
2,387946	-516,193119	273,144	-0,293628	22,120000	48,235000
2,377961	-523,733709	273,644	-0,296810	22,120000	48,235000
2,368036	-528,937028	274,148	-0,299006	22,120000	48,235000
2,358008	-534,087122	274,648	-0,301179	22,120000	48,235000
2,348000	-541,642754	275,149	-0,304368	22,120000	48,235000
2,337986	-546,024558	275,650	-0,306217	22,120000	48,235000
2,327952	-551,596981	276,150	-0,308568	22,120000	48,235000
2,317982	-557,577847	276,652	-0,311092	22,120000	48,235000
2,307999	-563,001009	277,153	-0,313381	22,100000	48,255000
2,297995	-569,318582	277,653	-0,316047	22,100000	48,255000
2,287990	-574,766042	278,154	-0,318346	22,100000	48,255000
2,277969	-581,342797	278,654	-0,321121	22,100000	48,255000
2,268036	-588,012117	279,157	-0,323936	22,120000	48,260000
2,258032	-593,098573	279,658	-0,326082	22,120000	48,260000
2,247963	-598,649011	280,160	-0,328424	22,120000	48,260000
2,238000	-604,323256	280,661	-0,330819	22,120000	48,260000
2,228011	-609,401612	281,161	-0,332962	22,120000	48,260000
2,218002	-614,339964	281,661	-0,335046	22,120000	48,260000
2,207985	-621,315906	282,165	-0,337990	22,120000	48,260000
2,197956	-627,272475	282,668	-0,340503	22,120000	48,260000
2,188041	-631,818582	283,168	-0,342422	22,110000	48,260000
2,177985	-637,336622	283,669	-0,344750	22,110000	48,260000
2,168015	-643,278149	284,170	-0,347258	22,110000	48,260000
2,158011	-649,383979	284,671	-0,349834	22,110000	48,260000
2,148018	-654,399854	285,172	-0,351951	22,120000	48,250000
2,137987	-659,832272	285,672	-0,354244	22,120000	48,250000
2,127973	-665,130471	286,172	-0,356479	22,120000	48,250000
2,117975	-670,091963	286,673	-0,358573	22,120000	48,250000
2,108000	-676,095972	287,173	-0,361107	22,120000	48,250000
2,098026	-681,441610	287,675	-0,363363	22,120000	48,250000
2,088006	-686,401946	288,175	-0,365456	22,120000	48,250000
2,078033	-691,630721	288,678	-0,367663	22,120000	48,250000
2,067984	-696,983301	289,180	-0,369921	22,110000	48,260000
2,058029	-703,928003	289,680	-0,372852	22,110000	48,260000
2,047998	-708,286665	290,181	-0,374691	22,110000	48,260000
2,037982	-715,630554	290,682	-0,377791	22,110000	48,260000
2,027960	-719,612013	291,182	-0,379471	22,110000	48,260000
2,017983	-725,670403	291,683	-0,382027	22,110000	48,260000
2,008017	-730,671236	292,183	-0,384138	22,110000	48,260000
1,997990	-737,129971	292,683	-0,386863	22,110000	48,260000
1,988012	-742,193285	293,183	-0,389000	22,110000	48,275000
1,977996	-746,332105	293,683	-0,390747	22,110000	48,275000
1,968025	-751,802707	294,186	-0,393055	22,110000	48,275000
1,957980	-757,084706	294,690	-0,395284	22,110000	48,275000
1,947974	-761,262867	295,192	-0,397047	22,110000	48,275000
1,937999	-765,746492	295,693	-0,398939	22,110000	48,275000
1,927970	-771,202051	296,194	-0,401242	22,110000	48,275000
1,918038	-775,402196	296,695	-0,403014	22,110000	48,275000
1,908031	-779,314231	297,196	-0,404665	22,110000	48,250000
1,898039	-784,479367	297,696	-0,406845	22,110000	48,250000
1,887944	-789,306641	298,197	-0,408882	22,110000	48,250000
1,877959	-794,448636	298,700	-0,411052	22,110000	48,250000
1,868005	-801,299615	299,201	-0,413943	22,110000	48,250000
1,858036	-805,116771	299,702	-0,415554	22,110000	48,250000
1,848034	-810,830356	300,203	-0,417965	22,110000	48,250000
1,838035	-814,726192	300,704	-0,419609	22,110000	48,250000
1,828004	-818,958734	301,204	-0,421395	22,110000	48,250000
1,818017	-823,386821	301,704	-0,423264	22,110000	48,250000
1,808042	-827,878545	302,206	-0,425159	22,110000	48,250000
1,798020	-831,757026	302,707	-0,426796	22,110000	48,250000
1,787973	-836,350572	303,208	-0,428734	22,120000	48,250000
1,778023	-842,769966	303,708	-0,431443	22,120000	48,250000
1,767991	-846,414720	304,208	-0,432981	22,120000	48,250000
1,758006	-850,545440	304,709	-0,434725	22,120000	48,250000
1,747990	-855,648095	305,210	-0,436878	22,120000	48,250000
1,738049	-861,777066	305,710	-0,439464	22,120000	48,250000
1,728049	-864,410545	306,212	-0,440576	22,120000	48,250000
1,718041	-866,825339	306,712	-0,441595	22,120000	48,250000
1,708023	-870,688777	307,214	-0,443225	22,110000	48,220000
1,697996	-872,601405	307,714	-0,444032	22,110000	48,220000
1,688047	-877,068831	308,217	-0,445917	22,110000	48,220000
1,678035	-882,649354	308,720	-0,448272	22,110000	48,220000
1,668041	-886,850655	309,221	-0,450045	22,120000	48,260000
1,658039	-891,436102	309,723	-0,451980	22,120000	48,260000
1,648032	-895,002175	310,224	-0,453485	22,120000	48,260000
1,638036	-898,819331	310,724	-0,455096	22,120000	48,260000
1,628048	-904,501675	311,225	-0,457494	22,110000	48,250000
1,618026	-905,301207	311,725	-0,457832	22,110000	48,250000
1,608037	-908,200811	312,225	-0,459055	22,110000	48,250000
1,598015	-911,391995	312,726	-0,460402	22,110000	48,250000
1,588036	-914,895586	313,226	-0,461880	22,120000	48,260000
1,578042	-916,227368	313,727	-0,462442	22,120000	48,260000
1,568012	-918,484801	314,229	-0,463395	22,120000	48,260000
1,558034	-921,784749	314,730	-0,464788	22,120000	48,260000
1,548034	-922,968426	315,231	-0,465287	22,110000	48,235000
1,538042	-923,814240	315,732	-0,465644	22,110000	48,235000
1,528094	-927,475193	316,233	-0,467189	22,110000	48,235000
1,518031	-930,171153	316,733	-0,468327	22,110000	48,235000
1,508010	-934,349313	317,235	-0,470090	22,110000	48,235000
1,498043	-935,007683	317,737	-0,470368	22,110000	48,235000
1,488011	-936,418145	318,238	-0,470963	22,110000	48,235000
1,478036	-940,172819	318,742	-0,472547	22,110000	48,235000
1,468025	-939,153445	319,242	-0,472117	22,110000	48,275000
1,458059	-939,836113	319,742	-0,472405	22,110000	48,275000
1,448005	-938,408296	320,243	-0,471803	22,110000	48,275000
1,438058	-939,780574	320,746	-0,472382	22,110000	48,275000
1,428018	-936,473684	321,247	-0,470986	22,110000	48,250000
1,418051	-937,053373	321,750	-0,471231	22,110000	48,250000
1,408018	-934,042691	322,250	-0,469960	22,110000	48,250000
1,398050	-930,163054	322,752	-0,468323	22,110000	48,250000
1,388046	-923,901020	323,256	-0,465681	22,110000	48,275000
1,378031	-914,621362	323,758	-0,461765	22,110000	48,275000
1,368010	-910,293941	324,260	-0,459938	22,110000	48,275000
1,358011	-902,926911	324,762	-0,456830	22,110000	48,275000
1,348059	-895,841047	325,262	-0,453839	22,110000	48,275000
1,338067	-880,329439	325,762	-0,447293	22,110000	48,275000
1,328042	-863,909536	326,264	-0,440364	22,110000	48,275000
1,318050	-823,919070	326,764	-0,423488	22,110000	48,275000
1,308038	-0,814573	327,267	-0,076138	22,110000	48,235000
1,298066	-0,556548	327,768	-0,076029	22,110000	48,235000
1,288044	-0,862013	328,268	-0,076158	22,110000	48,235000
1,278075	-0,336706	328,772	-0,075937	22,110000	48,235000
1,268069	-0,352905	329,274	-0,075943	22,110000	48,235000
1,258089	-0,556548	329,774	-0,076029	22,110000	48,235000
1,248060	-0,399187	330,274	-0,075963	22,110000	48,235000
1,238053	-0,148104	330,775	-0,075857	22,110000	48,235000
1,228083	-0,242984	331,277	-0,075897	22,110000	48,260000
1,218046	-0,266125	331,778	-0,075907	22,110000	48,260000
1,208094	0,000000	332,279	-0,075794	22,110000	48,260000
1,198067	-0,344805	332,779	-0,075940	22,110000	48,260000
1,188073	-0,274224	333,283	-0,075910	22,120000	48,260000
1,178051	0,055539	333,784	-0,075771	22,120000	48,260000
1,168057	-0,008099	334,286	-0,075798	22,120000	48,260000
1,158093	-0,141162	334,786	-0,075854	22,120000	48,260000
1,148093	-0,305465	335,287	-0,075923	22,120000	48,235000
1,138063	-0,266125	335,789	-0,075907	22,120000	48,235000
1,128060	-0,015042	336,291	-0,075801	22,120000	48,235000
1,118071	0,031241	336,793	-0,075781	22,120000	48,235000
1,108077	-0,274224	337,294	-0,075910	22,110000	48,260000
1,098020	0,024298	337,794	-0,075784	22,110000	48,260000
1,088054	-0,047440	338,296	-0,075814	22,110000	48,260000
1,078054	0,078680	338,798	-0,075761	22,110000	48,260000
1,068017	-0,305465	339,299	-0,075923	22,110000	48,250000
1,058069	-0,195544	339,800	-0,075877	22,110000	48,250000
1,048111	-0,116864	340,301	-0,075844	22,110000	48,250000
1,038083	-0,407287	340,802	-0,075966	22,110000	48,250000
1,028066	-0,187444	341,303	-0,075874	22,130000	48,235000
1,018048	-0,148104	341,804	-0,075857	22,130000	48,235000
1,008074	-0,093722	342,305	-0,075834	22,130000	48,235000
0,998071	-0,156204	342,808	-0,075860	22,130000	48,235000
0,988039	-0,281167	343,310	-0,075913	22,110000	48,235000
0,978062	-0,313564	343,810	-0,075927	22,110000	48,235000
0,968028	-0,359847	344,310	-0,075946	22,110000	48,235000
0,958069	-0,180502	344,810	-0,075871	22,110000	48,235000
0,948040	-0,172403	345,311	-0,075867	22,110000	48,235000
0,938067	0,016199	345,814	-0,075788	22,110000	48,235000
0,928094	-0,031241	346,316	-0,075808	22,110000	48,235000
0,918013	0,016199	346,818	-0,075788	22,110000	48,235000
0,908018	0,047440	347,318	-0,075774	22,110000	48,260000
0,898064	-0,085623	347,819	-0,075831	22,110000	48,260000
0,888014	-0,133062	348,320	-0,075851	22,110000	48,260000
0,878058	0,016199	348,821	-0,075788	22,110000	48,260000
0,868044	-0,281167	349,321	-0,075913	22,120000	48,260000
0,858127	-0,203643	349,822	-0,075880	22,120000	48,260000
0,848031	-0,108764	350,323	-0,075840	22,120000	48,260000
0,838057	0,055539	350,825	-0,075771	22,120000	48,260000
0,828030	-0,180502	351,328	-0,075871	22,120000	48,220000
0,818043	-0,108764	351,828	-0,075840	22,120000	48,220000
0,808033	-0,054382	352,328	-0,075817	22,120000	48,220000
0,798074	-0,180502	352,828	-0,075871	22,120000	48,220000
0,788101	0,070581	353,328	-0,075765	22,120000	48,220000
0,778046	-0,047440	353,828	-0,075814	22,120000	48,220000
0,768009	-0,141162	354,329	-0,075854	22,120000	48,220000
0,758074	-0,070581	354,830	-0,075824	22,120000	48,220000
0,748048	-0,320507	355,332	-0,075930	22,110000	48,250000
0,738081	0,118021	355,833	-0,075745	22,110000	48,250000
0,728050	-0,023141	356,333	-0,075804	22,110000	48,250000
0,718072	-0,015042	356,836	-0,075801	22,110000	48,250000
0,708093	-0,266125	357,336	-0,075907	22,120000	48,275000
0,698056	-0,116864	357,838	-0,075844	22,120000	48,275000
0,688055	-0,281167	358,339	-0,075913	22,120000	48,275000
0,678039	-0,116864	358,840	-0,075844	22,120000	48,275000
0,668086	-0,008099	359,340	-0,075798	22,110000	48,260000
0,658040	0,000000	359,842	-0,075794	22,110000	48,260000
0,648042	0,039340	360,343	-0,075778	22,110000	48,260000
0,638065	-0,031241	360,844	-0,075808	22,110000	48,260000
0,628087	0,094879	361,348	-0,075754	22,110000	48,260000
0,618036	0,016199	361,849	-0,075788	22,110000	48,260000