File: Nanoindentation Datenauswertung/data/PDMS_10-1/test-4
Quasi static measurement routine
Tip parameters (shape,radius, material...)
16.09.2022

Piezo position[nm]	MEMS displ.[nm]	Time[ms]	Cap [pf]	Temp [°C]	Rh [%]
eoh
0,608144	-0,415386	1,068	-0,075808	22,080000	48,455000
0,616075	-0,180502	1,469	-0,075708	22,080000	48,455000
0,624138	-0,093722	1,870	-0,075672	22,080000	48,455000
0,632102	-0,008099	2,270	-0,075636	22,090000	48,440000
0,640122	-0,093722	2,672	-0,075672	22,090000	48,440000
0,648141	-0,077523	3,074	-0,075665	22,090000	48,440000
0,656086	-0,054382	3,474	-0,075655	22,090000	48,440000
0,664097	-0,101822	3,877	-0,075675	22,090000	48,440000
0,672131	0,023141	4,280	-0,075623	22,090000	48,505000
0,680091	-0,101822	4,682	-0,075675	22,090000	48,505000
0,688137	-0,242984	5,082	-0,075735	22,090000	48,505000
0,696151	-0,242984	5,482	-0,075735	22,090000	48,505000
0,704165	-0,070581	5,883	-0,075662	22,090000	48,505000
0,712068	-0,234884	6,283	-0,075731	22,090000	48,505000
0,720145	-0,141162	6,683	-0,075692	22,090000	48,505000
0,728129	-0,258025	7,085	-0,075741	22,090000	48,505000
0,736124	-0,101822	7,485	-0,075675	22,090000	48,505000
0,744077	-0,070581	7,886	-0,075662	22,090000	48,505000
0,752121	-0,149261	8,288	-0,075695	22,090000	48,480000
0,760091	-0,203643	8,689	-0,075718	22,090000	48,480000
0,768125	-0,203643	9,090	-0,075718	22,090000	48,480000
0,776066	-0,039340	9,491	-0,075649	22,090000	48,480000
0,784085	-0,016199	9,892	-0,075639	22,090000	48,480000
0,792151	-0,313564	10,293	-0,075765	22,090000	48,455000
0,800091	0,101822	10,694	-0,075589	22,090000	48,455000
0,808106	-0,242984	11,095	-0,075735	22,090000	48,455000
0,816128	-0,008099	11,496	-0,075636	22,090000	48,455000
0,824088	-0,093722	11,896	-0,075672	22,090000	48,455000
0,832146	-0,242984	12,297	-0,075735	22,090000	48,465000
0,840153	-0,195544	12,698	-0,075715	22,090000	48,465000
0,848136	-0,258025	13,100	-0,075741	22,090000	48,465000
0,856113	0,070581	13,500	-0,075603	22,090000	48,465000
0,864123	-0,070581	13,902	-0,075662	22,090000	48,465000
0,872131	-0,085623	14,303	-0,075668	22,080000	48,480000
0,880122	-0,141162	14,703	-0,075692	22,080000	48,480000
0,888161	-0,517208	15,104	-0,075851	22,080000	48,480000
0,896120	-0,156204	15,506	-0,075698	22,080000	48,480000
0,904136	-0,180502	15,906	-0,075708	22,080000	48,480000
0,912119	-0,077523	16,307	-0,075665	22,090000	48,480000
0,920117	-0,226785	16,708	-0,075728	22,090000	48,480000
0,928111	-0,188602	17,109	-0,075712	22,090000	48,480000
0,936119	-0,164303	17,510	-0,075702	22,090000	48,480000
0,944092	0,008099	17,910	-0,075629	22,090000	48,480000
0,952083	-0,359847	18,311	-0,075784	22,090000	48,505000
0,960102	0,031241	18,713	-0,075619	22,090000	48,505000
0,968126	-0,149261	19,116	-0,075695	22,090000	48,505000
0,976135	-0,008099	19,517	-0,075636	22,090000	48,505000
0,984118	-0,070581	19,918	-0,075662	22,090000	48,505000
0,992091	-0,133062	20,320	-0,075688	22,090000	48,505000
1,000118	-0,172403	20,723	-0,075705	22,090000	48,505000
1,008110	-0,039340	21,123	-0,075649	22,090000	48,505000
1,016098	-0,085623	21,523	-0,075668	22,090000	48,505000
1,024113	-0,258025	21,925	-0,075741	22,090000	48,505000
1,032147	-0,077523	22,326	-0,075665	22,090000	48,480000
1,040093	-0,093722	22,728	-0,075672	22,090000	48,480000
1,048133	0,047440	23,128	-0,075612	22,090000	48,480000
1,056141	-0,116864	23,530	-0,075682	22,090000	48,480000
1,064111	-0,172403	23,931	-0,075705	22,090000	48,480000
1,072136	-0,101822	24,331	-0,075675	22,080000	48,465000
1,080128	-0,226785	24,734	-0,075728	22,080000	48,465000
1,088172	-0,149261	25,136	-0,075695	22,080000	48,465000
1,096186	-0,109921	25,537	-0,075679	22,080000	48,465000
1,104126	0,008099	25,938	-0,075629	22,080000	48,465000
1,112138	0,047440	26,338	-0,075612	22,080000	48,465000
1,120122	-0,093722	26,738	-0,075672	22,080000	48,465000
1,128130	-0,180502	27,140	-0,075708	22,080000	48,465000
1,136090	-0,258025	27,540	-0,075741	22,080000	48,465000
1,144119	0,109921	27,940	-0,075586	22,080000	48,465000
1,152141	-0,046283	28,343	-0,075652	22,090000	48,490000
1,160120	-0,101822	28,743	-0,075675	22,090000	48,490000
1,168100	-0,023141	29,144	-0,075642	22,090000	48,490000
1,176162	0,101822	29,545	-0,075589	22,090000	48,490000
1,184095	-0,109921	29,947	-0,075679	22,090000	48,490000
1,192142	-0,180502	30,347	-0,075708	22,090000	48,505000
1,200077	-0,164303	30,748	-0,075702	22,090000	48,505000
1,208078	-0,093722	31,148	-0,075672	22,090000	48,505000
1,216144	-0,226785	31,550	-0,075728	22,090000	48,505000
1,224097	-0,321664	31,950	-0,075768	22,090000	48,505000
1,232091	-0,054382	32,350	-0,075655	22,090000	48,505000
1,240079	-0,188602	32,751	-0,075712	22,090000	48,505000
1,248099	-0,077523	33,151	-0,075665	22,090000	48,505000
1,256125	-0,031241	33,552	-0,075646	22,090000	48,505000
1,264097	-0,031241	33,953	-0,075646	22,090000	48,505000
1,272137	-0,211743	34,353	-0,075722	22,090000	48,490000
1,280136	-0,180502	34,753	-0,075708	22,090000	48,490000
1,288093	-0,070581	35,155	-0,075662	22,090000	48,490000
1,296112	-0,133062	35,556	-0,075688	22,090000	48,490000
1,304091	0,290423	35,956	-0,075510	22,090000	48,490000
1,312118	-0,008099	36,358	-0,075636	22,080000	48,465000
1,320067	-0,359847	36,759	-0,075784	22,080000	48,465000
1,328153	-0,008099	37,160	-0,075636	22,080000	48,465000
1,336115	0,008099	37,562	-0,075629	22,080000	48,465000
1,344096	-0,321664	37,964	-0,075768	22,080000	48,465000
1,352105	-0,109921	38,367	-0,075679	22,090000	48,490000
1,360103	-0,062481	38,767	-0,075659	22,090000	48,490000
1,368074	-0,116864	39,168	-0,075682	22,090000	48,490000
1,376098	0,008099	39,569	-0,075629	22,090000	48,490000
1,384137	-0,156204	39,970	-0,075698	22,090000	48,490000
1,392104	-0,085623	40,371	-0,075668	22,090000	48,480000
1,400107	-0,469768	40,772	-0,075831	22,090000	48,480000
1,408132	-0,093722	41,174	-0,075672	22,090000	48,480000
1,416095	0,031241	41,575	-0,075619	22,090000	48,480000
1,424188	-0,180502	41,976	-0,075708	22,090000	48,480000
1,432107	-0,164303	42,378	-0,075702	22,080000	48,455000
1,440145	-0,093722	42,778	-0,075672	22,080000	48,455000
1,448102	-0,164303	43,178	-0,075702	22,080000	48,455000
1,456153	-0,195544	43,579	-0,075715	22,080000	48,455000
1,464158	-0,219842	43,980	-0,075725	22,080000	48,455000
1,472122	-0,211743	44,381	-0,075722	22,100000	48,455000
1,480114	-0,509108	44,781	-0,075847	22,100000	48,455000
1,488104	0,023141	45,181	-0,075623	22,100000	48,455000
1,496128	-0,085623	45,583	-0,075668	22,100000	48,455000
1,504087	-0,438527	45,983	-0,075817	22,100000	48,455000
1,512158	-0,141162	46,384	-0,075692	22,090000	48,480000
1,520099	-0,289266	46,785	-0,075754	22,090000	48,480000
1,528085	-0,085623	47,188	-0,075668	22,090000	48,480000
1,536087	-0,258025	47,588	-0,075741	22,090000	48,480000
1,544126	-0,627129	47,988	-0,075897	22,090000	48,480000
1,552093	-0,226785	48,390	-0,075728	22,080000	48,465000
1,560148	-0,008099	48,790	-0,075636	22,080000	48,465000
1,568135	-0,046283	49,190	-0,075652	22,080000	48,465000
1,576072	-0,156204	49,592	-0,075698	22,080000	48,465000
1,584129	0,047440	49,992	-0,075612	22,080000	48,465000
1,592066	-0,195544	50,392	-0,075715	22,080000	48,465000
1,600129	-0,242984	50,792	-0,075735	22,080000	48,465000
1,608100	0,055539	51,193	-0,075609	22,080000	48,465000
1,616100	-0,211743	51,594	-0,075722	22,080000	48,465000
1,624145	-0,172403	51,994	-0,075705	22,080000	48,465000
1,632072	-0,070581	52,394	-0,075662	22,080000	48,480000
1,640079	-0,101822	52,796	-0,075675	22,080000	48,480000
1,648084	-0,070581	53,197	-0,075662	22,080000	48,480000
1,656069	-0,133062	53,597	-0,075688	22,080000	48,480000
1,664103	-0,446627	53,997	-0,075821	22,080000	48,480000
1,672077	-0,164303	54,399	-0,075702	22,080000	48,480000
1,680108	-0,203643	54,799	-0,075718	22,080000	48,480000
1,688050	-0,234884	55,201	-0,075731	22,080000	48,480000
1,696096	-0,258025	55,602	-0,075741	22,080000	48,480000
1,704146	-0,008099	56,003	-0,075636	22,080000	48,480000
1,712089	-0,242984	56,405	-0,075735	22,090000	48,480000
1,720152	-0,249926	56,808	-0,075738	22,090000	48,480000
1,728097	0,195544	57,209	-0,075550	22,090000	48,480000
1,736112	-0,226785	57,611	-0,075728	22,090000	48,480000
1,744070	-0,101822	58,012	-0,075675	22,090000	48,480000
1,752081	0,016199	58,413	-0,075625	22,080000	48,480000
1,760055	-0,133062	58,814	-0,075688	22,080000	48,480000
1,768074	-0,156204	59,215	-0,075698	22,080000	48,480000
1,776100	-0,226785	59,616	-0,075728	22,080000	48,480000
1,784095	-0,149261	60,019	-0,075695	22,080000	48,480000
1,792150	-0,211743	60,423	-0,075722	22,080000	48,480000
1,800092	-0,172403	60,825	-0,075705	22,080000	48,480000
1,808055	-0,313564	61,227	-0,075765	22,080000	48,480000
1,816089	0,016199	61,629	-0,075625	22,080000	48,480000
1,824041	-0,016199	62,030	-0,075639	22,080000	48,480000
1,832098	-0,321664	62,431	-0,075768	22,090000	48,455000
1,840105	0,180502	62,831	-0,075556	22,090000	48,455000
1,848068	-0,188602	63,232	-0,075712	22,090000	48,455000
1,856096	-0,226785	63,634	-0,075728	22,090000	48,455000
1,864103	-0,124963	64,036	-0,075685	22,090000	48,455000
1,872053	-0,023141	64,437	-0,075642	22,090000	48,490000
1,880117	-0,149261	64,838	-0,075695	22,090000	48,490000
1,888044	-0,321664	65,238	-0,075768	22,090000	48,490000
1,896080	-0,070581	65,638	-0,075662	22,090000	48,490000
1,904125	-0,242984	66,038	-0,075735	22,090000	48,490000
1,912104	-0,077523	66,438	-0,075665	22,090000	48,465000
1,920099	-0,226785	66,839	-0,075728	22,090000	48,465000
1,928058	-0,116864	67,240	-0,075682	22,090000	48,465000
1,936045	-0,282324	67,640	-0,075751	22,090000	48,465000
1,944092	0,023141	68,041	-0,075623	22,090000	48,465000
1,952080	-0,352905	68,442	-0,075781	22,080000	48,480000
1,960042	-0,344805	68,843	-0,075778	22,080000	48,480000
1,968076	-0,249926	69,244	-0,075738	22,080000	48,480000
1,976058	-0,124963	69,645	-0,075685	22,080000	48,480000
1,984061	-0,149261	70,046	-0,075695	22,080000	48,480000
1,992020	-0,016199	70,447	-0,075639	22,080000	48,480000
2,000065	-0,305465	70,848	-0,075761	22,080000	48,480000
2,008023	-0,211743	71,250	-0,075722	22,080000	48,480000
2,016109	0,047440	71,652	-0,075612	22,080000	48,480000
2,024079	0,062481	72,053	-0,075606	22,080000	48,480000
2,032085	-0,650270	72,454	-0,075907	22,080000	48,455000
2,040064	-0,352905	72,855	-0,075781	22,080000	48,455000
2,048064	-0,164303	73,256	-0,075702	22,080000	48,455000
2,056086	-0,172403	73,656	-0,075705	22,080000	48,455000
2,064058	-0,039340	74,057	-0,075649	22,080000	48,455000
2,072097	-0,077523	74,458	-0,075665	22,080000	48,455000
2,080041	-0,109921	74,859	-0,075679	22,080000	48,455000
2,088064	-0,101822	75,260	-0,075675	22,080000	48,455000
2,096075	-0,164303	75,661	-0,075702	22,080000	48,455000
2,104073	-0,008099	76,064	-0,075636	22,080000	48,455000
2,112068	-0,242984	76,465	-0,075735	22,090000	48,465000
2,120088	-0,046283	76,868	-0,075652	22,090000	48,465000
2,128061	-0,226785	77,270	-0,075728	22,090000	48,465000
2,136086	-0,266125	77,670	-0,075745	22,090000	48,465000
2,144105	0,047440	78,070	-0,075612	22,090000	48,465000
2,152018	-0,077523	78,470	-0,075665	22,090000	48,490000
2,160061	-0,305465	78,870	-0,075761	22,090000	48,490000
2,168077	0,023141	79,272	-0,075623	22,090000	48,490000
2,176066	-0,313564	79,674	-0,075765	22,090000	48,490000
2,184066	-0,367947	80,075	-0,075788	22,090000	48,490000
2,192086	-0,149261	80,476	-0,075695	22,080000	48,480000
2,200058	0,062481	80,876	-0,075606	22,080000	48,480000
2,208044	-0,062481	81,302	-0,075659	22,080000	48,480000
2,216058	-0,023141	81,703	-0,075642	22,080000	48,480000
2,224016	-0,116864	82,103	-0,075682	22,080000	48,480000
2,232064	-0,289266	82,504	-0,075754	22,080000	48,480000
2,240076	-0,242984	82,905	-0,075735	22,080000	48,480000
2,248104	-0,133062	83,306	-0,075688	22,080000	48,480000
2,256102	-0,195544	83,706	-0,075715	22,080000	48,480000
2,264094	-0,328606	84,109	-0,075771	22,080000	48,480000
2,272078	-0,054382	84,511	-0,075655	22,080000	48,490000
2,280048	-0,249926	84,911	-0,075738	22,080000	48,490000
2,288042	-0,336706	85,311	-0,075774	22,080000	48,490000
2,296089	-0,164303	85,711	-0,075702	22,080000	48,490000
2,304094	-0,093722	86,112	-0,075672	22,080000	48,490000
2,312068	-0,054382	86,512	-0,075655	22,090000	48,480000
2,320059	-0,328606	86,913	-0,075771	22,090000	48,480000
2,328115	-0,172403	87,313	-0,075705	22,090000	48,480000
2,336077	-0,180502	87,715	-0,075708	22,090000	48,480000
2,344074	-0,116864	88,116	-0,075682	22,090000	48,480000
2,352044	-0,039340	88,517	-0,075649	22,080000	48,480000
2,360077	-0,274224	88,919	-0,075748	22,080000	48,480000
2,368043	0,093722	89,320	-0,075593	22,080000	48,480000
2,376074	-0,274224	89,720	-0,075748	22,080000	48,480000
2,384069	-0,219842	90,120	-0,075725	22,080000	48,480000
2,392048	-0,070581	90,520	-0,075662	22,100000	48,490000
2,400076	-0,195544	90,923	-0,075715	22,100000	48,490000
2,408104	-0,116864	91,323	-0,075682	22,100000	48,490000
2,416099	-0,211743	91,725	-0,075722	22,100000	48,490000
2,424049	-0,266125	92,126	-0,075745	22,100000	48,490000
2,432071	-0,172403	92,526	-0,075705	22,100000	48,490000
2,440067	-0,336706	92,927	-0,075774	22,100000	48,490000
2,448055	-0,219842	93,329	-0,075725	22,100000	48,490000
2,456087	-0,116864	93,729	-0,075682	22,100000	48,490000
2,464079	-0,188602	94,130	-0,075712	22,100000	48,490000
2,472026	-0,266125	94,530	-0,075745	22,090000	48,465000
2,480132	-0,282324	94,931	-0,075751	22,090000	48,465000
2,488033	-0,384145	95,333	-0,075794	22,090000	48,465000
2,496040	-0,180502	95,735	-0,075708	22,090000	48,465000
2,504064	-0,195544	96,136	-0,075715	22,090000	48,465000
2,512100	-0,282324	96,536	-0,075751	22,090000	48,490000
2,520063	-0,313564	96,937	-0,075765	22,090000	48,490000
2,528043	-0,149261	97,339	-0,075695	22,090000	48,490000
2,536030	-0,344805	97,741	-0,075778	22,090000	48,490000
2,544033	-0,274224	98,142	-0,075748	22,090000	48,490000
2,552057	-0,392245	98,543	-0,075798	22,090000	48,490000
2,560032	-0,266125	98,945	-0,075745	22,090000	48,490000
2,568073	-0,164303	99,346	-0,075702	22,090000	48,490000
2,576103	-0,149261	99,746	-0,075695	22,090000	48,490000
2,584083	-0,415386	100,148	-0,075808	22,090000	48,490000
2,592023	-0,195544	100,550	-0,075715	22,090000	48,455000
2,600069	-0,282324	100,951	-0,075751	22,090000	48,455000
2,608063	-0,211743	101,353	-0,075722	22,090000	48,455000
2,616096	-0,156204	101,754	-0,075698	22,090000	48,455000
2,624088	-0,289266	102,155	-0,075754	22,090000	48,455000
2,632075	-0,226785	102,556	-0,075728	22,090000	48,455000
2,640035	-0,172403	102,958	-0,075705	22,090000	48,455000
2,648048	-0,219842	103,359	-0,075725	22,090000	48,455000
2,656079	-0,289266	103,760	-0,075754	22,090000	48,455000
2,664072	-0,172403	104,161	-0,075705	22,090000	48,455000
2,672052	-0,242984	104,561	-0,075735	22,090000	48,455000
2,680074	-0,438527	104,965	-0,075817	22,090000	48,455000
2,688089	-0,282324	105,366	-0,075751	22,090000	48,455000
2,696026	-0,407287	105,767	-0,075804	22,090000	48,455000
2,704064	-0,321664	106,168	-0,075768	22,090000	48,455000
2,712094	-0,392245	106,568	-0,075798	22,080000	48,480000
2,720045	-0,376046	106,970	-0,075791	22,080000	48,480000
2,728012	-195,462918	107,371	-0,158118	22,080000	48,480000
2,736045	-206,131054	107,774	-0,162620	22,080000	48,480000
2,744057	-205,722610	108,174	-0,162447	22,080000	48,480000
2,752087	-203,387654	108,576	-0,161462	22,090000	48,480000
2,760051	-200,235810	108,977	-0,160132	22,090000	48,480000
2,768051	-196,881480	109,378	-0,158716	22,090000	48,480000
2,776075	-191,254675	109,778	-0,156342	22,090000	48,480000
2,784088	-189,177744	110,179	-0,155465	22,090000	48,480000
2,792083	-185,022725	110,581	-0,153712	22,100000	48,480000
2,800064	-179,223517	110,982	-0,151265	22,100000	48,480000
2,808004	-176,659462	111,382	-0,150183	22,100000	48,480000
2,816077	-170,914636	111,783	-0,147758	22,100000	48,480000
2,824007	-166,384729	112,183	-0,145847	22,100000	48,480000
2,832059	-162,621955	112,585	-0,144259	22,090000	48,480000
2,839991	-157,566739	112,985	-0,142125	22,090000	48,480000
2,848050	-154,706476	113,387	-0,140918	22,090000	48,480000
2,856070	-149,924328	113,788	-0,138900	22,090000	48,480000
2,864055	-144,555548	114,189	-0,136635	22,090000	48,480000
2,872061	-140,699052	114,591	-0,135007	22,080000	48,480000
2,880005	-135,064148	114,992	-0,132629	22,080000	48,480000
2,888041	-130,360680	115,394	-0,130645	22,080000	48,480000
2,896007	-127,006350	115,794	-0,129229	22,080000	48,480000
2,904069	-122,452144	116,194	-0,127307	22,080000	48,480000
2,912045	-117,797273	116,595	-0,125343	22,090000	48,455000
2,920016	-113,368030	116,995	-0,123474	22,090000	48,455000
2,928068	-108,884405	117,396	-0,121582	22,090000	48,455000
2,936039	-104,283916	117,797	-0,119640	22,090000	48,455000
2,944060	-99,384904	118,197	-0,117573	22,090000	48,455000
2,952058	-94,603914	118,598	-0,115555	22,090000	48,455000
2,960031	-88,693628	118,998	-0,113061	22,090000	48,455000
2,968095	-85,089372	119,398	-0,111540	22,090000	48,455000
2,976037	-80,652029	119,799	-0,109667	22,090000	48,455000
2,984062	-76,138320	120,199	-0,107763	22,090000	48,455000
2,992050	-69,718926	120,599	-0,105054	22,100000	48,480000
3,000067	-64,772475	121,000	-0,102966	22,100000	48,480000
3,008030	-61,864772	121,400	-0,101739	22,100000	48,480000
3,016026	-55,492817	121,801	-0,099050	22,100000	48,480000
3,024005	-52,240308	122,201	-0,097678	22,100000	48,480000
3,032056	-46,957152	122,603	-0,095448	22,090000	48,480000
3,040002	-42,419144	123,003	-0,093533	22,090000	48,480000
3,048070	-36,438278	123,404	-0,091009	22,090000	48,480000
3,056055	-32,974026	123,805	-0,089547	22,090000	48,480000
3,064032	-28,286758	124,206	-0,087569	22,090000	48,480000
3,072026	-21,821081	124,609	-0,084841	22,090000	48,465000
3,080049	-17,651020	125,010	-0,083081	22,090000	48,465000
3,088057	-12,172319	125,411	-0,080769	22,090000	48,465000
3,095995	-7,516291	125,813	-0,078804	22,090000	48,465000
3,104014	-2,265532	126,213	-0,076588	22,090000	48,465000
3,112010	2,454134	126,614	-0,074597	22,090000	48,465000
3,119998	7,210826	127,014	-0,072589	22,090000	48,465000
3,128042	10,745659	127,414	-0,071098	22,090000	48,465000
3,136042	16,992650	127,815	-0,068461	22,090000	48,465000
3,144033	21,970342	128,217	-0,066361	22,090000	48,465000
3,152042	26,226026	128,617	-0,064565	22,080000	48,480000
3,160011	30,952634	129,021	-0,062570	22,080000	48,480000
3,168076	36,094629	129,421	-0,060400	22,080000	48,480000
3,175977	40,914960	129,822	-0,058366	22,080000	48,480000
3,183997	45,185686	130,223	-0,056564	22,080000	48,480000
3,191965	51,370196	130,624	-0,053954	22,080000	48,480000
3,200012	56,418469	131,025	-0,051824	22,080000	48,480000
3,208050	60,140745	131,425	-0,050253	22,080000	48,480000
3,215951	66,379638	131,825	-0,047620	22,080000	48,480000
3,224018	71,544774	132,226	-0,045440	22,090000	48,480000
3,231931	76,013357	132,627	-0,043555	22,090000	48,480000
3,240011	79,743733	133,029	-0,041980	22,090000	48,480000
3,247992	86,108746	133,430	-0,039294	22,090000	48,480000
3,255955	89,706059	133,831	-0,037776	22,090000	48,480000
3,263966	94,651353	134,232	-0,035689	22,090000	48,480000
3,272000	101,039507	134,632	-0,032994	22,090000	48,480000
3,279929	106,181502	135,033	-0,030824	22,090000	48,480000
3,287960	111,041173	135,434	-0,028773	22,090000	48,480000
3,295958	114,607246	135,835	-0,027268	22,090000	48,480000
3,304045	119,866104	136,238	-0,025049	22,080000	48,465000
3,311956	126,324839	136,639	-0,022323	22,080000	48,465000
3,319941	129,890912	137,040	-0,020818	22,080000	48,465000
3,327960	135,417052	137,441	-0,018486	22,080000	48,465000
3,335975	140,652770	137,842	-0,016277	22,080000	48,465000
3,344003	145,699885	138,243	-0,014147	22,080000	48,465000
3,351964	149,830606	138,645	-0,012404	22,080000	48,465000
3,360010	155,905195	139,045	-0,009840	22,080000	48,465000
3,367983	160,717426	139,445	-0,007810	22,080000	48,465000
3,375913	165,647678	139,846	-0,005729	22,080000	48,465000
3,383959	171,275641	140,246	-0,003354	22,090000	48,480000
3,391975	176,926744	140,646	-0,000969	22,090000	48,480000
3,400002	181,362930	141,047	0,000903	22,090000	48,480000
3,407965	186,073339	141,447	0,002891	22,090000	48,480000
3,415989	192,156028	141,848	0,005458	22,090000	48,480000
3,423916	195,761441	142,251	0,006979	22,100000	48,490000
3,432002	202,376379	142,653	0,009771	22,100000	48,490000
3,439976	206,961826	143,053	0,011706	22,100000	48,490000
3,447959	212,949635	143,455	0,014232	22,100000	48,490000
3,455967	217,260858	143,855	0,016052	22,100000	48,490000
3,463930	221,885645	144,256	0,018003	22,090000	48,480000
3,471990	226,807798	144,656	0,020081	22,090000	48,480000
3,479959	232,529482	145,056	0,022495	22,090000	48,480000
3,487946	237,976942	145,457	0,024794	22,090000	48,480000
3,496011	241,974600	145,859	0,026481	22,090000	48,480000
3,503999	247,170977	146,260	0,028674	22,080000	48,490000
3,511951	252,421736	146,660	0,030890	22,080000	48,490000
3,519962	257,414470	147,060	0,032997	22,080000	48,490000
3,527895	264,099989	147,461	0,035818	22,080000	48,490000
3,535938	269,054539	147,861	0,037909	22,080000	48,490000
3,543955	273,850572	148,261	0,039933	22,090000	48,505000
3,551933	278,053031	148,662	0,041706	22,090000	48,505000
3,559919	284,362504	149,064	0,044369	22,090000	48,505000
3,567913	288,931752	149,464	0,046297	22,090000	48,505000
3,575904	294,653436	149,865	0,048711	22,090000	48,505000
3,583908	299,943535	150,266	0,050944	22,090000	48,480000
3,591920	303,635728	150,668	0,052502	22,090000	48,480000
3,599991	309,278732	151,068	0,054883	22,090000	48,480000
3,607923	314,655611	151,469	0,057152	22,090000	48,480000
3,607915	314,670653	151,870	0,057159	22,090000	48,480000
3,607909	314,107163	152,271	0,056921	22,090000	48,480000
3,607899	313,832938	152,672	0,056805	22,090000	48,480000
3,607957	313,315731	153,075	0,056587	22,090000	48,480000
3,607961	312,923486	153,477	0,056421	22,090000	48,480000
3,607896	312,970925	153,878	0,056441	22,090000	48,480000
3,607888	312,805465	154,279	0,056372	22,090000	48,480000
3,607877	312,516199	154,680	0,056250	22,090000	48,480000
3,607884	312,210734	155,081	0,056121	22,090000	48,480000
3,607854	312,084614	155,482	0,056067	22,090000	48,480000
3,607934	311,677327	155,882	0,055896	22,090000	48,480000
3,607899	311,685427	156,282	0,055899	22,090000	48,465000
3,607924	311,293182	156,683	0,055733	22,090000	48,465000
3,607937	311,160119	157,084	0,055677	22,090000	48,465000
3,607881	311,120779	157,484	0,055661	22,090000	48,465000
3,607914	310,995816	157,884	0,055608	22,090000	48,465000
3,607918	310,792173	158,284	0,055522	22,090000	48,480000
3,607919	310,713492	158,685	0,055489	22,090000	48,480000
3,607846	310,509849	159,085	0,055403	22,090000	48,480000
3,607904	310,408027	159,486	0,055360	22,090000	48,480000
3,607884	310,619770	159,887	0,055449	22,090000	48,480000
3,607886	310,298106	160,290	0,055313	22,090000	48,440000
3,607922	310,290007	160,692	0,055310	22,090000	48,440000
3,607911	310,078264	161,093	0,055221	22,090000	48,440000
3,607895	309,905861	161,493	0,055148	22,090000	48,440000
3,599894	305,374796	161,893	0,053236	22,090000	48,440000
3,591898	298,306289	162,294	0,050253	22,080000	48,490000
3,583910	292,647086	162,694	0,047865	22,080000	48,490000
3,575875	288,531407	163,096	0,046128	22,080000	48,490000
3,567900	281,241901	163,498	0,043052	22,080000	48,490000
3,559866	275,912461	163,899	0,040803	22,080000	48,490000
3,551905	271,625537	164,300	0,038994	22,090000	48,465000
3,543958	265,754591	164,700	0,036516	22,090000	48,465000
3,535955	260,581356	165,101	0,034333	22,090000	48,465000
3,527923	255,133896	165,503	0,032034	22,090000	48,465000
3,519954	249,412211	165,904	0,029620	22,090000	48,465000
3,511952	244,223934	166,305	0,027430	22,100000	48,505000
3,503956	238,822756	166,707	0,025151	22,100000	48,505000
3,495939	233,258433	167,108	0,022803	22,100000	48,505000
3,487890	227,802873	167,508	0,020500	22,100000	48,505000
3,479983	222,559057	167,908	0,018288	22,100000	48,505000
3,471921	217,080356	168,308	0,015976	22,090000	48,480000
3,463904	210,135654	168,708	0,013045	22,090000	48,480000
3,455891	206,554539	169,109	0,011534	22,090000	48,480000
3,447918	200,816656	169,510	0,009112	22,090000	48,480000
3,439945	193,840714	169,911	0,006168	22,090000	48,480000
3,431939	188,934760	170,312	0,004098	22,090000	48,480000
3,423917	184,929003	170,713	0,002408	22,090000	48,480000
3,415956	178,204143	171,113	-0,000430	22,090000	48,480000
3,407972	172,835364	171,514	-0,002696	22,090000	48,480000
3,399971	167,341621	171,916	-0,005014	22,090000	48,480000
3,391931	163,555706	172,316	-0,006612	22,090000	48,480000
3,383944	158,115188	172,717	-0,008908	22,090000	48,480000
3,375904	152,362263	173,119	-0,011335	22,090000	48,480000
3,367968	147,307048	173,520	-0,013469	22,090000	48,480000
3,359944	142,322414	173,922	-0,015572	22,090000	48,480000
3,351988	137,157277	174,323	-0,017752	22,090000	48,465000
3,343959	130,173236	174,725	-0,020699	22,090000	48,465000
3,335963	126,214918	175,125	-0,022370	22,090000	48,465000
3,327988	121,418885	175,526	-0,024394	22,090000	48,465000
3,320004	114,246242	175,928	-0,027420	22,090000	48,465000
3,312009	109,191027	176,330	-0,029554	22,090000	48,455000
3,303951	105,272049	176,732	-0,031208	22,090000	48,455000
3,295990	99,519124	177,134	-0,033635	22,090000	48,455000
3,287983	95,035499	177,536	-0,035527	22,090000	48,455000
3,279978	88,992150	177,938	-0,038078	22,090000	48,455000
3,272018	83,882553	178,338	-0,040234	22,090000	48,465000
3,263970	78,763700	178,738	-0,042394	22,090000	48,465000
3,255985	73,646003	179,140	-0,044554	22,090000	48,465000
3,247977	68,237883	179,542	-0,046836	22,090000	48,465000
3,240022	61,395003	179,942	-0,049724	22,090000	48,465000
3,232034	57,758349	180,344	-0,051258	22,090000	48,465000
3,223947	52,263450	180,744	-0,053577	22,090000	48,465000
3,215963	47,106413	181,144	-0,055753	22,090000	48,465000
3,208047	41,893837	181,544	-0,057953	22,090000	48,465000
3,200019	36,728701	181,945	-0,060133	22,090000	48,465000
3,192015	29,854580	182,345	-0,063034	22,100000	48,490000
3,183980	24,321497	182,746	-0,065369	22,100000	48,490000
3,175999	19,383146	183,147	-0,067453	22,100000	48,490000
3,167941	15,488466	183,547	-0,069096	22,100000	48,490000
3,160034	10,165969	183,949	-0,071342	22,100000	48,490000
3,151998	4,859671	184,350	-0,073582	22,100000	48,490000
3,144002	-0,799532	184,752	-0,075970	22,100000	48,490000
3,135984	-6,176411	185,152	-0,078239	22,100000	48,490000
3,128041	-11,489651	185,553	-0,080481	22,100000	48,490000
3,120040	-16,342380	185,954	-0,082529	22,100000	48,490000
3,112036	-22,134645	186,356	-0,084973	22,090000	48,455000
3,104031	-26,687694	186,756	-0,086895	22,090000	48,455000
3,096007	-33,765458	187,157	-0,089881	22,090000	48,455000
3,088042	-37,183427	187,558	-0,091324	22,090000	48,455000
3,080015	-42,755850	187,960	-0,093675	22,090000	48,455000
3,071982	-49,543191	188,360	-0,096540	22,090000	48,480000
3,064014	-53,297865	188,760	-0,098124	22,090000	48,480000
3,055999	-58,714085	189,160	-0,100410	22,090000	48,480000
3,048079	-65,345222	189,562	-0,103208	22,090000	48,480000
3,040011	-69,592806	189,962	-0,105000	22,090000	48,480000
3,031997	-76,184603	190,362	-0,107782	22,090000	48,480000
3,024009	-81,326598	190,763	-0,109952	22,090000	48,480000
3,016031	-86,547273	191,163	-0,112155	22,090000	48,480000
3,008059	-90,528732	191,563	-0,113835	22,090000	48,480000
2,999995	-96,258516	191,963	-0,116253	22,090000	48,480000
2,991981	-100,952727	192,364	-0,118234	22,080000	48,480000
2,983971	-107,395263	192,765	-0,120953	22,080000	48,480000
2,976021	-111,604663	193,166	-0,122729	22,080000	48,480000
2,968068	-116,182011	193,567	-0,124661	22,080000	48,480000
2,960018	-121,488309	193,967	-0,126900	22,080000	48,480000
2,952013	-126,810806	194,367	-0,129146	22,080000	48,490000
2,944043	-132,117104	194,768	-0,131386	22,080000	48,490000
2,936014	-137,062398	195,169	-0,133473	22,080000	48,490000
2,928050	-142,227534	195,570	-0,135652	22,080000	48,490000
2,920074	-148,929252	195,970	-0,138480	22,080000	48,490000
2,912045	-153,066915	196,370	-0,140227	22,080000	48,490000
2,904039	-158,350072	196,771	-0,142456	22,080000	48,490000
2,896068	-163,641328	197,171	-0,144689	22,080000	48,490000
2,888046	-170,530491	197,572	-0,147596	22,080000	48,490000
2,880045	-174,277066	197,972	-0,149177	22,080000	48,490000
2,872036	-181,128045	198,373	-0,152068	22,100000	48,490000
2,864019	-185,156944	198,774	-0,153769	22,100000	48,490000
2,856070	-191,865605	199,174	-0,156600	22,100000	48,490000
2,847984	-196,999500	199,575	-0,158766	22,100000	48,490000
2,840045	-200,667395	199,975	-0,160314	22,100000	48,490000
2,832050	-205,863772	200,376	-0,162507	22,080000	48,455000
2,824083	-210,324256	200,776	-0,164389	22,080000	48,455000
2,816069	-217,746825	201,178	-0,167521	22,080000	48,455000
2,808057	-222,159869	201,578	-0,169384	22,080000	48,455000
2,800036	-228,774807	201,980	-0,172175	22,080000	48,455000
2,792088	-232,984208	202,381	-0,173952	22,080000	48,455000
2,784027	-237,875120	202,781	-0,176016	22,080000	48,455000
2,776019	-243,886071	203,181	-0,178552	22,080000	48,455000
2,768071	-249,960660	203,582	-0,181116	22,080000	48,455000
2,760094	-253,832198	203,982	-0,182750	22,080000	48,455000
2,752028	-258,786748	204,384	-0,184840	22,080000	48,490000
2,744023	-265,119363	204,787	-0,187513	22,080000	48,490000
2,736047	-268,756017	205,189	-0,189047	22,080000	48,490000
2,728087	-273,960493	205,591	-0,191244	22,080000	48,490000
2,720095	-280,246825	205,992	-0,193896	22,080000	48,490000
2,712081	-285,262700	206,393	-0,196013	22,090000	48,480000
2,704060	-289,856246	206,795	-0,197952	22,090000	48,480000
2,696067	-294,519217	207,196	-0,199919	22,090000	48,480000
2,688037	-299,669311	207,597	-0,202093	22,090000	48,480000
2,680068	-304,246658	207,998	-0,204024	22,090000	48,480000
2,672102	-309,395596	208,400	-0,206197	22,090000	48,480000
2,664057	-314,663711	208,800	-0,208420	22,090000	48,480000
2,656092	-319,867030	209,200	-0,210616	22,090000	48,480000
2,648078	-324,836622	209,602	-0,212713	22,090000	48,480000
2,640032	-329,727534	210,003	-0,214777	22,090000	48,480000
2,632080	-336,319331	210,404	-0,217559	22,090000	48,455000
2,624065	-341,179003	210,804	-0,219610	22,090000	48,455000
2,616087	-344,713835	211,204	-0,221102	22,090000	48,455000
2,608046	-349,996992	211,606	-0,223331	22,090000	48,455000
2,600087	-356,744992	212,008	-0,226179	22,090000	48,455000
2,592023	-360,765792	212,409	-0,227875	22,090000	48,490000
2,584092	-366,754758	212,810	-0,230403	22,090000	48,490000
2,576093	-370,547616	213,210	-0,232003	22,090000	48,490000
2,568094	-376,528482	213,611	-0,234527	22,090000	48,490000
2,560065	-381,741058	214,013	-0,236727	22,090000	48,490000
2,552095	-386,169144	214,413	-0,238596	22,090000	48,490000
2,544113	-392,204393	214,813	-0,241143	22,090000	48,490000
2,536096	-396,750500	215,214	-0,243061	22,090000	48,490000
2,528059	-402,166719	215,615	-0,245347	22,090000	48,490000
2,520073	-407,496159	216,018	-0,247596	22,090000	48,490000
2,512096	-412,191527	216,419	-0,249577	22,090000	48,465000
2,504078	-416,800115	216,819	-0,251522	22,090000	48,465000
2,496131	-422,669903	217,219	-0,253999	22,090000	48,465000
2,488046	-427,647595	217,620	-0,256100	22,090000	48,465000
2,480104	-430,978784	218,020	-0,257505	22,090000	48,465000
2,472079	-436,754850	218,422	-0,259943	22,080000	48,480000
2,464037	-441,496501	218,824	-0,261944	22,080000	48,480000
2,456072	-445,847064	219,226	-0,263780	22,080000	48,480000
2,448086	-450,918478	219,626	-0,265920	22,080000	48,480000
2,440102	-455,691369	220,026	-0,267934	22,080000	48,480000
2,432066	-459,869529	220,428	-0,269697	22,100000	48,465000
2,424119	-465,254508	220,829	-0,271970	22,100000	48,465000
2,416034	-470,458984	221,230	-0,274166	22,100000	48,465000
2,408078	-474,417302	221,631	-0,275836	22,100000	48,465000
2,400076	-478,704227	222,031	-0,277646	22,100000	48,465000
2,392088	-483,736300	222,432	-0,279769	22,090000	48,455000
2,384101	-488,517291	222,833	-0,281787	22,090000	48,455000
2,376052	-493,071497	223,235	-0,283708	22,090000	48,455000
2,368076	-498,533999	223,636	-0,286014	22,090000	48,455000
2,360024	-504,349406	224,037	-0,288468	22,090000	48,455000
2,352116	-508,990392	224,438	-0,290426	22,090000	48,455000
2,344097	-514,006267	224,838	-0,292543	22,090000	48,455000
2,336063	-516,812148	225,238	-0,293727	22,090000	48,455000
2,328090	-520,566823	225,638	-0,295312	22,090000	48,455000
2,320086	-525,606996	226,040	-0,297438	22,090000	48,455000
2,312099	-530,662211	226,443	-0,299572	22,090000	48,455000
2,304092	-535,756767	226,843	-0,301722	22,090000	48,455000
2,296055	-540,467176	227,243	-0,303709	22,090000	48,455000
2,288059	-544,801540	227,644	-0,305539	22,090000	48,455000
2,280038	-549,653112	228,044	-0,307586	22,090000	48,455000
2,272073	-554,575265	228,444	-0,309663	22,090000	48,455000
2,264072	-558,800865	228,846	-0,311446	22,090000	48,455000
2,256081	-563,785499	229,247	-0,313550	22,090000	48,455000
2,248091	-568,267967	229,648	-0,315441	22,090000	48,455000
2,240064	-572,815231	230,048	-0,317360	22,090000	48,455000
2,232048	-577,258359	230,449	-0,319235	22,080000	48,465000
2,224032	-582,008109	230,852	-0,321240	22,080000	48,465000
2,216079	-586,045107	231,252	-0,322943	22,080000	48,465000
2,208060	-591,062139	231,653	-0,325061	22,080000	48,465000
2,200062	-595,976192	232,056	-0,327134	22,080000	48,465000
2,192045	-600,929586	232,457	-0,329225	22,090000	48,465000
2,184055	-607,575765	232,857	-0,332029	22,090000	48,465000
2,176084	-612,537257	233,259	-0,334123	22,090000	48,465000
2,168039	-615,876546	233,661	-0,335532	22,090000	48,465000
2,160101	-620,399511	234,062	-0,337441	22,090000	48,465000
2,152059	-624,757016	234,462	-0,339280	22,080000	48,480000
2,144091	-629,451227	234,862	-0,341261	22,080000	48,480000
2,136110	-633,880471	235,264	-0,343130	22,080000	48,480000
2,128058	-638,104913	235,664	-0,344913	22,080000	48,480000
2,120110	-642,815323	236,064	-0,346900	22,080000	48,480000
2,112101	-648,694368	236,467	-0,349381	22,090000	48,480000
2,104063	-651,868196	236,868	-0,350721	22,090000	48,480000
2,096076	-656,735967	237,268	-0,352775	22,090000	48,480000
2,088086	-661,273974	237,668	-0,354690	22,090000	48,480000
2,080061	-665,843222	238,068	-0,356618	22,090000	48,480000
2,072100	-669,998241	238,469	-0,358372	22,090000	48,480000
2,064085	-676,330856	238,872	-0,361044	22,090000	48,480000
2,056111	-680,735801	239,272	-0,362903	22,090000	48,480000
2,048077	-685,038924	239,672	-0,364719	22,090000	48,480000
2,040096	-689,333947	240,074	-0,366531	22,090000	48,480000
2,032039	-693,753934	240,476	-0,368396	22,090000	48,480000
2,024093	-698,073256	240,876	-0,370219	22,090000	48,480000
2,016075	-701,898512	241,276	-0,371833	22,090000	48,480000
2,008110	-705,009858	241,676	-0,373146	22,090000	48,480000
2,000082	-709,422902	242,077	-0,375009	22,090000	48,480000
1,992105	-712,621029	242,477	-0,376358	22,090000	48,480000
1,984033	-716,994733	242,877	-0,378204	22,090000	48,480000
1,976108	-721,156694	243,277	-0,379960	22,090000	48,480000
1,968076	-725,113855	243,677	-0,381630	22,090000	48,480000
1,960089	-728,994650	244,077	-0,383268	22,090000	48,480000
1,952080	-733,352155	244,478	-0,385107	22,090000	48,480000
1,944072	-736,517884	244,879	-0,386443	22,090000	48,480000
1,936054	-740,930928	245,279	-0,388305	22,090000	48,480000
1,928123	-744,670561	245,679	-0,389883	22,090000	48,480000
1,920123	-748,635821	246,081	-0,391557	22,090000	48,480000
1,912064	-752,398595	246,484	-0,393145	22,100000	48,490000
1,904147	-757,061565	246,884	-0,395112	22,100000	48,490000
1,896121	-760,423995	247,287	-0,396531	22,100000	48,490000
1,888088	-765,754591	247,689	-0,398781	22,100000	48,490000
1,880093	-769,179502	248,090	-0,400226	22,100000	48,490000
1,872087	-773,952394	248,491	-0,402240	22,100000	48,490000
1,864078	-777,416645	248,892	-0,403702	22,100000	48,490000
1,856089	-781,626046	249,294	-0,405479	22,100000	48,490000
1,848074	-785,403862	249,695	-0,407073	22,100000	48,490000
1,840075	-788,641328	250,096	-0,408439	22,100000	48,490000
1,832125	-792,294181	250,496	-0,409980	22,090000	48,455000
1,824115	-796,448043	250,896	-0,411733	22,090000	48,455000
1,816119	-799,779232	251,297	-0,413139	22,090000	48,455000
1,808155	-803,658870	251,698	-0,414776	22,090000	48,455000
1,800172	-806,927577	252,099	-0,416156	22,090000	48,455000
1,792150	-812,562481	252,501	-0,418534	22,080000	48,480000
1,784106	-816,458318	252,902	-0,420178	22,080000	48,480000
1,776096	-820,659619	253,302	-0,421951	22,080000	48,480000
1,768123	-824,265033	253,702	-0,423472	22,080000	48,480000
1,760119	-828,520716	254,102	-0,425268	22,080000	48,480000
1,752085	-831,131054	254,502	-0,426370	22,080000	48,490000
1,744113	-834,336123	254,904	-0,427722	22,080000	48,490000
1,736086	-838,130137	255,305	-0,429323	22,080000	48,490000
1,728111	-842,480700	255,707	-0,431159	22,080000	48,490000
1,720081	-846,445960	256,110	-0,432833	22,080000	48,490000
1,712146	-849,102581	256,512	-0,433954	22,090000	48,480000
1,704063	-852,489309	256,913	-0,435383	22,090000	48,480000
1,696110	-856,227784	257,314	-0,436960	22,090000	48,480000
1,688087	-861,220518	257,715	-0,439067	22,090000	48,480000
1,680074	-864,489225	258,115	-0,440447	22,090000	48,480000
1,672091	-867,592473	258,516	-0,441756	22,100000	48,505000
1,664097	-870,061648	258,918	-0,442798	22,100000	48,505000
1,656082	-872,405861	259,319	-0,443788	22,100000	48,505000
1,648140	-873,166053	259,719	-0,444108	22,100000	48,505000
1,640088	-874,271049	260,122	-0,444575	22,100000	48,505000
1,632106	-877,947043	260,524	-0,446126	22,090000	48,465000
1,624119	-879,914053	260,925	-0,446956	22,090000	48,465000
1,616108	-882,979117	261,325	-0,448250	22,090000	48,465000
1,608141	-886,395929	261,726	-0,449691	22,090000	48,465000
1,600115	-889,782657	262,128	-0,451121	22,090000	48,465000
1,592114	-891,953310	262,528	-0,452037	22,090000	48,465000
1,584113	-894,351905	262,928	-0,453049	22,090000	48,465000
1,576106	-896,742400	263,328	-0,454058	22,090000	48,465000
1,568146	-900,096731	263,728	-0,455473	22,090000	48,465000
1,560113	-903,350396	264,128	-0,456846	22,090000	48,465000
1,552105	-905,716593	264,529	-0,457845	22,090000	48,490000
1,544167	-906,908370	264,930	-0,458348	22,090000	48,490000
1,536125	-909,698052	265,331	-0,459525	22,090000	48,490000
1,528096	-913,029241	265,732	-0,460931	22,090000	48,490000
1,520124	-914,683844	266,133	-0,461629	22,090000	48,490000
1,512143	-917,058140	266,534	-0,462631	22,090000	48,490000
1,504162	-918,908286	266,934	-0,463412	22,090000	48,490000
1,496116	-922,058973	267,334	-0,464741	22,090000	48,490000
1,488124	-924,152103	267,734	-0,465625	22,090000	48,490000
1,480127	-926,534499	268,135	-0,466630	22,090000	48,490000
1,472150	-926,934843	268,535	-0,466799	22,090000	48,490000
1,464144	-928,658870	268,935	-0,467526	22,090000	48,490000
1,456122	-926,683760	269,335	-0,466693	22,090000	48,490000
1,448109	-926,518300	269,736	-0,466623	22,090000	48,490000
1,440120	-925,249000	270,137	-0,466087	22,090000	48,490000
1,432148	-922,074015	270,539	-0,464748	22,080000	48,455000
1,424159	-919,041349	270,939	-0,463468	22,080000	48,455000
1,416130	-917,944452	271,339	-0,463005	22,080000	48,455000
1,408132	-917,952551	271,739	-0,463008	22,080000	48,455000
1,400167	-918,335539	272,140	-0,463170	22,080000	48,455000
1,392145	-918,719685	272,541	-0,463332	22,080000	48,455000
1,384132	-916,353488	272,942	-0,462333	22,080000	48,455000
1,376146	-914,472101	273,343	-0,461540	22,080000	48,455000
1,368096	-914,221018	273,744	-0,461434	22,080000	48,455000
1,360141	-912,951718	274,144	-0,460898	22,080000	48,455000
1,352122	-911,250833	274,546	-0,460180	22,090000	48,455000
1,344094	-909,330106	274,946	-0,459370	22,090000	48,455000
1,336123	-905,058223	275,347	-0,457567	22,090000	48,455000
1,328140	-896,711160	275,749	-0,454044	22,090000	48,455000
1,320118	-885,126629	276,150	-0,449156	22,090000	48,455000
1,312099	-866,628638	276,551	-0,441350	22,090000	48,455000
1,304116	-849,698469	276,952	-0,434205	22,090000	48,455000
1,296161	-814,404528	277,353	-0,419311	22,090000	48,455000
1,288122	-1,645346	277,753	-0,076327	22,090000	48,455000
1,280183	-1,300541	278,153	-0,076181	22,090000	48,455000
1,272071	-0,924495	278,554	-0,076022	22,090000	48,440000
1,264140	-0,909453	278,956	-0,076016	22,090000	48,440000
1,256106	-0,885154	279,357	-0,076006	22,090000	48,440000
1,248106	-0,870113	279,758	-0,076000	22,090000	48,440000
1,240092	-0,571590	280,160	-0,075874	22,090000	48,440000
1,232148	-0,712752	280,562	-0,075933	22,080000	48,490000
1,224126	-0,697710	280,963	-0,075927	22,080000	48,490000
1,216148	-0,650270	281,363	-0,075907	22,080000	48,490000
1,208142	-0,642171	281,763	-0,075903	22,080000	48,490000
1,200157	-0,807631	282,163	-0,075973	22,080000	48,490000
1,192081	-0,658370	282,564	-0,075910	22,090000	48,480000
1,184163	-0,376046	282,965	-0,075791	22,090000	48,480000
1,176161	-0,517208	283,365	-0,075851	22,090000	48,480000
1,168138	-0,768291	283,765	-0,075957	22,090000	48,480000
1,160060	-0,768291	284,166	-0,075957	22,090000	48,480000
1,152156	-0,376046	284,566	-0,075791	22,090000	48,480000
1,144130	-0,579689	284,967	-0,075877	22,090000	48,480000
1,136158	-0,376046	285,368	-0,075791	22,090000	48,480000
1,128135	-0,814573	285,770	-0,075976	22,090000	48,480000
1,120097	-0,336706	286,171	-0,075774	22,090000	48,480000
1,112089	-0,454726	286,573	-0,075824	22,090000	48,465000
1,104129	-0,376046	286,973	-0,075791	22,090000	48,465000
1,096106	-0,665312	287,374	-0,075913	22,090000	48,465000
1,088121	-0,619030	287,774	-0,075894	22,090000	48,465000
1,080120	-0,376046	288,176	-0,075791	22,090000	48,465000
1,072160	-0,556548	288,578	-0,075867	22,080000	48,490000
1,064097	-0,359847	288,978	-0,075784	22,080000	48,490000
1,056142	-0,234884	289,379	-0,075731	22,080000	48,490000
1,048107	-0,532250	289,779	-0,075857	22,080000	48,490000
1,040102	-0,431585	290,179	-0,075814	22,080000	48,490000
1,032146	-0,540349	290,579	-0,075860	22,080000	48,490000
1,024104	-0,392245	290,979	-0,075798	22,080000	48,490000
1,016117	-0,540349	291,380	-0,075860	22,080000	48,490000
1,008102	-0,619030	291,782	-0,075894	22,080000	48,490000
1,000139	-0,226785	292,182	-0,075728	22,080000	48,490000
0,992105	-0,384145	292,583	-0,075794	22,090000	48,465000
0,984090	-0,587789	292,983	-0,075880	22,090000	48,465000
0,976082	-0,720851	293,384	-0,075937	22,090000	48,465000
0,968099	-0,423486	293,784	-0,075811	22,090000	48,465000
0,960085	-0,517208	294,185	-0,075851	22,090000	48,465000
0,952135	-0,571590	294,585	-0,075874	22,090000	48,465000
0,944160	-0,423486	294,985	-0,075811	22,090000	48,465000
0,936120	-0,367947	295,385	-0,075788	22,090000	48,465000
0,928139	-0,603988	295,785	-0,075887	22,090000	48,465000
0,920113	-0,610930	296,186	-0,075890	22,090000	48,465000
0,912141	-0,297366	296,586	-0,075758	22,100000	48,440000
0,904144	-0,469768	296,986	-0,075831	22,100000	48,440000
0,896131	-0,461669	297,386	-0,075827	22,100000	48,440000
0,888113	-0,344805	297,787	-0,075778	22,100000	48,440000
0,880087	-0,540349	298,187	-0,075860	22,100000	48,440000
0,872092	-0,344805	298,587	-0,075778	22,090000	48,480000
0,864138	-0,807631	298,987	-0,075973	22,090000	48,480000
0,856144	-0,446627	299,387	-0,075821	22,090000	48,480000
0,848125	-0,392245	299,789	-0,075798	22,090000	48,480000
0,840131	-0,509108	300,189	-0,075847	22,090000	48,480000
0,832100	-0,305465	300,589	-0,075761	22,090000	48,480000
0,824159	-0,297366	300,990	-0,075758	22,090000	48,480000
0,816108	-0,509108	301,390	-0,075847	22,090000	48,480000
0,808126	-0,548449	301,790	-0,075864	22,090000	48,480000
0,800146	-0,501009	302,192	-0,075844	22,090000	48,480000
0,792174	-0,407287	302,592	-0,075804	22,090000	48,465000
0,784138	-0,454726	302,992	-0,075824	22,090000	48,465000
0,776113	-0,297366	303,392	-0,075758	22,090000	48,465000
0,768172	-0,328606	303,793	-0,075771	22,090000	48,465000
0,760150	-0,454726	304,195	-0,075824	22,090000	48,465000
0,752080	-0,384145	304,596	-0,075794	22,080000	48,480000
0,744146	-0,258025	304,999	-0,075741	22,080000	48,480000
0,736115	-0,203643	305,399	-0,075718	22,080000	48,480000
0,728143	-0,492910	305,799	-0,075840	22,080000	48,480000
0,720125	-0,461669	306,200	-0,075827	22,080000	48,480000
0,712084	-0,156204	306,600	-0,075698	22,090000	48,465000
0,704118	-0,423486	307,000	-0,075811	22,090000	48,465000
0,696125	-0,352905	307,401	-0,075781	22,090000	48,465000
0,688084	-0,352905	307,802	-0,075781	22,090000	48,465000
0,680114	-0,376046	308,202	-0,075791	22,090000	48,465000
0,672138	-0,492910	308,602	-0,075840	22,090000	48,465000
0,664125	-0,359847	309,002	-0,075784	22,090000	48,465000
0,656130	-0,367947	309,402	-0,075788	22,090000	48,465000
0,648122	-0,289266	309,804	-0,075754	22,090000	48,465000
0,640124	-0,438527	310,205	-0,075817	22,090000	48,465000
0,632102	-0,446627	310,608	-0,075821	22,090000	48,480000
0,624118	-0,461669	311,010	-0,075827	22,090000	48,480000
0,616141	-0,392245	311,412	-0,075798	22,090000	48,480000
0,608103	-0,423486	311,812	-0,075811	22,090000	48,480000