File: Nanoindentation Datenauswertung/data/PDMS_10-1/test-5
Quasi static measurement routine
Tip parameters (shape,radius, material...)
16.09.2022

Piezo position[nm]	MEMS displ.[nm]	Time[ms]	Cap [pf]	Temp [°C]	Rh [%]
eoh
0,618037	-0,267282	1,057	-0,075884	22,110000	48,310000
0,626059	-0,126120	1,460	-0,075824	22,110000	48,310000
0,634027	-0,063639	1,862	-0,075798	22,110000	48,310000
0,641997	0,000000	2,263	-0,075771	22,110000	48,340000
0,650063	0,023141	2,664	-0,075761	22,110000	48,340000
0,658020	0,031241	3,066	-0,075758	22,110000	48,340000
0,666079	0,172403	3,467	-0,075698	22,110000	48,340000
0,674062	0,140005	3,868	-0,075712	22,110000	48,340000
0,682038	-0,016199	4,269	-0,075778	22,110000	48,340000
0,690012	-0,039340	4,669	-0,075788	22,110000	48,340000
0,698024	-0,180502	5,069	-0,075847	22,110000	48,340000
0,706071	-0,180502	5,470	-0,075847	22,110000	48,340000
0,714002	0,015042	5,871	-0,075765	22,110000	48,340000
0,722029	-0,086780	6,273	-0,075808	22,110000	48,340000
0,730047	-0,118021	6,677	-0,075821	22,110000	48,340000
0,738058	-0,164303	7,078	-0,075840	22,110000	48,340000
0,746011	-0,251083	7,478	-0,075877	22,110000	48,340000
0,754035	-0,180502	7,878	-0,075847	22,110000	48,340000
0,762037	0,039340	8,279	-0,075754	22,110000	48,340000
0,770019	0,054382	8,681	-0,075748	22,110000	48,340000
0,778047	-0,133062	9,081	-0,075827	22,110000	48,340000
0,786088	-0,141162	9,482	-0,075831	22,110000	48,340000
0,794030	-0,094879	9,883	-0,075811	22,110000	48,340000
0,802010	0,031241	10,285	-0,075758	22,110000	48,325000
0,810056	0,023141	10,686	-0,075761	22,110000	48,325000
0,818039	-0,063639	11,087	-0,075798	22,110000	48,325000
0,826076	-0,141162	11,487	-0,075831	22,110000	48,325000
0,834037	-0,211743	11,888	-0,075860	22,110000	48,325000
0,842014	-0,047440	12,291	-0,075791	22,120000	48,310000
0,850017	-0,267282	12,692	-0,075884	22,120000	48,310000
0,858007	-0,157361	13,093	-0,075837	22,120000	48,310000
0,866070	0,046283	13,493	-0,075751	22,120000	48,310000
0,874053	0,006942	13,894	-0,075768	22,120000	48,310000
0,882053	-0,078680	14,296	-0,075804	22,120000	48,310000
0,890071	-0,172403	14,699	-0,075844	22,120000	48,310000
0,898034	-0,408444	15,102	-0,075943	22,120000	48,310000
0,906004	-0,070581	15,502	-0,075801	22,120000	48,310000
0,914063	-0,118021	15,902	-0,075821	22,120000	48,310000
0,922027	-0,227942	16,302	-0,075867	22,100000	48,320000
0,930058	-0,196701	16,704	-0,075854	22,100000	48,320000
0,938036	-0,164303	17,106	-0,075840	22,100000	48,320000
0,946052	-0,361004	17,506	-0,075923	22,100000	48,320000
0,954021	-0,336706	17,907	-0,075913	22,100000	48,320000
0,962052	-0,149261	18,309	-0,075834	22,100000	48,320000
0,970025	-0,306622	18,709	-0,075900	22,100000	48,320000
0,977991	-0,251083	19,110	-0,075877	22,100000	48,320000
0,986057	-0,149261	19,512	-0,075834	22,100000	48,320000
0,994038	-0,109921	19,914	-0,075817	22,100000	48,320000
1,002044	-0,259182	20,315	-0,075880	22,110000	48,325000
1,010081	-0,047440	20,716	-0,075791	22,110000	48,325000
1,018032	0,046283	21,118	-0,075751	22,110000	48,325000
1,026031	-0,446627	21,520	-0,075959	22,110000	48,325000
1,034036	-0,180502	21,924	-0,075847	22,110000	48,325000
1,042051	-0,133062	22,324	-0,075827	22,110000	48,310000
1,050054	0,078680	22,727	-0,075738	22,110000	48,310000
1,058025	-0,172403	23,128	-0,075844	22,110000	48,310000
1,066006	-0,196701	23,529	-0,075854	22,110000	48,310000
1,074051	-0,063639	23,929	-0,075798	22,110000	48,310000
1,082021	-0,172403	24,331	-0,075844	22,110000	48,310000
1,090029	-0,039340	24,731	-0,075788	22,110000	48,310000
1,098032	0,164303	25,132	-0,075702	22,110000	48,310000
1,106038	-0,109921	25,534	-0,075817	22,110000	48,310000
1,113992	-0,063639	25,936	-0,075798	22,110000	48,310000
1,122026	-0,008099	26,338	-0,075774	22,110000	48,340000
1,130021	-0,008099	26,739	-0,075774	22,110000	48,340000
1,137999	-0,031241	27,140	-0,075784	22,110000	48,340000
1,146025	-0,196701	27,541	-0,075854	22,110000	48,340000
1,154047	-0,126120	27,941	-0,075824	22,110000	48,340000
1,162003	-0,313564	28,343	-0,075903	22,110000	48,325000
1,170020	-0,157361	28,744	-0,075837	22,110000	48,325000
1,178028	-0,086780	29,144	-0,075808	22,110000	48,325000
1,186036	0,023141	29,545	-0,075761	22,110000	48,325000
1,194021	-0,306622	29,946	-0,075900	22,110000	48,325000
1,202023	-0,344805	30,346	-0,075917	22,110000	48,325000
1,210076	-0,070581	30,748	-0,075801	22,110000	48,325000
1,218045	-0,203643	31,150	-0,075857	22,110000	48,325000
1,226030	-0,172403	31,551	-0,075844	22,110000	48,325000
1,234034	-0,211743	31,951	-0,075860	22,110000	48,325000
1,242050	-0,242984	32,351	-0,075874	22,110000	48,350000
1,250010	-0,219842	32,752	-0,075864	22,110000	48,350000
1,258021	-0,313564	33,153	-0,075903	22,110000	48,350000
1,266009	0,015042	33,553	-0,075765	22,110000	48,350000
1,273981	-0,102979	33,953	-0,075814	22,110000	48,350000
1,282027	0,039340	34,356	-0,075754	22,100000	48,270000
1,290013	-0,008099	34,756	-0,075774	22,100000	48,270000
1,297985	-0,118021	35,157	-0,075821	22,100000	48,270000
1,306042	-0,070581	35,558	-0,075801	22,100000	48,270000
1,314014	-0,118021	35,958	-0,075821	22,100000	48,270000
1,322037	-0,094879	36,359	-0,075811	22,110000	48,300000
1,330058	-0,188602	36,760	-0,075851	22,110000	48,300000
1,338021	-0,242984	37,162	-0,075874	22,110000	48,300000
1,346035	-0,313564	37,563	-0,075903	22,110000	48,300000
1,354042	0,046283	37,963	-0,075751	22,110000	48,300000
1,362072	-0,126120	38,365	-0,075824	22,110000	48,300000
1,370060	-0,227942	38,765	-0,075867	22,110000	48,300000
1,378050	-0,070581	39,165	-0,075801	22,110000	48,300000
1,386017	-0,180502	39,567	-0,075847	22,110000	48,300000
1,394050	-0,298523	39,967	-0,075897	22,110000	48,300000
1,402029	-0,361004	40,367	-0,075923	22,110000	48,350000
1,410045	0,085623	40,767	-0,075735	22,110000	48,350000
1,418046	-0,157361	41,169	-0,075837	22,110000	48,350000
1,425997	-0,423486	41,569	-0,075950	22,110000	48,350000
1,434043	-0,290423	41,969	-0,075894	22,110000	48,350000
1,442042	-0,259182	42,371	-0,075880	22,100000	48,335000
1,450006	-0,344805	42,773	-0,075917	22,100000	48,335000
1,458067	-0,180502	43,175	-0,075847	22,100000	48,335000
1,466031	-0,329763	43,576	-0,075910	22,100000	48,335000
1,474020	-0,267282	43,977	-0,075884	22,100000	48,335000
1,482027	-0,180502	44,379	-0,075847	22,110000	48,310000
1,490025	-0,236041	44,779	-0,075871	22,110000	48,310000
1,497999	-0,118021	45,180	-0,075821	22,110000	48,310000
1,506043	-0,259182	45,581	-0,075880	22,110000	48,310000
1,513973	-0,203643	45,983	-0,075857	22,110000	48,310000
1,522006	-0,298523	46,384	-0,075897	22,100000	48,295000
1,530015	-0,219842	46,784	-0,075864	22,100000	48,295000
1,537987	-0,306622	47,185	-0,075900	22,100000	48,295000
1,546060	-0,126120	47,586	-0,075824	22,100000	48,295000
1,553991	-0,141162	47,986	-0,075831	22,100000	48,295000
1,562065	-0,031241	48,386	-0,075784	22,110000	48,325000
1,570011	-0,298523	48,788	-0,075897	22,110000	48,325000
1,578014	-0,423486	49,188	-0,075950	22,110000	48,325000
1,586051	-0,267282	49,588	-0,075884	22,110000	48,325000
1,594010	-0,392245	49,988	-0,075937	22,110000	48,325000
1,602019	-0,306622	50,388	-0,075900	22,110000	48,325000
1,610012	0,101822	50,789	-0,075728	22,110000	48,325000
1,618036	-0,259182	51,191	-0,075880	22,110000	48,325000
1,625982	-0,188602	51,593	-0,075851	22,110000	48,325000
1,634008	-0,236041	51,994	-0,075871	22,110000	48,325000
1,641994	-0,188602	52,395	-0,075851	22,110000	48,310000
1,650017	-0,321664	52,796	-0,075907	22,110000	48,310000
1,658003	-0,392245	53,198	-0,075937	22,110000	48,310000
1,665995	-0,203643	53,599	-0,075857	22,110000	48,310000
1,674005	0,108764	54,001	-0,075725	22,110000	48,310000
1,682017	-0,344805	54,401	-0,075917	22,110000	48,340000
1,690004	-0,047440	54,802	-0,075791	22,110000	48,340000
1,697982	-0,141162	55,204	-0,075831	22,110000	48,340000
1,705952	-0,196701	55,606	-0,075854	22,110000	48,340000
1,714011	-0,242984	56,006	-0,075874	22,110000	48,340000
1,722010	-0,251083	56,407	-0,075877	22,110000	48,325000
1,730014	-0,196701	56,809	-0,075854	22,110000	48,325000
1,737998	-0,454726	57,211	-0,075963	22,110000	48,325000
1,745993	-0,267282	57,613	-0,075884	22,110000	48,325000
1,753981	-0,242984	58,015	-0,075874	22,110000	48,325000
1,761975	-0,336706	58,416	-0,075913	22,110000	48,325000
1,770004	-0,392245	58,817	-0,075937	22,110000	48,325000
1,778028	-0,470925	59,218	-0,075970	22,110000	48,325000
1,786055	-0,376046	59,618	-0,075930	22,110000	48,325000
1,794016	-0,352905	60,018	-0,075920	22,110000	48,325000
1,801948	-0,306622	60,418	-0,075900	22,110000	48,310000
1,810039	-0,196701	60,819	-0,075854	22,110000	48,310000
1,817974	-0,063639	61,220	-0,075798	22,110000	48,310000
1,826005	-0,329763	61,621	-0,075910	22,110000	48,310000
1,834000	-0,227942	62,021	-0,075867	22,110000	48,310000
1,842010	-0,392245	62,422	-0,075937	22,110000	48,325000
1,849973	-0,236041	62,824	-0,075871	22,110000	48,325000
1,858050	-0,313564	63,227	-0,075903	22,110000	48,325000
1,865985	-0,196701	63,630	-0,075854	22,110000	48,325000
1,874024	-0,306622	64,032	-0,075900	22,110000	48,325000
1,882013	-0,172403	64,432	-0,075844	22,110000	48,325000
1,889971	-0,227942	64,835	-0,075867	22,110000	48,325000
1,898023	-0,251083	65,237	-0,075877	22,110000	48,325000
1,905942	-0,203643	65,637	-0,075857	22,110000	48,325000
1,913947	-0,400344	66,039	-0,075940	22,110000	48,325000
1,922033	-0,502166	66,440	-0,075983	22,110000	48,310000
1,929988	-0,203643	66,841	-0,075857	22,110000	48,310000
1,937968	-0,149261	67,241	-0,075834	22,110000	48,310000
1,945998	-0,352905	67,642	-0,075920	22,110000	48,310000
1,954013	0,093722	68,043	-0,075731	22,110000	48,310000
1,961978	-0,336706	68,444	-0,075913	22,110000	47,575000
1,970016	-0,454726	68,845	-0,075963	22,110000	47,575000
1,978001	-0,329763	69,246	-0,075910	22,110000	47,575000
1,985977	-0,415386	69,646	-0,075946	22,110000	47,575000
1,993988	-0,384145	70,046	-0,075933	22,110000	47,575000
2,001987	-0,227942	70,448	-0,075867	22,110000	48,310000
2,009946	-0,344805	70,849	-0,075917	22,110000	48,310000
2,018015	-0,227942	71,250	-0,075867	22,110000	48,310000
2,025955	-0,126120	71,651	-0,075824	22,110000	48,310000
2,033984	-0,242984	72,051	-0,075874	22,110000	48,310000
2,041984	-0,352905	72,451	-0,075920	22,110000	48,310000
2,049959	-0,369104	72,852	-0,075927	22,110000	48,310000
2,057963	-0,211743	73,253	-0,075860	22,110000	48,310000
2,065953	-0,219842	73,654	-0,075864	22,110000	48,310000
2,073962	-0,203643	74,056	-0,075857	22,110000	48,310000
2,081989	-0,587789	74,456	-0,076019	22,100000	48,320000
2,090000	-0,415386	74,857	-0,075946	22,100000	48,320000
2,097974	-0,446627	75,257	-0,075959	22,100000	48,320000
2,106001	-0,321664	75,657	-0,075907	22,100000	48,320000
2,113950	-0,479025	76,058	-0,075973	22,100000	48,320000
2,121951	-0,344805	76,460	-0,075917	22,100000	48,320000
2,129991	-0,392245	76,861	-0,075937	22,100000	48,320000
2,137999	-0,400344	77,261	-0,075940	22,100000	48,320000
2,145961	-0,369104	77,661	-0,075927	22,100000	48,320000
2,153973	-0,392245	78,061	-0,075937	22,100000	48,320000
2,161980	-0,470925	78,462	-0,075970	22,120000	48,325000
2,169970	-0,556548	78,862	-0,076006	22,120000	48,325000
2,177994	-0,510265	79,263	-0,075986	22,120000	48,325000
2,185930	-0,376046	79,664	-0,075930	22,120000	48,325000
2,193996	-0,439685	80,065	-0,075957	22,110000	48,325000
2,202037	-0,172403	80,467	-0,075844	22,110000	48,325000
2,209963	-0,564648	80,867	-0,076009	22,110000	48,325000
2,217962	-0,352905	81,268	-0,075920	22,110000	48,325000
2,225994	-0,431585	81,668	-0,075953	22,110000	48,325000
2,234012	-0,384145	82,069	-0,075933	22,110000	48,325000
2,242010	-0,784490	82,471	-0,076102	22,110000	48,325000
2,249978	-0,697710	82,872	-0,076065	22,110000	48,325000
2,257996	-0,329763	83,273	-0,075910	22,110000	48,325000
2,266009	-0,454726	83,673	-0,075963	22,110000	48,325000
2,273968	-0,211743	84,073	-0,075860	22,110000	48,340000
2,281959	-0,196701	84,474	-0,075854	22,110000	48,340000
2,289978	-0,548449	84,874	-0,076002	22,110000	48,340000
2,298022	-0,408444	85,274	-0,075943	22,110000	48,340000
2,305956	-0,485967	85,675	-0,075976	22,110000	48,340000
2,313940	-0,651427	86,075	-0,076046	22,110000	48,340000
2,321992	-0,415386	86,477	-0,075946	22,110000	48,340000
2,330005	-0,674569	86,878	-0,076056	22,110000	48,340000
2,337984	-0,595888	87,278	-0,076022	22,110000	48,340000
2,345969	-0,361004	87,679	-0,075923	22,110000	48,340000
2,353993	-0,525307	88,080	-0,075993	22,110000	48,340000
2,361955	-0,564648	88,482	-0,076009	22,110000	48,340000
2,369978	-0,595888	88,884	-0,076022	22,110000	48,340000
2,377959	-0,306622	89,284	-0,075900	22,110000	48,340000
2,385988	-0,423486	89,685	-0,075950	22,110000	48,340000
2,393978	-0,392245	90,086	-0,075937	22,110000	48,340000
2,401983	-0,587789	90,488	-0,076019	22,110000	48,340000
2,410006	-0,510265	90,890	-0,075986	22,110000	48,340000
2,417983	-0,525307	91,292	-0,075993	22,110000	48,340000
2,425970	-0,470925	91,694	-0,075970	22,110000	48,340000
2,433991	-0,556548	92,096	-0,076006	22,110000	48,325000
2,441986	-0,612087	92,496	-0,076029	22,110000	48,325000
2,450015	-0,494067	92,896	-0,075979	22,110000	48,325000
2,457982	-0,658370	93,297	-0,076049	22,110000	48,325000
2,465966	-0,572747	93,697	-0,076013	22,110000	48,325000
2,473953	-0,862013	94,099	-0,076135	22,100000	48,320000
2,482035	-0,619030	94,499	-0,076032	22,100000	48,320000
2,490014	-0,737050	94,900	-0,076082	22,100000	48,320000
2,497985	-0,690768	95,300	-0,076063	22,100000	48,320000
2,505994	-0,666469	95,700	-0,076052	22,100000	48,320000
2,514008	-0,556548	96,101	-0,076006	22,110000	48,325000
2,521994	-0,722008	96,503	-0,076076	22,110000	48,325000
2,529969	-0,619030	96,903	-0,076032	22,110000	48,325000
2,537967	-0,603988	97,305	-0,076026	22,110000	48,325000
2,546030	-0,722008	97,706	-0,076076	22,110000	48,325000
2,553991	-0,745150	98,106	-0,076085	22,110000	48,325000
2,562012	-0,760191	98,506	-0,076092	22,110000	48,325000
2,570010	-0,643328	98,907	-0,076042	22,110000	48,325000
2,577935	-0,925652	99,308	-0,076162	22,110000	48,325000
2,586044	-0,728951	99,710	-0,076079	22,110000	48,325000
2,593996	-0,752092	100,112	-0,076088	22,110000	48,325000
2,601978	-0,572747	100,512	-0,076013	22,110000	48,325000
2,609963	-0,697710	100,913	-0,076065	22,110000	48,325000
2,618024	-0,728951	101,315	-0,076079	22,110000	48,325000
2,625992	-0,643328	101,715	-0,076042	22,110000	48,325000
2,633955	-0,784490	102,115	-0,076102	22,100000	48,305000
2,641939	-0,666469	102,515	-0,076052	22,100000	48,305000
2,650019	-0,627129	102,916	-0,076036	22,100000	48,305000
2,657973	-1,019374	103,318	-0,076201	22,100000	48,305000
2,665971	-0,760191	103,721	-0,076092	22,100000	48,305000
2,673988	-0,830772	104,122	-0,076122	22,110000	48,300000
2,682017	-0,745150	104,523	-0,076085	22,110000	48,300000
2,690016	-1,011274	104,924	-0,076198	22,110000	48,300000
2,697990	-0,807631	105,324	-0,076112	22,110000	48,300000
2,705971	-0,886311	105,726	-0,076145	22,110000	48,300000
2,713996	-1,073756	106,126	-0,076224	22,110000	48,300000
2,721990	-0,971934	106,528	-0,076181	22,110000	48,300000
2,729970	-0,894411	106,930	-0,076148	22,110000	48,300000
2,737942	-1,019374	107,330	-0,076201	22,110000	48,300000
2,745942	-0,940693	107,730	-0,076168	22,110000	48,300000
2,753973	-202,729284	108,133	-0,161323	22,110000	48,350000
2,761954	-208,232283	108,534	-0,163645	22,110000	48,350000
2,769987	-207,221009	108,935	-0,163218	22,110000	48,350000
2,777944	-203,285832	109,335	-0,161558	22,110000	48,350000
2,785961	-201,279482	109,735	-0,160711	22,110000	48,350000
2,793966	-197,823330	110,136	-0,159252	22,110000	48,340000
2,802017	-192,681335	110,538	-0,157083	22,110000	48,340000
2,809989	-188,456892	110,939	-0,155300	22,110000	48,340000
2,817963	-184,513616	111,339	-0,153636	22,110000	48,340000
2,825957	-181,495992	111,741	-0,152362	22,110000	48,340000
2,833977	-177,327088	112,142	-0,150603	22,110000	48,300000
2,841962	-172,537998	112,544	-0,148582	22,110000	48,300000
2,849964	-167,701468	112,944	-0,146541	22,110000	48,300000
2,857962	-163,250241	113,344	-0,144663	22,110000	48,300000
2,865944	-158,914720	113,746	-0,142833	22,110000	48,300000
2,873920	-153,514699	114,148	-0,140554	22,110000	48,300000
2,881993	-150,638237	114,549	-0,139340	22,110000	48,300000
2,889960	-146,178910	114,949	-0,137458	22,110000	48,300000
2,897981	-141,554123	115,351	-0,135507	22,110000	48,300000
2,906023	-137,172319	115,753	-0,133658	22,110000	48,300000
2,913938	-132,619270	116,153	-0,131736	22,110000	48,340000
2,921988	-127,947043	116,554	-0,129765	22,110000	48,340000
2,929994	-121,951135	116,955	-0,127234	22,110000	48,340000
2,937950	-117,350646	117,356	-0,125293	22,110000	48,340000
2,945939	-113,236124	117,758	-0,123557	22,110000	48,340000
2,953913	-109,332189	118,159	-0,121909	22,110000	48,340000
2,961944	-103,837289	118,559	-0,119590	22,110000	48,340000
2,969924	-99,111837	118,960	-0,117596	22,110000	48,340000
2,977947	-95,349063	119,361	-0,116008	22,110000	48,340000
2,985981	-89,572997	119,764	-0,113571	22,110000	48,340000
2,993997	-84,462243	120,165	-0,111414	22,110000	48,340000
3,001933	-81,006091	120,565	-0,109956	22,110000	48,340000
3,009980	-76,412544	120,966	-0,108017	22,110000	48,340000
3,017960	-71,710234	121,367	-0,106033	22,110000	48,340000
3,025977	-66,670061	121,767	-0,103906	22,110000	48,340000
3,033956	-60,423069	122,169	-0,101270	22,110000	48,340000
3,041969	-56,904436	122,570	-0,099785	22,110000	48,340000
3,049960	-50,962909	122,971	-0,097277	22,110000	48,340000
3,057937	-47,365595	123,372	-0,095759	22,110000	48,340000
3,065945	-41,550189	123,772	-0,093305	22,110000	48,340000
3,073907	-37,818656	124,173	-0,091730	22,110000	48,310000
3,081952	-32,010191	124,574	-0,089279	22,110000	48,310000
3,089937	-27,440943	124,974	-0,087351	22,110000	48,310000
3,097938	-23,224600	125,375	-0,085572	22,110000	48,310000
3,105960	-17,894004	125,775	-0,083322	22,110000	48,310000
3,113913	-13,097971	126,178	-0,081298	22,110000	48,300000
3,121947	-8,198960	126,581	-0,079231	22,110000	48,300000
3,129985	-3,433011	126,984	-0,077220	22,110000	48,300000
3,137918	2,758442	127,385	-0,074607	22,110000	48,300000
3,145916	6,465677	127,786	-0,073042	22,110000	48,300000
3,153954	11,404028	128,186	-0,070958	22,110000	48,300000
3,161925	16,200061	128,586	-0,068935	22,110000	48,300000
3,169931	22,556974	128,989	-0,066252	22,110000	48,300000
3,177921	27,111180	129,390	-0,064330	22,110000	48,300000
3,185923	32,197636	129,791	-0,062184	22,110000	48,300000
3,193868	37,496992	130,192	-0,059947	22,110000	48,300000
3,201916	40,968185	130,593	-0,058482	22,110000	48,300000
3,209945	47,686102	130,993	-0,055647	22,110000	48,300000
3,217900	50,876129	131,395	-0,054301	22,110000	48,300000
3,225939	56,228710	131,797	-0,052042	22,110000	48,300000
3,233928	61,119622	132,200	-0,049979	22,110000	48,340000
3,241913	65,760608	132,601	-0,048020	22,110000	48,340000
3,249899	71,137487	133,002	-0,045751	22,110000	48,340000
3,257897	76,200802	133,403	-0,043614	22,110000	48,340000
3,265940	81,091714	133,804	-0,041550	22,110000	48,340000
3,273905	87,110763	134,205	-0,039010	22,100000	48,320000
3,281903	91,218343	134,605	-0,037277	22,100000	48,320000
3,289956	96,775724	135,005	-0,034932	22,100000	48,320000
3,297911	101,627296	135,405	-0,032884	22,100000	48,320000
3,305894	108,061732	135,806	-0,030169	22,100000	48,320000
3,313860	112,647179	136,207	-0,028234	22,110000	48,300000
3,321866	117,060223	136,611	-0,026372	22,110000	48,300000
3,329895	122,138579	137,012	-0,024229	22,110000	48,300000
3,337863	126,943868	137,414	-0,022201	22,110000	48,300000
3,345904	133,299624	137,814	-0,019519	22,110000	48,300000
3,353872	137,195461	138,215	-0,017875	22,120000	48,325000
3,361917	141,945211	138,615	-0,015870	22,120000	48,325000
3,369869	147,079106	139,015	-0,013704	22,120000	48,325000
3,377856	152,337965	139,416	-0,011484	22,120000	48,325000
3,385885	157,535499	139,819	-0,009291	22,120000	48,325000
3,393884	162,535175	140,220	-0,007181	22,110000	48,325000
3,401885	168,868946	140,621	-0,004508	22,110000	48,325000
3,409881	172,991567	141,022	-0,002769	22,110000	48,325000
3,417853	179,402862	141,423	-0,000063	22,110000	48,325000
3,425873	183,807807	141,824	0,001796	22,110000	48,325000
3,433871	188,486976	142,225	0,003771	22,110000	48,340000
3,441888	193,126805	142,626	0,005729	22,110000	48,340000
3,449831	199,844722	143,026	0,008563	22,110000	48,340000
3,457834	204,507692	143,426	0,010531	22,110000	48,340000
3,465913	209,352322	143,826	0,012576	22,110000	48,340000
3,473847	213,741067	144,228	0,014428	22,110000	48,350000
3,481852	219,102905	144,628	0,016690	22,110000	48,350000
3,489863	224,118780	145,029	0,018807	22,110000	48,350000
3,497859	230,561315	145,432	0,021526	22,110000	48,350000
3,505859	234,245409	145,833	0,023081	22,110000	48,350000
3,513900	239,175661	146,234	0,025161	22,110000	48,325000
3,521885	245,844981	146,636	0,027976	22,110000	48,325000
3,529866	249,435352	147,037	0,029491	22,110000	48,325000
3,537866	256,097730	147,437	0,032302	22,110000	48,325000
3,545867	259,758683	147,837	0,033847	22,110000	48,325000
3,553817	265,432927	148,239	0,036242	22,110000	48,325000
3,561833	270,480043	148,642	0,038372	22,110000	48,325000
3,569857	275,488975	149,044	0,040485	22,110000	48,325000
3,577830	280,371788	149,446	0,042546	22,110000	48,325000
3,585849	285,513783	149,847	0,044716	22,110000	48,325000
3,593825	290,412794	150,248	0,046783	22,110000	48,300000
3,601850	296,965251	150,649	0,049548	22,110000	48,300000
3,609890	300,726868	151,051	0,051136	22,110000	48,300000
3,617884	307,200644	151,451	0,053868	22,110000	48,300000
3,625774	312,186436	151,851	0,055972	22,110000	48,300000
3,633889	316,128555	152,251	0,057635	22,110000	48,310000
3,641801	321,394355	152,652	0,059857	22,110000	48,310000
3,649820	327,752425	153,055	0,062541	22,110000	48,310000
3,657798	332,369113	153,457	0,064489	22,110000	48,310000
3,665821	336,750916	153,859	0,066338	22,110000	48,310000
3,673845	342,684344	154,260	0,068842	22,110000	48,300000
3,681821	347,519716	154,662	0,070882	22,110000	48,300000
3,689802	353,523724	155,062	0,073416	22,110000	48,300000
3,697815	357,293441	155,463	0,075007	22,110000	48,300000
3,705830	362,113772	155,863	0,077041	22,110000	48,300000
3,713813	368,964751	156,263	0,079932	22,120000	48,325000
3,721884	372,609505	156,665	0,081470	22,120000	48,325000
3,729864	377,962085	157,065	0,083729	22,120000	48,325000
3,737823	382,962918	157,465	0,085839	22,120000	48,325000
3,745819	387,932511	157,865	0,087937	22,120000	48,325000
3,753840	395,056557	158,266	0,090943	22,110000	48,350000
3,761816	400,026150	158,667	0,093040	22,110000	48,350000
3,769880	405,529149	159,068	0,095362	22,110000	48,350000
3,777831	410,364522	159,468	0,097403	22,110000	48,350000
3,785797	414,001176	159,870	0,098937	22,110000	48,350000
3,793819	420,546690	160,275	0,101700	22,110000	48,285000
3,801759	424,794274	160,676	0,103492	22,110000	48,285000
3,809829	429,763866	161,078	0,105589	22,110000	48,285000
3,817795	436,268883	161,479	0,108334	22,110000	48,285000
3,817780	435,704236	161,879	0,108096	22,110000	48,285000
3,817787	435,124546	162,282	0,107852	22,110000	48,325000
3,817795	434,944044	162,684	0,107775	22,110000	48,325000
3,817769	434,740401	163,086	0,107689	22,110000	48,325000
3,817850	434,325015	163,489	0,107514	22,110000	48,325000
3,817813	434,035749	163,889	0,107392	22,110000	48,325000
3,817831	434,082031	164,289	0,107412	22,110000	48,325000
3,817797	433,627305	164,690	0,107220	22,110000	48,325000
3,817822	433,517384	165,091	0,107173	22,110000	48,325000
3,817821	433,564823	165,492	0,107193	22,110000	48,325000
3,817788	433,259358	165,893	0,107064	22,110000	48,325000
3,817785	433,133238	166,294	0,107011	22,120000	48,325000
3,817788	432,694711	166,696	0,106826	22,120000	48,325000
3,817828	432,656528	167,097	0,106810	22,120000	48,325000
3,817831	432,507266	167,497	0,106747	22,120000	48,325000
3,817792	432,569748	167,899	0,106773	22,120000	48,325000
3,817781	432,044441	168,299	0,106552	22,110000	48,310000
3,817824	432,310565	168,701	0,106664	22,110000	48,310000
3,817840	431,919478	169,102	0,106499	22,110000	48,310000
3,817855	431,973860	169,505	0,106522	22,110000	48,310000
3,817795	431,816499	169,906	0,106456	22,110000	48,310000
3,817832	431,816499	170,306	0,106456	22,110000	48,310000
3,817814	431,637154	170,706	0,106380	22,110000	48,310000
3,817824	431,338631	171,106	0,106254	22,110000	48,310000
3,817764	431,253008	171,508	0,106218	22,110000	48,310000
3,809786	425,782407	171,908	0,103909	22,110000	48,310000
3,801821	420,859097	172,310	0,101832	22,100000	48,320000
3,793771	415,130471	172,711	0,099414	22,100000	48,320000
3,785850	409,533749	173,112	0,097052	22,100000	48,320000
3,777824	403,655861	173,512	0,094572	22,100000	48,320000
3,769824	396,694961	173,913	0,091634	22,100000	48,320000
3,761799	392,744742	174,314	0,089967	22,100000	48,320000
3,753779	387,375963	174,715	0,087702	22,100000	48,320000
3,745776	380,227618	175,115	0,084685	22,100000	48,320000
3,737799	375,932594	175,516	0,082873	22,100000	48,320000
3,729825	368,995992	175,917	0,079945	22,100000	48,320000
3,721822	363,563574	176,318	0,077653	22,100000	48,320000
3,713843	358,092972	176,720	0,075344	22,100000	48,320000
3,705789	352,456911	177,121	0,072966	22,100000	48,320000
3,697825	347,629638	177,521	0,070929	22,100000	48,320000
3,689824	342,903029	177,923	0,068934	22,100000	48,320000
3,681804	336,279991	178,323	0,066139	22,110000	48,300000
3,673794	331,380980	178,725	0,064072	22,110000	48,300000
3,665828	326,090880	179,127	0,061839	22,110000	48,300000
3,657906	321,042608	179,528	0,059709	22,110000	48,300000
3,649811	315,775650	179,929	0,057486	22,110000	48,300000
3,641865	310,508692	180,329	0,055264	22,120000	48,325000
3,633817	303,603330	180,732	0,052350	22,120000	48,325000
3,625833	299,410128	181,133	0,050580	22,120000	48,325000
3,617829	292,473526	181,533	0,047653	22,120000	48,325000
3,609805	287,088548	181,933	0,045380	22,120000	48,325000
3,601856	283,734218	182,334	0,043965	22,120000	48,325000
3,593824	276,562731	182,736	0,040938	22,120000	48,325000
3,585865	271,044690	183,137	0,038610	22,120000	48,325000
3,577895	266,278741	183,537	0,036599	22,120000	48,325000
3,569823	261,607672	183,939	0,034627	22,120000	48,325000
3,561844	255,759867	184,341	0,032160	22,110000	48,310000
3,553863	250,822673	184,741	0,030076	22,110000	48,310000
3,545865	244,481959	185,141	0,027400	22,110000	48,310000
3,537824	240,272558	185,541	0,025624	22,110000	48,310000
3,529824	234,887580	185,941	0,023352	22,110000	48,310000
3,521797	229,934186	186,341	0,021261	22,110000	48,325000
3,513856	224,502925	186,743	0,018969	22,110000	48,325000
3,505816	219,259108	187,144	0,016756	22,110000	48,325000
3,497877	214,235134	187,547	0,014636	22,110000	48,325000
3,489839	208,905695	187,948	0,012387	22,110000	48,325000
3,481836	201,905454	188,350	0,009433	22,110000	48,310000
3,473870	197,712252	188,751	0,007664	22,110000	48,310000
3,465838	192,852581	189,153	0,005613	22,110000	48,310000
3,457872	186,260784	189,553	0,002831	22,110000	48,310000
3,449886	181,307390	189,955	0,000741	22,110000	48,310000
3,441852	176,957985	190,355	-0,001095	22,100000	48,305000
3,433871	171,126379	190,757	-0,003556	22,100000	48,305000
3,425919	165,411637	191,157	-0,005967	22,100000	48,305000
3,417919	160,834290	191,558	-0,007899	22,100000	48,305000
3,409876	154,956402	191,958	-0,010379	22,100000	48,305000
3,401876	148,779991	192,359	-0,012986	22,100000	48,305000
3,393901	144,979034	192,760	-0,014590	22,100000	48,305000
3,385823	138,449719	193,163	-0,017345	22,100000	48,305000
3,377883	133,205902	193,565	-0,019558	22,100000	48,305000
3,369885	129,334364	193,968	-0,021192	22,100000	48,305000
3,361863	122,663887	194,369	-0,024007	22,100000	48,335000
3,353887	117,177086	194,770	-0,026322	22,100000	48,335000
3,345853	113,116947	195,171	-0,028036	22,100000	48,335000
3,337879	106,564490	195,572	-0,030801	22,100000	48,335000
3,329873	102,669811	195,974	-0,032444	22,100000	48,335000
3,321848	95,725109	196,376	-0,035375	22,110000	48,285000
3,313936	90,873537	196,777	-0,037422	22,110000	48,285000
3,305943	85,488559	197,177	-0,039695	22,110000	48,285000
3,297887	80,354663	197,578	-0,041861	22,110000	48,285000
3,289913	74,961585	197,979	-0,044137	22,110000	48,285000
3,281912	69,569665	198,380	-0,046413	22,110000	48,300000
3,273886	64,435769	198,782	-0,048579	22,110000	48,300000
3,265923	60,336289	199,182	-0,050309	22,110000	48,300000
3,257899	53,524650	199,584	-0,053184	22,110000	48,300000
3,249899	48,446294	199,985	-0,055327	22,110000	48,300000
3,241929	43,218676	200,385	-0,057533	22,110000	48,325000
3,233870	37,441453	200,787	-0,059971	22,110000	48,325000
3,225899	32,291358	201,188	-0,062144	22,110000	48,325000
3,217900	28,396679	201,591	-0,063788	22,110000	48,325000
3,209909	22,754832	201,991	-0,066168	22,110000	48,325000
3,201949	17,125713	202,392	-0,068544	22,120000	48,310000
3,193883	11,027982	202,795	-0,071117	22,120000	48,310000
3,185852	6,575598	203,197	-0,072996	22,120000	48,310000
3,177918	1,857089	203,597	-0,074987	22,120000	48,310000
3,169901	-3,542932	203,997	-0,077266	22,120000	48,310000
3,161887	-10,190268	204,398	-0,080071	22,110000	48,310000
3,153898	-14,390412	204,799	-0,081844	22,110000	48,310000
3,145926	-20,732283	205,200	-0,084520	22,110000	48,310000
3,137917	-26,281565	205,601	-0,086862	22,110000	48,310000
3,129961	-31,407361	206,003	-0,089025	22,110000	48,310000
3,121949	-36,987883	206,403	-0,091380	22,100000	48,305000
3,113924	-42,505924	206,804	-0,093708	22,100000	48,305000
3,105929	-46,385562	207,205	-0,095346	22,100000	48,305000
3,097939	-51,644420	207,606	-0,097565	22,100000	48,305000
3,089942	-57,774548	208,006	-0,100152	22,100000	48,305000
3,081913	-63,872279	208,408	-0,102725	22,100000	48,305000
3,073929	-69,257257	208,809	-0,104998	22,100000	48,305000
3,065938	-73,183177	209,209	-0,106654	22,100000	48,305000
3,057940	-78,858579	209,611	-0,109049	22,100000	48,305000
3,049935	-84,227359	210,011	-0,111315	22,100000	48,305000
3,041893	-89,446877	210,412	-0,113518	22,110000	48,310000
3,033925	-95,514523	210,813	-0,116078	22,110000	48,310000
3,025976	-100,302457	211,216	-0,118099	22,110000	48,310000
3,017962	-106,644328	211,617	-0,120775	22,110000	48,310000
3,009920	-111,369779	212,018	-0,122769	22,110000	48,310000
3,001957	-117,554289	212,420	-0,125379	22,110000	48,285000
2,993943	-122,939268	212,822	-0,127651	22,110000	48,285000
2,985929	-126,708984	213,224	-0,129242	22,110000	48,285000
2,977931	-132,368187	213,625	-0,131630	22,110000	48,285000
2,969912	-137,784406	214,025	-0,133916	22,110000	48,285000
2,961920	-142,926401	214,427	-0,136086	22,110000	48,285000
2,953995	-147,989716	214,829	-0,138223	22,110000	48,285000
2,945958	-153,389736	215,229	-0,140501	22,110000	48,285000
2,937959	-160,177077	215,630	-0,143366	22,110000	48,285000
2,929956	-163,829930	216,030	-0,144907	22,110000	48,285000
2,921949	-170,193785	216,430	-0,147593	22,110000	48,285000
2,913958	-174,999074	216,830	-0,149621	22,110000	48,285000
2,905999	-178,824330	217,231	-0,151235	22,110000	48,285000
2,897944	-185,799115	217,633	-0,154178	22,110000	48,285000
2,889934	-189,576931	218,033	-0,155772	22,110000	48,285000
2,881996	-195,071831	218,433	-0,158091	22,110000	48,285000
2,873958	-201,059640	218,833	-0,160618	22,110000	48,285000
2,865977	-205,002916	219,234	-0,162282	22,110000	48,285000
2,857960	-210,488559	219,634	-0,164597	22,110000	48,285000
2,849948	-215,819155	220,035	-0,166847	22,110000	48,285000
2,841949	-222,583355	220,436	-0,169701	22,110000	48,340000
2,833978	-226,579856	220,838	-0,171388	22,110000	48,340000
2,825962	-231,847971	221,239	-0,173611	22,110000	48,340000
2,817977	-236,307298	221,639	-0,175493	22,110000	48,340000
2,809948	-241,652936	222,040	-0,177749	22,110000	48,340000
2,802009	-246,591288	222,443	-0,179833	22,110000	48,300000
2,793925	-251,575922	222,846	-0,181936	22,110000	48,300000
2,785972	-257,211983	223,247	-0,184314	22,110000	48,300000
2,777941	-262,032314	223,648	-0,186349	22,110000	48,300000
2,769922	-268,819655	224,049	-0,189213	22,110000	48,300000
2,761963	-273,891069	224,451	-0,191353	22,110000	48,300000
2,753986	-278,821321	224,852	-0,193434	22,110000	48,300000
2,745948	-284,526807	225,253	-0,195841	22,110000	48,300000
2,737997	-288,923652	225,655	-0,197697	22,110000	48,300000
2,729981	-293,642162	226,057	-0,199688	22,110000	48,300000
2,721970	-298,541173	226,457	-0,201755	22,110000	48,340000
2,713997	-304,208475	226,857	-0,204147	22,110000	48,340000
2,705958	-308,416719	227,257	-0,205923	22,110000	48,340000
2,697985	-313,471934	227,658	-0,208056	22,110000	48,340000
2,689977	-318,935593	228,058	-0,210362	22,110000	48,340000
2,681961	-323,583522	228,458	-0,212323	22,110000	48,340000
2,673944	-330,269041	228,860	-0,215145	22,110000	48,340000
2,665952	-334,000574	229,261	-0,216719	22,110000	48,340000
2,657984	-338,883386	229,662	-0,218780	22,110000	48,340000
2,649921	-345,224100	230,064	-0,221456	22,110000	48,340000
2,641954	-348,813315	230,465	-0,222970	22,110000	48,300000
2,633956	-354,190194	230,865	-0,225239	22,110000	48,300000
2,626002	-360,766949	231,267	-0,228015	22,110000	48,300000
2,617982	-365,940184	231,669	-0,230198	22,110000	48,300000
2,609971	-369,599980	232,073	-0,231742	22,110000	48,300000
2,602009	-375,361004	232,474	-0,234173	22,120000	48,310000
2,593997	-380,518041	232,874	-0,236350	22,120000	48,310000
2,586062	-384,320155	233,275	-0,237954	22,120000	48,310000
2,577982	-388,873204	233,675	-0,239875	22,120000	48,310000
2,569975	-393,827755	234,076	-0,241966	22,120000	48,310000
2,561963	-398,224600	234,477	-0,243822	22,110000	48,325000
2,554003	-402,801948	234,877	-0,245753	22,110000	48,325000
2,545941	-409,228284	235,277	-0,248465	22,110000	48,325000
2,537985	-414,253416	235,679	-0,250586	22,110000	48,325000
2,530007	-417,686426	236,081	-0,252035	22,110000	48,325000
2,521967	-422,984625	236,482	-0,254271	22,110000	48,310000
2,514021	-428,824330	236,883	-0,256735	22,110000	48,310000
2,505957	-432,484125	237,286	-0,258279	22,110000	48,310000
2,497984	-438,754258	237,686	-0,260925	22,110000	48,310000
2,489996	-442,297190	238,086	-0,262420	22,110000	48,310000
2,481995	-446,937019	238,487	-0,264378	22,110000	48,310000
2,473936	-451,742308	238,887	-0,266406	22,110000	48,310000
2,466022	-456,986124	239,287	-0,268619	22,110000	48,310000
2,458004	-461,908277	239,689	-0,270696	22,110000	48,310000
2,449947	-466,038998	240,092	-0,272439	22,110000	48,325000
2,441955	-470,757507	240,494	-0,274431	22,110000	48,325000
2,433976	-475,686602	240,896	-0,276511	22,110000	48,325000
2,425944	-481,754249	241,297	-0,279071	22,110000	48,325000
2,417989	-485,202301	241,697	-0,280526	22,110000	48,325000
2,409967	-490,500500	242,097	-0,282762	22,110000	48,285000
2,401988	-495,595055	242,499	-0,284912	22,110000	48,285000
2,393961	-499,004924	242,900	-0,286351	22,110000	48,285000
2,385998	-504,749750	243,300	-0,288775	22,110000	48,285000
2,377999	-507,987217	243,703	-0,290142	22,110000	48,285000
2,369992	-512,713826	244,103	-0,292136	22,110000	48,325000
2,361967	-518,074506	244,505	-0,294398	22,110000	48,325000
2,354017	-522,981617	244,907	-0,296469	22,110000	48,325000
2,346030	-526,923736	245,309	-0,298133	22,110000	48,325000
2,337986	-531,548523	245,711	-0,300084	22,110000	48,325000
2,329976	-535,906028	246,113	-0,301923	22,100000	48,305000
2,321991	-540,335271	246,516	-0,303792	22,100000	48,305000
2,314032	-545,484208	246,917	-0,305965	22,100000	48,305000
2,305992	-548,298189	247,318	-0,307153	22,100000	48,305000
2,298000	-552,765616	247,719	-0,309038	22,100000	48,305000
2,290006	-558,322997	248,121	-0,311383	22,100000	48,305000
2,282030	-562,429419	248,521	-0,313116	22,100000	48,305000
2,273985	-566,184094	248,922	-0,314701	22,100000	48,305000
2,266012	-570,800781	249,323	-0,316649	22,100000	48,305000
2,258023	-575,378129	249,723	-0,318581	22,100000	48,305000
2,249996	-579,610671	250,123	-0,320367	22,120000	48,310000
2,242041	-582,863179	250,524	-0,321739	22,120000	48,310000
2,233964	-587,550448	250,925	-0,323717	22,120000	48,310000
2,225986	-591,579347	251,326	-0,325417	22,120000	48,310000
2,218029	-597,575255	251,728	-0,327948	22,120000	48,310000
2,209954	-600,827764	252,129	-0,329320	22,110000	48,310000
2,201985	-605,922319	252,530	-0,331470	22,110000	48,310000
2,194007	-610,923152	252,932	-0,333581	22,110000	48,310000
2,186005	-615,892745	253,332	-0,335678	22,110000	48,310000
2,178019	-620,407611	253,732	-0,337583	22,110000	48,310000
2,170005	-624,310390	254,134	-0,339230	22,110000	48,285000
2,162006	-627,336113	254,535	-0,340507	22,110000	48,285000
2,154030	-631,796597	254,937	-0,342389	22,110000	48,285000
2,145986	-636,686352	255,339	-0,344453	22,110000	48,285000
2,137985	-641,985708	255,741	-0,346689	22,110000	48,285000
2,130034	-646,147669	256,141	-0,348445	22,110000	48,300000
2,121961	-650,928660	256,542	-0,350463	22,110000	48,300000
2,113983	-655,113763	256,944	-0,352229	22,110000	48,300000
2,105988	-661,196451	257,346	-0,354796	22,110000	48,300000
2,098011	-665,522715	257,746	-0,356622	22,110000	48,300000
2,089978	-668,281157	258,147	-0,357786	22,110000	48,300000
2,082010	-672,145753	258,548	-0,359417	22,110000	48,300000
2,073950	-676,534499	258,948	-0,361269	22,110000	48,300000
2,065998	-680,712659	259,348	-0,363032	22,110000	48,300000
2,057978	-685,666053	259,749	-0,365122	22,110000	48,300000
2,049974	-689,898595	260,151	-0,366908	22,110000	48,310000
2,041976	-695,337955	260,553	-0,369204	22,110000	48,310000
2,034018	-700,315647	260,953	-0,371304	22,110000	48,310000
2,025993	-705,104737	261,353	-0,373325	22,110000	48,310000
2,018037	-708,529649	261,755	-0,374771	22,110000	48,310000
2,010001	-713,052614	262,155	-0,376679	22,100000	48,305000
2,002006	-716,132720	262,556	-0,377979	22,100000	48,305000
1,993987	-719,605071	262,956	-0,379444	22,100000	48,305000
1,985932	-724,010016	263,356	-0,381303	22,100000	48,305000
1,978016	-727,701052	263,757	-0,382861	22,100000	48,305000
1,970016	-731,480024	264,159	-0,384456	22,100000	48,305000
1,962008	-736,221675	264,561	-0,386457	22,100000	48,305000
1,954058	-739,669727	264,961	-0,387912	22,100000	48,305000
1,945989	-743,275141	265,361	-0,389433	22,100000	48,305000
1,938000	-747,006674	265,762	-0,391008	22,100000	48,305000
1,930005	-751,403519	266,163	-0,392863	22,120000	48,300000
1,922060	-757,376287	266,563	-0,395384	22,120000	48,300000
1,913963	-759,891745	266,965	-0,396445	22,120000	48,300000
1,906006	-764,462150	267,367	-0,398374	22,120000	48,300000
1,898021	-769,830930	267,767	-0,400640	22,120000	48,300000
1,890012	-772,416969	268,170	-0,401731	22,110000	48,325000
1,881950	-775,623195	268,570	-0,403084	22,110000	48,325000
1,873993	-781,148178	268,970	-0,405416	22,110000	48,325000
1,866015	-784,017698	269,372	-0,406626	22,110000	48,325000
1,858027	-786,830522	269,774	-0,407813	22,110000	48,325000
1,850008	-789,966167	270,175	-0,409137	22,110000	48,310000
1,841984	-792,772049	270,575	-0,410321	22,110000	48,310000
1,834065	-796,150678	270,976	-0,411747	22,110000	48,310000
1,825993	-799,317563	271,377	-0,413083	22,110000	48,310000
1,818027	-802,404612	271,779	-0,414386	22,110000	48,310000
1,810025	-806,622112	272,180	-0,416166	22,100000	48,305000
1,802068	-810,391828	272,583	-0,417756	22,100000	48,305000
1,794063	-814,099063	272,984	-0,419321	22,100000	48,305000
1,786010	-817,728775	273,384	-0,420853	22,100000	48,305000
1,778028	-820,385395	273,785	-0,421974	22,100000	48,305000
1,770009	-824,422393	274,185	-0,423677	22,110000	48,325000
1,761991	-827,596221	274,587	-0,425017	22,110000	48,325000
1,753981	-831,249074	274,988	-0,426558	22,110000	48,325000
1,746020	-836,218667	275,391	-0,428655	22,110000	48,325000
1,738005	-838,702884	275,792	-0,429704	22,110000	48,325000
1,730000	-842,848647	276,193	-0,431453	22,110000	48,310000
1,721992	-845,247242	276,593	-0,432465	22,110000	48,310000
1,713998	-848,249824	276,996	-0,433732	22,110000	48,310000
1,706015	-851,204967	277,398	-0,434979	22,110000	48,310000
1,698037	-854,049032	277,800	-0,436180	22,110000	48,310000
1,689981	-855,938518	278,201	-0,436977	22,110000	48,300000
1,682008	-858,571997	278,601	-0,438088	22,110000	48,300000
1,674011	-860,852571	279,003	-0,439051	22,110000	48,300000
1,666004	-863,344889	279,403	-0,440103	22,110000	48,300000
1,658026	-866,260691	279,803	-0,441333	22,110000	48,300000
1,650013	-870,376370	280,203	-0,443070	22,100000	48,295000
1,641987	-873,385895	280,603	-0,444340	22,100000	48,295000
1,633989	-874,922477	281,006	-0,444988	22,100000	48,295000
1,626041	-878,143744	281,406	-0,446348	22,100000	48,295000
1,617992	-879,570405	281,808	-0,446950	22,100000	48,295000
1,610038	-882,156444	282,210	-0,448041	22,110000	48,300000
1,602047	-884,115355	282,611	-0,448868	22,110000	48,300000
1,594038	-884,673060	283,014	-0,449103	22,110000	48,300000
1,586014	-887,204717	283,415	-0,450171	22,110000	48,300000
1,578010	-890,644670	283,815	-0,451623	22,110000	48,300000
1,570050	-892,698460	284,216	-0,452490	22,110000	48,300000
1,562028	-894,101979	284,616	-0,453082	22,110000	48,300000
1,554033	-894,916553	285,019	-0,453426	22,110000	48,300000
1,546060	-898,741808	285,419	-0,455040	22,110000	48,300000
1,538066	-899,298356	285,819	-0,455275	22,110000	48,300000
1,530010	-896,241391	286,220	-0,453985	22,100000	48,270000
1,522032	-895,355080	286,621	-0,453611	22,100000	48,270000
1,514040	-895,543682	287,021	-0,453690	22,100000	48,270000
1,506064	-895,942869	287,423	-0,453859	22,100000	48,270000
1,498023	-896,124528	287,825	-0,453936	22,100000	48,270000
1,490036	-893,497991	288,226	-0,452827	22,110000	48,340000
1,482017	-895,065814	288,626	-0,453489	22,110000	48,340000
1,474073	-895,935926	289,027	-0,453856	22,110000	48,340000
1,466016	-896,037748	289,428	-0,453899	22,110000	48,340000
1,458002	-894,556705	289,828	-0,453274	22,110000	48,340000
1,450026	-895,261358	290,230	-0,453571	22,110000	48,300000
1,442044	-896,922902	290,630	-0,454272	22,110000	48,300000
1,434063	-898,577505	291,031	-0,454971	22,110000	48,300000
1,426029	-900,293432	291,433	-0,455695	22,110000	48,300000
1,418008	-900,552614	291,833	-0,455804	22,110000	48,300000
1,410013	-903,562139	292,233	-0,457074	22,110000	48,340000
1,402033	-898,929252	292,635	-0,455119	22,110000	48,340000
1,394025	-890,550948	293,037	-0,451583	22,110000	48,340000
1,386036	-881,788498	293,437	-0,447886	22,110000	48,340000
1,378067	-869,662461	293,837	-0,442769	22,110000	48,340000
1,370018	-860,366604	294,239	-0,438846	22,110000	48,300000
1,362007	-848,468509	294,640	-0,433825	22,110000	48,300000
1,354029	-819,326681	295,042	-0,421527	22,110000	48,300000
1,346043	-743,823589	295,443	-0,389665	22,110000	48,300000
1,338037	-0,917552	295,844	-0,076158	22,110000	48,300000
1,330022	-0,925652	296,245	-0,076162	22,110000	48,310000
1,322018	-0,612087	296,647	-0,076029	22,110000	48,310000
1,314021	-0,415386	297,049	-0,075946	22,110000	48,310000
1,306015	-0,658370	297,449	-0,076049	22,110000	48,310000
1,298032	-0,454726	297,850	-0,075963	22,110000	48,310000
1,290008	-0,541506	298,252	-0,076000	22,110000	48,310000
1,282016	-0,510265	298,653	-0,075986	22,110000	48,310000
1,274043	-0,188602	299,055	-0,075851	22,110000	48,310000
1,266023	-0,603988	299,456	-0,076026	22,110000	48,310000
1,258033	-0,510265	299,856	-0,075986	22,110000	48,310000
1,250020	-0,384145	300,258	-0,075933	22,110000	48,300000
1,242001	-0,376046	300,658	-0,075930	22,110000	48,300000
1,234036	-0,282324	301,061	-0,075890	22,110000	48,300000
1,226062	-0,479025	301,461	-0,075973	22,110000	48,300000
1,218029	-0,313564	301,861	-0,075903	22,110000	48,300000
1,210016	-0,336706	302,261	-0,075913	22,110000	48,325000
1,202019	-0,164303	302,662	-0,075840	22,110000	48,325000
1,194029	-0,627129	303,063	-0,076036	22,110000	48,325000
1,186037	-0,236041	303,465	-0,075871	22,110000	48,325000
1,178034	-0,267282	303,866	-0,075884	22,110000	48,325000
1,170026	-0,446627	304,266	-0,075959	22,110000	48,325000
1,162042	-0,118021	304,667	-0,075821	22,110000	48,325000
1,154027	-0,172403	305,067	-0,075844	22,110000	48,325000
1,146029	-0,369104	305,467	-0,075927	22,110000	48,325000
1,138012	-0,321664	305,869	-0,075907	22,110000	48,325000
1,130011	-0,462826	306,270	-0,075966	22,110000	48,260000
1,122076	-0,188602	306,671	-0,075851	22,110000	48,260000
1,114044	-0,454726	307,072	-0,075963	22,110000	48,260000
1,106015	-0,329763	307,474	-0,075910	22,110000	48,260000
1,098040	-0,423486	307,874	-0,075950	22,110000	48,260000
1,090043	-0,392245	308,274	-0,075937	22,110000	48,300000
1,082045	-0,423486	308,676	-0,075950	22,110000	48,300000
1,074043	-0,533407	309,077	-0,075996	22,110000	48,300000
1,066013	-0,306622	309,477	-0,075900	22,110000	48,300000
1,058008	-0,352905	309,877	-0,075920	22,110000	48,300000
1,050069	-0,157361	310,277	-0,075837	22,110000	48,340000
1,042014	-0,047440	310,677	-0,075791	22,110000	48,340000
1,034040	-0,290423	311,078	-0,075894	22,110000	48,340000
1,026060	-0,196701	311,478	-0,075854	22,110000	48,340000
1,018024	-0,298523	311,879	-0,075897	22,110000	48,340000
1,010046	-0,400344	312,279	-0,075940	22,110000	48,340000
1,002081	-0,298523	312,679	-0,075897	22,110000	48,340000
0,994062	-0,313564	313,082	-0,075903	22,110000	48,340000
0,986011	-0,259182	313,484	-0,075880	22,110000	48,340000
0,978065	-0,086780	313,884	-0,075808	22,110000	48,340000
0,970047	-0,141162	314,284	-0,075831	22,110000	48,300000
0,962019	-0,533407	314,685	-0,075996	22,110000	48,300000
0,954065	-0,321664	315,086	-0,075907	22,110000	48,300000
0,945990	-0,211743	315,486	-0,075860	22,110000	48,300000
0,938061	-0,352905	315,888	-0,075920	22,110000	48,300000
0,930066	-0,400344	316,289	-0,075940	22,120000	48,310000
0,922032	-0,313564	316,689	-0,075903	22,120000	48,310000
0,914012	-0,321664	317,089	-0,075907	22,120000	48,310000
0,906010	-0,352905	317,489	-0,075920	22,120000	48,310000
0,898032	-0,259182	317,889	-0,075880	22,120000	48,310000
0,890003	-0,298523	318,289	-0,075897	22,110000	48,325000
0,882052	-0,603988	318,690	-0,076026	22,110000	48,325000
0,874059	-0,384145	319,091	-0,075933	22,110000	48,325000
0,866061	-0,180502	319,491	-0,075847	22,110000	48,325000
0,858065	-0,298523	319,891	-0,075897	22,110000	48,325000
0,850013	-0,454726	320,291	-0,075963	22,110000	48,310000
0,842027	-0,236041	320,692	-0,075871	22,110000	48,310000
0,834009	-0,329763	321,093	-0,075910	22,110000	48,310000
0,826068	-0,306622	321,495	-0,075900	22,110000	48,310000
0,818062	-0,415386	321,896	-0,075946	22,110000	48,310000
0,810050	-0,118021	322,297	-0,075821	22,110000	48,310000
0,802050	-0,063639	322,698	-0,075798	22,110000	48,310000
0,794058	-0,188602	323,101	-0,075851	22,110000	48,310000
0,786020	-0,157361	323,501	-0,075837	22,110000	48,310000
0,777996	-0,298523	323,901	-0,075897	22,110000	48,310000
0,770055	-0,329763	324,302	-0,075910	22,100000	48,305000
0,762078	-0,479025	324,704	-0,075973	22,100000	48,305000
0,754052	-0,180502	325,105	-0,075847	22,100000	48,305000
0,746060	-0,242984	325,507	-0,075874	22,100000	48,305000
0,738047	-0,039340	325,907	-0,075788	22,100000	48,305000
0,730056	-0,251083	326,309	-0,075877	22,110000	48,310000
0,722044	-0,298523	326,709	-0,075897	22,110000	48,310000
0,714030	-0,126120	327,110	-0,075824	22,110000	48,310000
0,706026	-0,172403	327,511	-0,075844	22,110000	48,310000
0,698057	-0,454726	327,911	-0,075963	22,110000	48,310000
0,690050	-0,298523	328,311	-0,075897	22,110000	48,310000
0,682022	-0,282324	328,712	-0,075890	22,110000	48,310000
0,674069	-0,336706	329,112	-0,075913	22,110000	48,310000
0,666038	-0,227942	329,513	-0,075867	22,110000	48,310000
0,658080	-0,336706	329,913	-0,075913	22,110000	48,310000
0,650045	-0,282324	330,313	-0,075890	22,110000	48,300000
0,642041	-0,344805	330,713	-0,075917	22,110000	48,300000
0,634061	0,062481	331,115	-0,075745	22,110000	48,300000
0,626018	-0,236041	331,516	-0,075871	22,110000	48,300000
0,618067	-0,321664	331,916	-0,075907	22,110000	48,300000