File: Nanoindentation Datenauswertung/data/PDMS_10-1/20.09/APM-PDMS10-1-100ms,4,5um,20nms,16cycles,2,5um offset,75%,5x1-1
Quasi static measurement routine
Tip parameters (shape,radius, material...)
20.09.2022

Piezo position[nm]	MEMS displ.[nm]	Time[ms]	Cap [pf]	Temp [°C]	Rh [%]
eoh

X-Pos [um]	Y-Pos [um]
0,000000	0,000431

POC
3,125918
0,648129	-0,361004	2,153	-0,076158	21,890000	45,535000
0,672126	0,031241	3,358	-0,075993	21,880000	45,520000
0,696061	-0,267282	4,561	-0,076119	21,880000	45,520000
0,720104	-0,172403	5,766	-0,076079	21,880000	45,575000
0,744073	-0,055539	6,969	-0,076029	21,880000	45,535000
0,768105	-0,062481	8,169	-0,076032	21,880000	45,535000
0,792070	0,038183	9,374	-0,075990	21,890000	45,575000
0,816022	-0,165460	10,576	-0,076076	21,890000	45,575000
0,840080	0,015042	11,777	-0,076000	21,890000	45,545000
0,864096	-0,070581	12,980	-0,076036	21,890000	45,545000
0,888079	0,046283	14,181	-0,075986	21,890000	45,545000
0,912056	-0,109921	15,381	-0,076052	21,880000	45,575000
0,936060	0,046283	16,585	-0,075986	21,880000	45,575000
0,960059	0,336706	17,788	-0,075864	21,880000	45,575000
0,984097	-0,055539	18,989	-0,076029	21,890000	45,535000
1,008083	-0,118021	20,190	-0,076056	21,890000	45,535000
1,032025	-0,180502	21,395	-0,076082	21,880000	45,575000
1,056086	0,116864	22,595	-0,075957	21,880000	45,575000
1,080081	-0,172403	23,800	-0,076079	21,890000	45,560000
1,104112	-0,055539	25,003	-0,076029	21,890000	45,560000
1,128054	-0,062481	26,206	-0,076032	21,890000	45,560000
1,152057	-0,126120	27,410	-0,076059	21,880000	45,535000
1,176055	-0,227942	28,613	-0,076102	21,880000	45,535000
1,200081	0,038183	29,816	-0,075990	21,890000	45,535000
1,224107	-0,157361	31,019	-0,076072	21,890000	45,535000
1,248062	-0,016199	32,223	-0,076013	21,890000	45,535000
1,272035	-0,024298	33,428	-0,076016	21,880000	45,545000
1,296093	0,148104	34,631	-0,075943	21,880000	45,545000
1,320039	0,008099	35,833	-0,076002	21,880000	45,545000
1,344081	-0,141162	37,034	-0,076065	21,890000	45,575000
1,368023	-0,016199	38,237	-0,076013	21,890000	45,575000
1,392076	-0,211743	39,440	-0,076095	21,880000	45,545000
1,416072	-0,149261	40,641	-0,076069	21,880000	45,545000
1,440059	-0,094879	41,845	-0,076046	21,890000	45,560000
1,464057	-0,101822	43,047	-0,076049	21,890000	45,585000
1,488035	0,062481	44,247	-0,075979	21,890000	45,585000
1,512040	-0,234884	45,450	-0,076105	21,890000	45,560000
1,536045	-0,165460	46,651	-0,076076	21,890000	45,560000
1,560040	-0,055539	47,853	-0,076029	21,890000	45,560000
1,584007	-0,016199	49,055	-0,076013	21,890000	45,535000
1,608015	-0,024298	50,258	-0,076016	21,890000	45,535000
1,632018	0,148104	51,460	-0,075943	21,890000	45,535000
1,656088	-0,251083	52,663	-0,076112	21,890000	45,535000
1,680065	-0,267282	53,865	-0,076119	21,890000	45,545000
1,704074	-0,157361	55,069	-0,076072	21,890000	45,560000
1,728030	-0,070581	56,271	-0,076036	21,890000	45,560000
1,752040	-0,251083	57,473	-0,076112	21,880000	45,520000
1,776034	0,148104	58,677	-0,075943	21,880000	45,520000
1,800062	-0,267282	59,881	-0,076119	21,880000	45,520000
1,824064	0,054382	61,084	-0,075983	21,880000	45,535000
1,847998	-0,313564	62,288	-0,076138	21,880000	45,535000
1,872027	-0,078680	63,491	-0,076039	21,890000	45,560000
1,895995	-0,282324	64,693	-0,076125	21,890000	45,560000
1,920061	0,000000	65,895	-0,076006	21,890000	45,560000
1,944001	-0,101822	67,097	-0,076049	21,880000	45,535000
1,968016	-0,055539	68,303	-0,076029	21,880000	45,535000
1,992009	-0,101822	69,503	-0,076049	21,880000	45,575000
2,016044	-0,313564	70,705	-0,076138	21,880000	45,575000
2,039993	-0,180502	71,908	-0,076082	21,880000	45,575000
2,064057	0,000000	73,110	-0,076006	21,890000	45,560000
2,088000	-0,165460	74,311	-0,076076	21,890000	45,560000
2,112000	0,008099	75,514	-0,076002	21,890000	45,545000
2,136049	-0,211743	76,718	-0,076095	21,890000	45,545000
2,160021	-0,227942	77,922	-0,076102	21,890000	45,545000
2,183995	-0,227942	79,123	-0,076102	21,890000	45,560000
2,207963	-0,031241	80,325	-0,076019	21,890000	45,560000
2,232029	-0,267282	81,531	-0,076119	21,890000	45,560000
2,256010	-0,188602	82,734	-0,076085	21,890000	45,560000
2,280000	-0,242984	83,938	-0,076108	21,890000	45,545000
2,304031	-0,118021	85,144	-0,076056	21,890000	45,545000
2,327965	-0,556548	86,348	-0,076241	21,890000	45,545000
2,351972	-0,274224	87,551	-0,076122	21,890000	45,560000
2,375966	0,015042	88,755	-0,076000	21,890000	45,560000
2,399986	-0,134219	89,957	-0,076063	21,880000	45,535000
2,423969	-0,415386	91,157	-0,076181	21,880000	45,535000
2,448034	-0,290423	92,359	-0,076128	21,880000	45,535000
2,471948	-0,242984	93,560	-0,076108	21,890000	45,575000
2,495995	-0,259182	94,783	-0,076115	21,890000	45,575000
2,520003	-0,282324	95,987	-0,076125	21,880000	45,535000
2,544036	-0,462826	97,191	-0,076201	21,880000	45,545000
2,568001	-0,361004	98,393	-0,076158	21,880000	45,545000
2,591992	-0,259182	99,595	-0,076115	21,880000	45,545000
2,615990	-0,352905	100,798	-0,076155	21,880000	45,545000
2,639965	-0,423486	102,001	-0,076185	21,880000	45,560000
2,664008	-0,533407	103,206	-0,076231	21,890000	45,535000
2,688019	-0,400344	104,409	-0,076175	21,890000	45,535000
2,712025	-0,572747	105,615	-0,076248	21,890000	45,535000
2,735943	-0,407287	106,820	-0,076178	21,890000	45,535000
2,759996	-203,998584	108,024	-0,162093	21,890000	45,545000
2,784034	-196,827098	109,229	-0,159067	21,890000	45,545000
2,808032	-186,544265	110,432	-0,154728	21,890000	45,545000
2,832007	-173,791099	111,634	-0,149346	21,890000	45,560000
2,855976	-160,482542	112,837	-0,143729	21,890000	45,560000
2,880015	-146,899761	114,038	-0,137998	21,890000	45,535000
2,903998	-133,300781	115,241	-0,132259	21,890000	45,535000
2,927980	-119,176494	116,443	-0,126298	21,890000	45,535000
2,951932	-103,720425	117,645	-0,119776	21,890000	45,520000
2,975999	-90,920977	118,846	-0,114375	21,890000	45,520000
2,999991	-76,538664	120,050	-0,108305	21,880000	45,585000
3,024005	-62,138996	121,253	-0,102229	21,880000	45,585000
3,047962	-47,436176	122,457	-0,096024	21,880000	45,585000
3,071982	-32,716001	123,658	-0,089812	21,890000	45,585000
3,095972	-16,404862	124,861	-0,082929	21,890000	45,585000
3,119925	-2,101229	126,063	-0,076893	21,890000	45,535000
3,143995	12,242900	127,267	-0,070839	21,890000	45,535000
3,167972	26,735134	128,471	-0,064724	21,890000	45,535000
3,192007	42,176161	129,676	-0,058208	21,890000	45,560000
3,215956	57,561648	130,878	-0,051715	21,890000	45,560000
3,239975	72,045783	132,079	-0,045603	21,880000	45,560000
3,249940	78,497575	133,283	-0,042880	21,880000	45,560000
3,249879	77,908629	134,486	-0,043128	21,880000	45,560000
3,249875	76,749250	135,689	-0,043618	21,890000	45,585000
3,249908	76,490068	136,891	-0,043727	21,890000	45,585000
3,249947	75,989059	138,092	-0,043938	21,890000	45,585000
3,249960	75,518134	139,297	-0,044137	21,890000	45,545000
3,249950	75,189527	140,498	-0,044276	21,890000	45,545000
3,249907	74,930345	141,698	-0,044385	21,880000	45,560000
3,243932	71,411711	142,903	-0,045870	21,880000	45,560000
3,219939	53,235384	144,105	-0,053541	21,880000	45,560000
3,241892	67,978701	145,239	-0,047319	21,890000	45,560000
3,265903	85,935186	146,439	-0,039741	21,890000	45,560000
3,289969	100,576681	147,639	-0,033563	21,890000	45,560000
3,313939	117,992817	148,839	-0,026213	21,890000	45,560000
3,337911	133,793691	150,044	-0,019545	21,880000	45,520000
3,361939	148,528908	151,249	-0,013327	21,880000	45,560000
3,373930	156,594805	152,449	-0,009923	21,880000	45,560000
3,373866	155,740892	153,652	-0,010283	21,880000	45,560000
3,373896	155,050124	154,861	-0,010575	21,880000	45,560000
3,373904	154,760858	156,064	-0,010697	21,880000	45,560000
3,373932	154,376712	157,267	-0,010859	21,880000	45,560000
3,373932	154,063148	158,470	-0,010991	21,880000	45,560000
3,373917	154,109431	159,675	-0,010972	21,890000	45,535000
3,373933	153,718343	160,879	-0,011137	21,890000	45,535000
3,369932	152,447886	162,082	-0,011673	21,890000	45,535000
3,345930	134,875546	163,288	-0,019088	21,880000	45,545000
3,321894	118,275141	164,490	-0,026094	21,880000	45,545000
3,323909	118,799291	165,625	-0,025873	21,880000	45,545000
3,347938	134,836206	166,827	-0,019105	21,880000	45,545000
3,371893	152,565906	168,033	-0,011623	21,890000	45,560000
3,395881	168,594722	169,236	-0,004859	21,890000	45,560000
3,419909	183,940869	170,438	0,001617	21,890000	45,560000
3,443867	200,071507	171,641	0,008424	21,880000	45,545000
3,467923	215,528732	172,843	0,014947	21,880000	45,545000
3,491904	231,243983	174,045	0,021579	21,880000	45,545000
3,497919	235,507766	175,247	0,023378	21,890000	45,545000
3,497864	234,895679	176,449	0,023120	21,890000	45,545000
3,497883	234,409712	177,653	0,022915	21,890000	45,545000
3,497893	233,775641	178,854	0,022647	21,890000	45,545000
3,497895	233,649521	180,056	0,022594	21,890000	45,520000
3,497892	233,657620	181,260	0,022598	21,890000	45,545000
3,497901	233,445877	182,464	0,022508	21,890000	45,545000
3,497878	233,234134	183,664	0,022419	21,890000	45,545000
3,487885	226,164470	184,868	0,019436	21,890000	45,545000
3,463865	209,234301	186,068	0,012291	21,880000	45,535000
3,439917	193,151103	187,268	0,005504	21,880000	45,535000
3,415881	176,025391	188,468	-0,001723	21,880000	45,535000
3,417932	177,749417	189,602	-0,000996	21,880000	45,535000
3,441865	194,412304	190,804	0,006036	21,880000	45,535000
3,465913	210,660962	192,008	0,012893	21,890000	45,545000
3,489899	226,399354	193,213	0,019535	21,890000	45,535000
3,513838	242,639912	194,416	0,026388	21,890000	45,535000
3,537846	260,008609	195,619	0,033718	21,890000	45,560000
3,561858	275,708818	196,819	0,040343	21,890000	45,560000
3,585860	291,807057	198,022	0,047137	21,890000	45,560000
3,609831	307,090723	199,226	0,053586	21,890000	45,560000
3,621821	315,462085	200,428	0,057119	21,890000	45,560000
3,621851	314,458910	201,631	0,056696	21,880000	45,560000
3,621853	314,271466	202,834	0,056617	21,880000	45,560000
3,621841	313,613096	204,039	0,056339	21,880000	45,560000
3,621878	313,134071	205,241	0,056137	21,880000	45,575000
3,621854	313,048449	206,443	0,056101	21,880000	45,575000
3,621878	312,578680	207,644	0,055902	21,890000	45,575000
3,621871	312,554382	208,848	0,055892	21,890000	45,575000
3,617916	310,124546	210,055	0,054867	21,890000	45,575000
3,593906	292,826431	211,257	0,047567	21,890000	45,535000
3,569884	276,617113	212,461	0,040727	21,890000	45,535000
3,545840	260,133572	213,664	0,033771	21,880000	45,560000
3,521915	243,838631	214,870	0,026894	21,880000	45,560000
3,497931	226,696719	216,074	0,019660	21,890000	45,545000
3,519925	241,063990	217,217	0,025723	21,890000	45,545000
3,543915	257,908536	218,422	0,032832	21,890000	45,545000
3,567936	275,989984	219,627	0,040462	21,880000	45,575000
3,591873	291,815157	220,830	0,047140	21,880000	45,575000
3,615903	307,530408	222,037	0,053772	21,880000	45,560000
3,639928	325,056465	223,240	0,061168	21,890000	45,545000
3,663825	340,190869	224,444	0,067555	21,890000	45,545000
3,687820	356,674411	225,646	0,074511	21,880000	45,545000
3,711876	372,405861	226,851	0,081149	21,880000	45,545000
3,735843	388,121112	228,053	0,087781	21,880000	45,560000
3,745870	395,676744	229,259	0,090970	21,880000	45,575000
3,745841	394,798532	230,461	0,090599	21,880000	45,575000
3,745875	394,406287	231,663	0,090434	21,880000	45,575000
3,745854	393,880980	232,868	0,090212	21,880000	45,575000
3,745848	393,897179	234,072	0,090219	21,880000	45,535000
3,745856	393,215668	235,275	0,089931	21,890000	45,520000
3,745897	392,956485	236,477	0,089822	21,890000	45,520000
3,745860	392,634821	237,680	0,089686	21,880000	45,560000
3,739894	389,546616	238,884	0,088383	21,880000	45,560000
3,715864	372,397762	240,089	0,081146	21,890000	45,545000
3,691860	354,142754	241,292	0,073442	21,880000	45,560000
3,667856	337,870955	242,496	0,066576	21,880000	45,560000
3,643895	322,101322	243,698	0,059921	21,880000	45,560000
3,619844	305,821423	244,898	0,053051	21,880000	45,560000
3,595892	287,818656	246,100	0,045454	21,890000	45,545000
3,609886	297,802966	247,236	0,049667	21,890000	45,545000
3,633847	314,568831	248,440	0,056742	21,890000	45,545000
3,657891	331,380980	249,642	0,063837	21,890000	45,545000
3,681844	347,989485	250,843	0,070846	21,890000	45,545000
3,705884	365,766625	252,045	0,078348	21,890000	45,545000
3,729806	380,995909	253,247	0,084774	21,890000	45,545000
3,753891	398,356505	254,448	0,092101	21,890000	45,545000
3,777801	413,993076	255,651	0,098699	21,890000	45,560000
3,801870	430,296116	256,856	0,105579	21,890000	45,560000
3,825823	448,073256	258,059	0,113081	21,890000	45,535000
3,849894	463,749167	259,264	0,119696	21,880000	45,575000
3,869831	477,136404	260,467	0,125346	21,880000	45,575000
3,869819	476,384312	261,669	0,125028	21,880000	45,560000
3,869833	475,780324	262,871	0,124773	21,880000	45,560000
3,869789	475,482959	264,074	0,124648	21,880000	45,560000
3,869832	474,878971	265,277	0,124393	21,880000	45,545000
3,869792	474,581605	266,480	0,124268	21,880000	45,545000
3,869874	474,502925	267,683	0,124234	21,880000	45,545000
3,869819	473,757775	268,888	0,123920	21,880000	45,545000
3,869832	474,033157	270,088	0,124036	21,880000	45,575000
3,849809	459,242400	271,291	0,117794	21,880000	45,575000
3,825807	443,519050	272,494	0,111159	21,880000	45,575000
3,801821	426,659462	273,698	0,104044	21,890000	45,560000
3,777855	409,706152	274,903	0,096890	21,890000	45,560000
3,753878	391,670986	276,108	0,089279	21,880000	45,575000
3,729862	376,771466	277,310	0,082992	21,880000	45,545000
3,705820	359,307890	278,515	0,075622	21,880000	45,545000
3,683866	343,522058	279,717	0,068960	21,880000	45,560000
3,707809	360,489253	280,853	0,076121	21,880000	45,560000
3,731892	377,789683	282,057	0,083421	21,880000	45,560000
3,755853	394,343806	283,258	0,090407	21,880000	45,560000
3,779820	412,715677	284,462	0,098160	21,880000	45,560000
3,803815	427,851239	285,663	0,104547	21,880000	45,560000
3,827855	445,510358	286,866	0,112000	21,880000	45,560000
3,851841	461,264949	288,071	0,118648	21,880000	45,560000
3,875868	477,732292	289,273	0,125597	21,890000	45,560000
3,899741	493,917312	290,475	0,132427	21,890000	45,560000
3,923799	510,157870	291,678	0,139281	21,880000	45,545000
3,947778	527,973193	292,881	0,146799	21,880000	45,545000
3,971789	543,759025	294,085	0,153460	21,880000	45,545000
3,993780	558,815906	295,290	0,159814	21,890000	45,545000
3,993771	557,860171	296,491	0,159411	21,890000	45,545000
3,993779	557,420487	297,695	0,159226	21,880000	45,575000
3,993818	556,895179	298,898	0,159004	21,880000	45,575000
3,993785	556,362930	300,102	0,158779	21,880000	45,575000
3,993760	555,923245	301,305	0,158594	21,890000	45,545000
3,993814	555,970685	302,509	0,158614	21,890000	45,545000
3,993770	555,813324	303,711	0,158547	21,890000	45,545000
3,993791	555,507859	304,911	0,158418	21,890000	45,545000
3,975815	543,681502	306,114	0,153428	21,890000	45,560000
3,951788	526,084864	307,320	0,146002	21,890000	45,560000
3,927761	509,460160	308,521	0,138986	21,890000	45,560000
3,903770	492,396929	309,723	0,131786	21,880000	45,545000
3,879815	474,173162	310,924	0,124095	21,880000	45,545000
3,855810	459,053799	312,128	0,117715	21,880000	45,545000
3,831771	441,042932	313,330	0,110114	21,890000	45,560000
3,807807	424,927336	314,532	0,103313	21,890000	45,560000
3,783784	409,188944	315,735	0,096672	21,880000	45,545000
3,793846	416,188028	316,868	0,099625	21,880000	45,545000
3,817785	433,236217	318,070	0,106820	21,880000	45,545000
3,841827	449,828523	319,273	0,113822	21,880000	45,575000
3,865804	466,328264	320,476	0,120785	21,880000	45,575000
3,889849	483,053632	321,678	0,127843	21,890000	45,545000
3,913807	501,254258	322,879	0,135523	21,890000	45,545000
3,937777	517,894004	324,081	0,142545	21,880000	45,545000
3,961804	533,272549	325,282	0,149035	21,880000	45,560000
3,985790	550,272142	326,488	0,156209	21,880000	45,560000
4,009798	565,736310	327,690	0,162735	21,890000	45,545000
4,033777	584,078097	328,891	0,170475	21,890000	45,545000
4,057827	598,578430	330,094	0,176594	21,890000	45,535000
4,081758	616,221351	331,301	0,184040	21,890000	45,560000
4,105812	631,458734	332,506	0,190470	21,890000	45,560000
4,117806	640,777733	333,713	0,194402	21,880000	45,575000
4,117763	639,915719	334,919	0,194039	21,880000	45,575000
4,117760	639,602155	336,125	0,193906	21,890000	45,560000
4,117817	639,060649	337,327	0,193678	21,890000	45,560000
4,117781	638,896346	338,527	0,193608	21,890000	45,560000
4,117879	638,520300	339,730	0,193450	21,890000	45,560000
4,117841	638,198636	340,934	0,193314	21,890000	45,560000
4,117793	638,057474	342,138	0,193254	21,890000	45,575000
4,113756	636,662054	343,342	0,192666	21,880000	45,560000
4,089794	618,807390	344,545	0,185131	21,880000	45,560000
4,065809	600,310556	345,749	0,177325	21,880000	45,545000
4,041804	584,258599	346,953	0,170551	21,880000	45,545000
4,017788	566,990568	348,156	0,163264	21,880000	45,545000
3,993759	550,578764	349,356	0,156338	21,880000	45,545000
3,969828	533,860338	350,558	0,149283	21,880000	45,545000
3,945843	516,239401	351,763	0,141847	21,880000	45,560000
3,921818	500,939536	352,967	0,135391	21,880000	45,560000
3,897820	483,688861	354,170	0,128111	21,890000	45,575000
3,873792	467,385821	355,373	0,121231	21,890000	45,575000
3,887820	477,223184	356,508	0,125382	21,890000	45,575000
3,911855	494,058473	357,710	0,132487	21,890000	45,560000
3,935799	511,286008	358,910	0,139757	21,890000	45,560000
3,959796	528,091214	360,115	0,146849	21,890000	45,560000
3,983785	544,824682	361,316	0,153910	21,880000	45,535000
4,007842	562,609921	362,519	0,161416	21,880000	45,535000
4,031766	578,285832	363,722	0,168031	21,880000	45,535000
4,055861	595,756350	364,925	0,175403	21,880000	45,535000
4,079734	611,926327	366,128	0,182227	21,890000	45,535000
4,103834	629,546107	367,328	0,189663	21,890000	45,535000
4,127822	646,342056	368,532	0,196750	21,890000	45,535000
4,151765	661,751842	369,737	0,203253	21,880000	45,560000
4,175778	678,698210	370,940	0,210405	21,880000	45,560000
4,199785	694,169320	372,145	0,216934	21,890000	45,520000
4,223817	710,684103	373,347	0,223903	21,890000	45,520000
4,241772	724,150020	374,552	0,229585	21,890000	45,520000
4,241763	723,468509	375,755	0,229298	21,890000	45,560000
4,241840	722,582198	376,957	0,228924	21,890000	45,560000
4,241766	722,480376	378,159	0,228881	21,880000	45,560000
4,241775	721,822006	379,363	0,228603	21,880000	45,560000
4,241710	722,081189	380,569	0,228712	21,880000	45,560000
4,241767	721,454060	381,772	0,228448	21,880000	45,560000
4,241738	721,344139	382,979	0,228401	21,880000	45,545000
4,241780	721,061815	384,184	0,228282	21,880000	45,545000
4,219738	705,024900	385,388	0,221515	21,880000	45,545000
4,195766	688,565656	386,593	0,214569	21,880000	45,545000
4,171813	671,659786	387,796	0,207435	21,880000	45,535000
4,147809	654,572256	388,999	0,200224	21,880000	45,535000
4,123773	637,704569	390,204	0,193105	21,880000	45,535000
4,099750	620,046607	391,408	0,185654	21,890000	45,585000
4,075773	603,766708	392,611	0,178784	21,890000	45,585000
4,051872	587,769133	393,815	0,172033	21,890000	45,585000
4,027853	570,878305	395,015	0,164905	21,880000	45,545000
4,003842	554,051114	396,220	0,157804	21,880000	45,545000
3,979811	537,528232	397,424	0,150831	21,890000	45,545000
3,969804	528,585280	398,582	0,147057	21,890000	45,545000
3,993798	547,771725	399,783	0,155154	21,880000	45,560000
4,017775	564,294607	400,988	0,162126	21,890000	45,560000
4,041841	580,957494	402,190	0,169158	21,890000	45,560000
4,065798	598,028825	403,393	0,176362	21,890000	45,560000
4,089801	614,896512	404,597	0,183480	21,890000	45,560000
4,113831	631,654278	405,801	0,190552	21,890000	45,585000
4,137816	648,661971	407,005	0,197729	21,880000	45,560000
4,161770	666,682094	408,208	0,205334	21,880000	45,560000
4,185823	682,318665	409,410	0,211933	21,880000	45,560000
4,209787	699,624880	410,615	0,219236	21,880000	45,560000
4,233778	716,453227	411,815	0,226337	21,880000	45,560000
4,257767	732,137237	413,019	0,232956	21,890000	45,560000
4,281755	750,149261	414,223	0,240557	21,890000	45,560000
4,305748	765,221184	415,427	0,246917	21,890000	45,560000
4,329794	781,617947	416,630	0,253837	21,890000	45,560000
4,353802	799,997917	417,834	0,261593	21,890000	45,575000
4,365751	807,295524	419,038	0,264673	21,890000	45,545000
4,365753	806,942619	420,241	0,264524	21,890000	45,545000
4,365754	806,143087	421,443	0,264187	21,890000	45,545000
4,365798	805,908203	422,647	0,264087	21,890000	45,545000
4,365732	806,057464	423,849	0,264150	21,890000	45,545000
4,365760	805,798282	425,053	0,264041	21,890000	45,545000
4,365754	804,911971	426,254	0,263667	21,890000	45,545000
4,365730	804,959410	427,458	0,263687	21,880000	45,560000
4,361734	801,690703	428,661	0,262308	21,880000	45,560000
4,337762	784,635571	429,863	0,255110	21,880000	45,560000
4,313763	768,018967	431,066	0,248098	21,880000	45,560000
4,289785	750,743993	432,269	0,240808	21,880000	45,560000
4,265731	733,531500	433,470	0,233544	21,890000	45,560000
4,241823	715,050865	434,673	0,225746	21,890000	45,560000
4,217799	699,711660	435,878	0,219272	21,890000	45,545000
4,193771	682,169404	437,081	0,211870	21,890000	45,560000
4,169771	664,871288	438,286	0,204570	21,890000	45,560000
4,145811	647,855497	439,490	0,197389	21,890000	45,560000
4,121833	631,536258	440,695	0,190502	21,890000	45,560000
4,097825	615,664803	441,897	0,183805	21,890000	45,535000
4,073850	598,915136	443,101	0,176736	21,890000	45,545000
4,059834	587,644170	444,237	0,171980	21,890000	45,545000
4,083804	606,776233	445,439	0,180054	21,890000	45,545000
4,107883	624,239809	446,641	0,187423	21,890000	45,545000
4,131804	640,080023	447,847	0,194108	21,890000	45,560000
4,155751	657,268217	449,053	0,201361	21,890000	45,545000
4,179795	674,198386	450,255	0,208506	21,890000	45,545000
4,203824	691,003592	451,461	0,215598	21,890000	45,585000
4,227784	709,321081	452,665	0,223328	21,890000	45,585000
4,251865	724,432344	453,867	0,229705	21,880000	45,545000
4,275874	741,605497	455,071	0,236952	21,890000	45,535000
4,299745	757,962918	456,275	0,243854	21,890000	45,535000
4,323814	776,280408	457,479	0,251584	21,890000	45,560000
4,347709	791,940120	458,683	0,258193	21,890000	45,560000
4,371771	809,897762	459,885	0,265771	21,890000	45,585000
4,395799	826,153362	461,086	0,272631	21,890000	45,585000
4,419761	841,664970	462,288	0,279177	21,890000	45,585000
4,443756	859,903779	463,491	0,286874	21,890000	45,545000
4,467763	876,661545	464,697	0,293945	21,890000	45,545000
4,489768	891,670986	465,898	0,300279	21,890000	45,545000
4,489733	890,644670	467,101	0,299846	21,890000	45,560000
4,489792	890,119363	468,304	0,299625	21,890000	45,560000
4,489729	889,750259	469,508	0,299469	21,880000	45,560000
4,489798	889,507276	470,714	0,299366	21,880000	45,560000
4,489766	889,123130	471,916	0,299204	21,880000	45,560000
4,489743	889,014366	473,120	0,299158	21,890000	45,545000
4,489740	888,802623	474,323	0,299069	21,890000	45,545000
4,489713	888,779482	475,525	0,299059	21,890000	45,560000
4,471747	875,031241	476,726	0,293257	21,890000	45,560000
4,447789	857,567665	477,928	0,285888	21,880000	45,560000
4,423766	840,340131	479,130	0,278618	21,890000	45,545000
4,399765	824,248834	480,334	0,271827	21,890000	45,545000
4,375784	807,067582	481,540	0,264577	21,890000	45,575000
4,351782	790,302873	482,745	0,257502	21,890000	45,575000
4,327802	771,812981	483,946	0,249699	21,880000	45,545000
4,303829	754,922153	485,150	0,242571	21,890000	45,560000
4,279777	738,642254	486,354	0,235701	21,890000	45,560000
4,255773	722,527816	487,559	0,228901	21,880000	45,545000
4,231835	703,990484	488,762	0,221078	21,880000	45,545000
4,207812	687,375037	489,966	0,214066	21,880000	45,545000
4,183864	671,706069	491,172	0,207454	21,890000	45,545000
4,159891	654,078190	492,374	0,200015	21,890000	45,545000
4,161821	655,136904	493,508	0,200462	21,880000	45,545000
4,185823	672,779824	494,714	0,207907	21,880000	45,545000
4,209829	691,755684	495,917	0,215915	21,890000	45,560000
4,233831	709,101239	497,119	0,223235	21,890000	45,560000
4,257782	725,427420	498,325	0,230125	21,890000	45,560000
4,281792	743,416303	499,526	0,237716	21,890000	45,545000
4,305759	760,377712	500,730	0,244874	21,890000	45,545000
4,329799	775,669478	501,936	0,251327	21,890000	45,560000
4,353793	793,563481	503,140	0,258878	21,890000	45,560000
4,377792	810,171986	504,342	0,265887	21,890000	45,560000
4,401805	826,913553	505,547	0,272952	21,890000	45,560000
4,425765	845,081781	506,748	0,280619	21,890000	45,560000
4,449765	861,745825	507,949	0,287651	21,880000	45,560000
4,473741	878,291849	509,154	0,294633	21,880000	45,535000
4,497769	894,007100	510,359	0,301265	21,880000	45,535000
4,521707	910,788007	511,561	0,308347	21,890000	45,575000
4,545680	928,987476	512,766	0,316027	21,890000	45,575000
4,569721	945,643420	513,968	0,323056	21,890000	45,575000
4,593728	961,358672	515,172	0,329688	21,880000	45,535000
4,613684	976,023308	516,374	0,335876	21,880000	45,535000
4,613675	975,458660	517,580	0,335638	21,890000	45,560000
4,613700	974,652186	518,784	0,335297	21,890000	45,560000
4,613739	974,345564	519,988	0,335168	21,890000	45,560000
4,613714	973,734634	521,189	0,334910	21,890000	45,560000
4,613770	973,961419	522,397	0,335006	21,890000	45,560000
4,613702	973,562232	523,603	0,334837	21,880000	45,585000
4,613684	973,240568	524,807	0,334702	21,880000	45,585000
4,613691	972,911961	526,010	0,334563	21,880000	45,545000
4,593731	958,019383	527,213	0,328278	21,880000	45,545000
4,569717	940,384562	528,418	0,320836	21,880000	45,545000
4,545713	924,536249	529,623	0,314148	21,890000	45,560000
4,521699	905,818415	530,826	0,306250	21,890000	45,560000
4,497740	888,622121	532,029	0,298993	21,880000	45,560000
4,473726	872,742567	533,231	0,292292	21,890000	45,560000
4,449722	854,934186	534,434	0,284776	21,890000	45,560000
4,425734	837,173245	535,640	0,277281	21,890000	45,560000
4,401760	822,101322	536,843	0,270921	21,890000	45,560000
4,377734	804,826348	538,045	0,263631	21,880000	45,585000
4,353796	788,421486	539,249	0,256708	21,880000	45,585000
4,329759	771,264533	540,452	0,249468	21,880000	45,585000
4,305773	754,592389	541,653	0,242432	21,880000	45,560000
4,281792	737,701561	542,854	0,235304	21,880000	45,560000
4,257786	720,733209	544,058	0,228144	21,890000	45,575000
4,247791	711,506776	545,195	0,224250	21,890000	45,575000
4,271804	729,887904	546,400	0,232007	21,890000	45,575000
4,295786	747,342223	547,600	0,239373	21,890000	45,560000
4,319727	766,208161	548,803	0,247334	21,890000	45,560000
4,343771	782,284416	550,007	0,254118	21,890000	45,545000
4,367757	799,496908	551,207	0,261382	21,890000	45,545000
4,391746	817,860680	552,413	0,269131	21,890000	45,545000
4,415736	833,411628	553,615	0,275694	21,890000	45,560000
4,439738	851,995242	554,819	0,283536	21,890000	45,560000
4,463740	868,846731	556,021	0,290647	21,890000	45,545000
4,487758	885,722517	557,224	0,297769	21,890000	45,545000
4,511739	902,526566	558,426	0,304860	21,890000	45,545000
4,535767	919,566656	559,632	0,312051	21,890000	45,545000
4,559727	936,245742	560,837	0,319090	21,890000	45,545000
4,583736	953,152770	562,040	0,326225	21,880000	45,560000
4,607689	970,066739	563,243	0,333362	21,890000	45,560000
4,631688	986,824506	564,447	0,340434	21,890000	45,560000
4,655695	1002,562898	565,651	0,347076	21,890000	45,560000
4,679701	1018,959660	566,856	0,353995	21,890000	45,560000
4,703724	1035,646845	568,061	0,361037	21,890000	45,545000
4,727649	1053,862513	569,263	0,368724	21,880000	45,535000
4,737664	1061,057140	570,466	0,371760	21,880000	45,535000
4,737613	1060,305049	571,668	0,371443	21,880000	45,535000
4,737665	1059,850322	572,870	0,371251	21,880000	45,535000
4,737670	1059,364355	574,073	0,371046	21,880000	45,575000
4,737639	1058,784666	575,278	0,370801	21,890000	45,560000
4,737631	1058,674745	576,482	0,370755	21,890000	45,560000
4,737641	1058,502342	577,685	0,370682	21,890000	45,535000
4,737664	1058,439860	578,890	0,370656	21,890000	45,535000
4,731637	1054,787008	580,090	0,369114	21,880000	45,545000
4,707735	1036,540099	581,295	0,361414	21,890000	45,560000
4,683673	1019,900354	582,497	0,354392	21,890000	45,560000
4,659699	1001,364179	583,700	0,346570	21,890000	45,560000
4,635678	983,587039	584,902	0,339068	21,890000	45,560000
4,611729	967,558223	586,104	0,332304	21,880000	45,560000
4,587724	950,322590	587,307	0,325030	21,880000	45,560000
4,563707	932,835873	588,510	0,317651	21,880000	45,560000
4,539696	915,725202	589,713	0,310430	21,880000	45,560000
4,515745	899,031074	590,915	0,303385	21,880000	45,560000
4,491721	880,744826	592,119	0,295668	21,880000	45,560000
4,467780	863,548532	593,326	0,288412	21,890000	45,535000
4,443765	847,652779	594,528	0,281704	21,890000	45,535000
4,419774	830,518967	595,729	0,274473	21,880000	45,535000
4,395748	813,134071	596,937	0,267137	21,880000	45,535000
4,371763	796,180761	598,138	0,259982	21,890000	45,545000
4,347756	781,250000	599,342	0,253682	21,890000	45,545000
4,345762	779,164970	600,475	0,252802	21,890000	45,545000
4,369763	797,215177	601,678	0,260419	21,890000	45,545000
4,393775	814,130304	602,880	0,267557	21,890000	45,545000
4,417775	830,793191	604,082	0,274589	21,880000	45,560000
4,441745	847,920061	605,284	0,281816	21,890000	45,520000
4,465805	866,754758	606,487	0,289765	21,890000	45,520000
4,489729	883,644429	607,692	0,296892	21,890000	45,545000
4,513722	899,884988	608,897	0,303746	21,890000	45,545000
4,537744	916,509692	610,101	0,310761	21,890000	45,545000
4,561719	934,559899	611,303	0,318378	21,890000	45,545000
4,585763	951,240142	612,504	0,325417	21,890000	45,545000
4,609725	967,503841	613,706	0,332281	21,880000	45,545000
4,633683	985,437185	614,907	0,339849	21,880000	45,545000
4,657708	1001,489142	616,110	0,346623	21,880000	45,545000
4,681747	1018,356829	617,316	0,353741	21,890000	45,545000
4,705614	1035,137737	618,520	0,360822	21,890000	45,545000
4,729672	1052,130387	619,721	0,367993	21,880000	45,535000
4,753656	1070,823923	620,921	0,375882	21,880000	45,535000
4,777644	1087,526150	622,122	0,382930	21,890000	45,535000
4,801654	1104,472517	623,325	0,390082	21,890000	45,535000
4,825654	1119,481959	624,529	0,396416	21,890000	45,535000
4,849623	1137,493983	625,729	0,404017	21,890000	45,575000
4,861596	1145,793607	626,933	0,407519	21,890000	45,575000
4,861642	1145,097055	628,135	0,407225	21,890000	45,575000
4,861615	1144,375046	629,340	0,406920	21,890000	45,560000
4,861667	1144,445627	630,541	0,406950	21,890000	45,560000
4,861615	1144,171403	631,745	0,406834	21,890000	45,560000
4,861623	1143,764116	632,947	0,406663	21,890000	45,560000
4,861631	1143,363772	634,149	0,406494	21,890000	45,560000
4,861607	1143,356829	635,350	0,406491	21,890000	45,560000
4,857632	1142,133812	636,552	0,405975	21,890000	45,560000
4,833609	1123,604580	637,755	0,398155	21,880000	45,545000
4,809710	1105,851738	638,956	0,390664	21,880000	45,545000
4,785622	1087,181344	640,158	0,382785	21,890000	45,545000
4,761721	1070,714001	641,361	0,375835	21,880000	45,545000
4,737693	1053,673911	642,564	0,368645	21,880000	45,545000
4,713658	1036,720601	643,768	0,361490	21,890000	45,545000
4,689752	1019,516208	644,969	0,354230	21,890000	45,545000
4,665727	1001,504184	646,174	0,346629	21,880000	45,535000
4,641679	985,209244	647,377	0,339752	21,890000	45,560000
4,617712	967,408962	648,579	0,332241	21,890000	45,560000
4,593725	951,271383	649,782	0,325431	21,890000	45,560000
4,569755	934,191952	650,986	0,318223	21,890000	45,560000
4,545804	917,097480	652,188	0,311009	21,890000	45,560000
4,521823	899,054215	653,393	0,303395	21,880000	45,560000
4,497712	883,002259	654,598	0,296621	21,880000	45,560000
4,473807	866,190110	655,803	0,289526	21,880000	45,560000
4,449726	847,754600	657,007	0,281747	21,880000	45,560000
4,427744	833,042524	658,210	0,275538	21,880000	45,560000
4,451755	851,015208	659,346	0,283123	21,890000	45,545000
4,475763	868,125879	660,547	0,290343	21,890000	45,545000
4,499726	885,502675	661,748	0,297676	21,890000	45,545000
4,523757	902,690869	662,954	0,304930	21,890000	45,545000
4,547789	919,997084	664,155	0,312233	21,880000	45,545000
4,571720	936,841630	665,358	0,319341	21,890000	45,535000
4,595743	955,927410	666,560	0,327396	21,890000	45,535000
4,619775	972,990642	667,761	0,334596	21,880000	45,535000
4,643773	988,627212	668,964	0,341195	21,880000	45,535000
4,667776	1006,066490	670,168	0,348554	21,880000	45,535000
4,691707	1022,698136	671,371	0,355573	21,890000	45,575000
4,715689	1040,107329	672,574	0,362919	21,890000	45,575000
4,739637	1057,405445	673,778	0,370219	21,890000	45,575000
4,763681	1073,817249	674,981	0,377145	21,890000	45,575000
4,787683	1092,385821	676,188	0,384981	21,880000	45,545000
4,811616	1109,504591	677,391	0,392205	21,880000	45,560000
4,835693	1124,898178	678,592	0,398701	21,880000	45,560000
4,859678	1143,427410	679,794	0,406521	21,880000	45,560000
4,883631	1158,898521	680,995	0,413049	21,880000	45,560000
4,907652	1175,946710	682,198	0,420244	21,880000	45,535000
4,931661	1192,766958	683,402	0,427342	21,880000	45,520000
4,955607	1211,170070	684,606	0,435108	21,880000	45,520000
4,979692	1228,476285	685,810	0,442411	21,890000	45,560000
4,985598	1231,595731	687,015	0,443728	21,890000	45,560000
4,985601	1231,149104	688,215	0,443539	21,890000	45,560000
4,985631	1230,843639	689,419	0,443410	21,880000	45,585000
4,985685	1230,515033	690,621	0,443271	21,880000	45,585000
4,985661	1230,521975	691,823	0,443274	21,890000	45,560000
4,985568	1229,934186	693,026	0,443026	21,890000	45,560000
4,985625	1229,566240	694,228	0,442871	21,890000	45,560000
4,985603	1229,425078	695,431	0,442812	21,880000	45,575000
4,975608	1223,256767	696,634	0,440208	21,880000	45,575000
4,951601	1205,292182	697,838	0,432627	21,880000	45,575000
4,927645	1186,010858	699,042	0,424491	21,880000	45,545000
4,903626	1168,947627	700,245	0,417290	21,880000	45,545000
4,879641	1152,173662	701,447	0,410211	21,890000	45,545000
4,855657	1135,204152	702,650	0,403050	21,890000	45,545000
4,831651	1117,772975	703,851	0,395694	21,890000	45,535000
4,807634	1100,898345	705,053	0,388573	21,890000	45,535000
4,783649	1081,851905	706,257	0,380536	21,890000	45,535000
4,759634	1064,757433	707,459	0,373322	21,890000	45,560000
4,735711	1048,148928	708,661	0,366313	21,890000	45,560000
4,711711	1031,187519	709,863	0,359155	21,880000	45,545000
4,687747	1014,828940	711,067	0,352252	21,890000	45,560000
4,663722	996,222184	712,269	0,344400	21,890000	45,560000
4,639759	981,032240	713,469	0,337990	21,890000	45,545000
4,615678	963,929669	714,673	0,330772	21,890000	45,545000
4,591720	945,948886	715,874	0,323185	21,880000	45,545000
4,567779	929,136737	717,079	0,316090	21,880000	45,545000
4,543750	912,731876	718,281	0,309167	21,880000	45,545000
4,521740	896,350156	719,483	0,302254	21,890000	45,560000
4,545738	913,625130	720,617	0,309544	21,890000	45,560000
4,569813	931,205569	721,822	0,316963	21,880000	45,545000
4,593768	950,228867	723,024	0,324991	21,880000	45,545000
4,617765	966,351405	724,225	0,331794	21,880000	45,545000
4,641726	984,598313	725,428	0,339495	21,880000	45,545000
4,665710	1000,916395	726,628	0,346381	21,880000	45,545000
4,689724	1018,591714	727,833	0,353840	21,880000	45,575000
4,713668	1035,584364	729,037	0,361011	21,890000	45,545000
4,737685	1052,686935	730,238	0,368228	21,890000	45,545000
4,761652	1069,750167	731,439	0,375429	21,880000	45,545000
4,785639	1088,325681	732,643	0,383268	21,880000	45,545000
4,809692	1105,020966	733,846	0,390313	21,890000	45,545000
4,833674	1121,754434	735,047	0,397375	21,890000	45,545000
4,857717	1138,042432	736,251	0,404248	21,890000	45,545000
4,881624	1155,379887	737,455	0,411564	21,890000	45,545000
4,905697	1173,359514	738,659	0,419152	21,890000	45,545000
4,929656	1190,791849	739,859	0,426508	21,890000	45,535000
4,953643	1207,846981	741,062	0,433706	21,890000	45,545000
4,977600	1223,389829	742,266	0,440265	21,890000	45,545000
5,001669	1240,226276	743,467	0,447370	21,880000	45,560000
5,025632	1257,320748	744,669	0,454583	21,880000	45,560000
5,049617	1275,771299	745,870	0,462370	21,890000	45,545000
5,073559	1291,634655	747,072	0,469064	21,880000	45,560000
5,097561	1308,596064	748,276	0,476222	21,880000	45,560000
5,109531	1317,829439	749,476	0,480118	21,880000	45,560000
5,109530	1317,445294	750,678	0,479956	21,880000	45,560000
5,109515	1316,786924	751,879	0,479678	21,880000	45,560000
5,109503	1316,740642	753,080	0,479659	21,890000	45,585000
5,109538	1316,254675	754,284	0,479454	21,890000	45,585000
5,109619	1315,987393	755,484	0,479341	21,890000	45,575000
5,109575	1315,939953	756,684	0,479321	21,890000	45,575000
5,109546	1315,274641	757,885	0,479040	21,890000	45,575000
5,105559	1312,350739	759,087	0,477806	21,890000	45,545000
5,081589	1294,307474	760,288	0,470192	21,890000	45,545000
5,057557	1277,025557	761,489	0,462899	21,880000	45,545000
5,033643	1259,758683	762,693	0,455612	21,880000	45,545000
5,009579	1242,710493	763,893	0,448418	21,880000	45,560000
4,985592	1225,153195	765,093	0,441009	21,880000	45,560000
4,961577	1208,145503	766,297	0,433832	21,880000	45,560000
4,937681	1190,634488	767,500	0,426442	21,880000	45,545000
4,913629	1173,446294	768,702	0,419188	21,880000	45,545000
4,889684	1155,936436	769,905	0,411799	21,890000	45,575000
4,865570	1138,574682	771,108	0,404473	21,890000	45,575000
4,841623	1121,558890	772,308	0,397292	21,890000	45,575000
4,817679	1104,338298	773,511	0,390025	21,880000	45,545000
4,793635	1087,361846	774,714	0,382861	21,880000	45,545000
4,769645	1070,385395	775,917	0,375697	21,880000	45,535000
4,745671	1051,762441	777,117	0,367838	21,880000	45,535000
4,721698	1035,262700	778,318	0,360875	21,880000	45,535000
4,697717	1018,724776	779,521	0,353896	21,890000	45,560000
4,673690	1002,186852	780,723	0,346917	21,890000	45,560000
4,649722	985,186102	781,926	0,339743	21,880000	45,535000
4,625694	968,279075	783,129	0,332608	21,890000	45,560000
4,601798	950,002083	784,333	0,324895	21,890000	45,560000
4,577684	934,050791	785,539	0,318164	21,890000	45,560000
4,553713	917,309223	786,741	0,311099	21,890000	45,560000
4,529719	900,590797	787,941	0,304043	21,890000	45,545000
4,505736	883,370205	789,145	0,296776	21,890000	45,545000
4,481770	866,433094	790,348	0,289629	21,890000	45,545000
4,457801	848,695294	791,552	0,282144	21,890000	45,545000
4,433775	832,314731	792,756	0,275231	21,890000	45,545000
4,409815	815,540766	793,958	0,268152	21,890000	45,545000
4,385790	797,106413	795,158	0,260373	21,880000	45,560000
4,361800	780,458568	796,362	0,253348	21,880000	45,560000
4,337800	763,786424	797,567	0,246312	21,890000	45,545000
4,313772	747,632646	798,769	0,239495	21,890000	45,545000
4,289827	731,423328	799,975	0,232655	21,880000	45,560000
4,265803	712,675411	801,178	0,224743	21,880000	45,575000
4,241837	697,485467	802,382	0,218333	21,880000	45,575000
4,217843	679,622704	803,584	0,210795	21,880000	45,575000
4,193791	663,570748	804,786	0,204021	21,880000	45,575000
4,169810	646,844222	805,987	0,196962	21,880000	45,545000
4,145808	630,125796	807,191	0,189907	21,880000	45,560000
4,121852	613,156287	808,393	0,182746	21,880000	45,560000
4,097877	596,257359	809,595	0,175615	21,880000	45,560000
4,073862	577,916728	810,798	0,167875	21,880000	45,560000
4,049815	561,951551	812,001	0,161138	21,880000	45,560000
4,025831	545,318748	813,204	0,154119	21,880000	45,560000
4,001790	526,751333	814,408	0,146283	21,880000	45,560000
3,977854	509,938028	815,609	0,139188	21,880000	45,535000
3,953840	492,789174	816,813	0,131951	21,880000	45,535000
3,929838	476,509275	818,014	0,125081	21,880000	45,535000
3,905882	459,908870	819,215	0,118076	21,880000	45,535000
3,881919	444,295440	820,418	0,111487	21,880000	45,535000
3,857804	427,701977	821,620	0,104484	21,890000	45,560000
3,833851	410,906028	822,822	0,097396	21,890000	45,560000
3,809894	393,018967	824,026	0,089848	21,890000	45,510000
3,785878	376,277399	825,229	0,082783	21,890000	45,560000
3,761867	360,647771	826,433	0,076188	21,890000	45,560000
3,737929	343,546357	827,639	0,068971	21,880000	45,520000
3,713883	326,373204	828,846	0,061724	21,880000	45,520000
3,689905	308,078856	830,050	0,054003	21,880000	45,535000
3,665869	292,865771	831,254	0,047583	21,880000	45,560000
3,641895	274,390921	832,457	0,039787	21,880000	45,560000
3,617868	259,021632	833,660	0,033301	21,890000	45,560000
3,593902	240,444961	834,861	0,025462	21,890000	45,560000
3,569872	224,189361	836,065	0,018602	21,890000	45,545000
3,545914	206,961826	837,268	0,011332	21,890000	45,535000
[...]
4,749277	1062,350739	570,393	0,372554	21,880000	45,510000
4,749295	1061,692369	571,593	0,372276	21,880000	45,520000
4,749283	1061,198302	572,794	0,372068	21,880000	45,520000
4,749262	1060,869696	573,998	0,371929	21,880000	45,520000
4,749228	1060,587372	575,204	0,371810	21,880000	45,520000
4,749324	1060,132646	576,407	0,371618	21,880000	45,520000
4,749324	1060,148845	577,610	0,371625	21,880000	45,520000
4,749298	1059,882720	578,812	0,371513	21,880000	45,520000
4,743333	1056,747075	580,014	0,370189	21,880000	45,510000
4,719272	1038,703810	581,216	0,362575	21,890000	45,520000
4,695268	1019,837872	582,420	0,354614	21,890000	45,520000
4,671310	1003,785915	583,626	0,347840	21,880000	45,520000
4,647276	986,181178	584,829	0,340411	21,880000	45,520000
4,623332	967,582522	586,033	0,332562	21,880000	45,510000
4,599312	952,110254	587,236	0,326033	21,880000	45,510000
4,575359	934,160712	588,441	0,318458	21,880000	45,510000
4,551278	917,465427	589,646	0,311413	21,890000	45,520000
4,527347	899,007933	590,850	0,303624	21,890000	45,520000
4,503343	883,409545	592,054	0,297041	21,880000	45,495000
4,479387	866,558057	593,255	0,289930	21,880000	45,480000
4,455357	849,659129	594,457	0,282798	21,880000	45,480000
4,431350	831,185436	595,661	0,275002	21,880000	45,510000
4,407348	814,161545	596,862	0,267818	21,880000	45,495000
4,383384	798,901020	598,064	0,261378	21,880000	45,495000
4,359403	780,905195	599,267	0,253784	21,870000	45,505000
4,357387	779,416053	600,453	0,253156	21,870000	45,505000
4,381397	796,949052	601,658	0,260555	21,870000	45,505000
4,405356	814,631313	602,863	0,268017	21,890000	45,480000
4,429374	833,434769	604,065	0,275952	21,890000	45,480000
4,453345	850,850905	605,268	0,283301	21,890000	45,520000
4,477353	866,707318	606,472	0,289993	21,890000	45,520000
4,501354	883,911711	607,675	0,297253	21,890000	45,510000
4,525325	902,479127	608,877	0,305088	21,880000	45,520000
4,549371	917,747751	610,082	0,311532	21,880000	45,520000
4,573353	935,900937	611,285	0,319192	21,880000	45,520000
4,597309	952,494400	612,486	0,326195	21,880000	45,520000
4,621359	969,306548	613,692	0,333290	21,880000	45,510000
4,645331	985,915053	614,895	0,340298	21,880000	45,510000
4,669305	1003,934020	616,098	0,347902	21,880000	45,510000
4,693298	1021,021549	617,299	0,355113	21,890000	45,535000
4,717324	1037,700635	618,502	0,362152	21,890000	45,535000
4,741298	1054,394763	619,703	0,369197	21,890000	45,535000
4,765268	1071,372371	620,905	0,376361	21,880000	45,535000
4,789286	1087,824672	622,108	0,383304	21,880000	45,535000
4,813349	1105,631896	623,311	0,390819	21,880000	45,495000
4,837246	1122,914970	624,516	0,398112	21,880000	45,495000
4,861266	1139,907620	625,717	0,405283	21,880000	45,495000
4,873176	1148,004758	626,922	0,408700	21,880000	45,495000
4,873269	1147,205226	628,125	0,408363	21,880000	45,495000
4,873254	1147,197127	629,327	0,408359	21,880000	45,510000
4,873259	1146,436935	630,530	0,408039	21,880000	45,510000
4,873241	1146,185852	631,732	0,407933	21,880000	45,520000
4,873219	1145,927827	632,934	0,407824	21,890000	45,495000
4,873256	1145,699885	634,138	0,407728	21,890000	45,495000
4,873289	1145,927827	635,343	0,407824	21,880000	45,510000
4,869315	1142,941443	636,543	0,406563	21,880000	45,510000
4,845271	1125,149261	637,748	0,399055	21,880000	45,520000
4,821239	1107,403362	638,951	0,391566	21,880000	45,480000
4,797242	1090,333188	640,157	0,384363	21,880000	45,480000
4,773301	1073,160036	641,360	0,377116	21,880000	45,480000
4,749296	1055,806381	642,563	0,369792	21,880000	45,480000
4,725287	1037,559473	643,766	0,362092	21,890000	45,470000
4,701261	1020,911628	644,967	0,355067	21,880000	45,520000
4,677300	1003,723434	646,169	0,347813	21,880000	45,520000
4,653345	987,184353	647,372	0,340834	21,880000	45,510000
4,629273	968,498917	648,572	0,332949	21,880000	45,510000
4,605308	953,238392	649,776	0,326509	21,880000	45,510000
4,581359	934,458077	650,978	0,318583	21,880000	45,510000
4,557338	917,905111	652,181	0,311598	21,880000	45,510000
4,533364	900,245992	653,386	0,304146	21,880000	45,510000
4,509378	884,138496	654,588	0,297349	21,880000	45,510000
4,485372	866,354414	655,791	0,289844	21,880000	45,510000
4,461416	849,353664	656,995	0,282669	21,880000	45,520000
4,439371	834,211160	658,199	0,276279	21,880000	45,520000
4,463388	852,810973	659,335	0,284128	21,880000	45,520000
4,487362	869,097814	660,539	0,291001	21,880000	45,520000
4,511385	887,180419	661,740	0,298632	21,880000	45,495000
4,535412	904,532916	662,945	0,305955	21,880000	45,510000
4,559362	921,448043	664,147	0,313093	21,880000	45,510000
4,583366	940,596305	665,351	0,321174	21,890000	45,495000
4,607336	957,016208	666,554	0,328103	21,890000	45,495000
4,631363	973,499750	667,758	0,335059	21,890000	45,495000
4,655329	990,507442	668,963	0,342236	21,880000	45,495000
4,679337	1007,476951	670,164	0,349397	21,880000	45,495000
4,703308	1024,610763	671,428	0,356628	21,880000	45,495000
4,727313	1042,504767	672,629	0,364179	21,880000	45,495000
4,751328	1058,965168	673,831	0,371125	21,880000	45,510000
4,775300	1075,918478	675,032	0,378280	21,880000	45,510000
4,799259	1094,416469	676,236	0,386086	21,880000	45,510000
4,823269	1111,338539	677,442	0,393227	21,880000	45,510000
4,847271	1126,645346	678,644	0,399687	21,880000	45,510000
4,871263	1144,955893	679,847	0,407414	21,880000	45,510000
4,895274	1160,873630	681,051	0,414131	21,880000	45,495000
4,919222	1177,701977	682,258	0,421232	21,880000	45,495000
4,943223	1196,270549	683,460	0,429068	21,880000	45,520000
4,967222	1211,640995	684,661	0,435555	21,880000	45,520000
4,991183	1228,891671	685,864	0,442834	21,880000	45,495000
4,997168	1233,649521	687,068	0,444842	21,880000	45,495000
4,997186	1233,046690	688,271	0,444588	21,880000	45,495000
4,997221	1233,069831	689,471	0,444598	21,880000	45,510000
4,997177	1232,348980	690,676	0,444293	21,880000	45,510000
4,997234	1232,160378	691,883	0,444214	21,880000	45,510000
4,997229	1231,925494	693,083	0,444115	21,880000	45,510000
4,997241	1231,917395	694,284	0,444111	21,880000	45,510000
4,997202	1231,455726	695,489	0,443917	21,880000	45,510000
4,987218	1223,757775	696,693	0,440668	21,880000	45,510000
4,963224	1207,180511	697,897	0,433672	21,880000	45,520000
4,939243	1189,450811	699,097	0,426190	21,890000	45,495000
4,915203	1172,050874	700,299	0,418848	21,890000	45,495000
4,891205	1152,738309	701,502	0,410698	21,890000	45,495000
4,867281	1137,352821	702,705	0,404205	21,890000	45,495000
4,843215	1119,905445	703,909	0,396842	21,880000	45,510000
4,819330	1101,634238	705,112	0,389132	21,880000	45,495000
4,795225	1083,599072	706,315	0,381521	21,880000	45,495000
4,771290	1066,512700	707,520	0,374311	21,880000	45,495000
4,747283	1050,633146	708,728	0,367609	21,880000	45,495000
4,723302	1033,593056	709,931	0,360418	21,880000	45,495000
4,699289	1016,521725	711,134	0,353214	21,890000	45,495000
4,675255	998,517800	712,341	0,345617	21,890000	45,495000
4,651286	982,843047	713,546	0,339002	21,880000	45,510000
4,627279	966,029741	714,750	0,331907	21,880000	45,510000
4,603263	947,359347	715,952	0,324028	21,880000	45,510000
4,579289	930,116771	717,156	0,316751	21,880000	45,510000
4,555348	913,021142	718,359	0,309537	21,880000	45,510000
4,533370	897,651853	719,564	0,303051	21,880000	45,510000
4,557294	915,216093	720,703	0,310463	21,880000	45,510000
4,581361	933,141338	721,904	0,318028	21,890000	45,510000
4,605308	950,393171	723,106	0,325308	21,890000	45,510000
4,629294	968,012950	724,308	0,332744	21,890000	45,510000
4,653262	986,722684	725,510	0,340639	21,880000	45,495000
4,677302	1002,805882	726,715	0,347426	21,880000	45,495000
4,701303	1019,727951	727,917	0,354567	21,880000	45,495000
4,725262	1036,743743	729,121	0,361748	21,880000	45,495000
4,749331	1054,074256	730,322	0,369062	21,880000	45,495000
4,773315	1073,065157	731,526	0,377076	21,870000	45,505000
4,797290	1089,932844	732,733	0,384194	21,870000	45,505000
4,821277	1105,608755	733,935	0,390809	21,880000	45,510000
4,845301	1122,813148	735,139	0,398069	21,880000	45,510000
4,869252	1139,828940	736,341	0,405250	21,880000	45,510000
4,893285	1157,221934	737,543	0,412590	21,880000	45,510000
4,917234	1175,163378	738,746	0,420161	21,880000	45,510000
4,941178	1191,356496	739,949	0,426995	21,880000	45,520000
4,965161	1209,226201	741,151	0,434536	21,880000	45,510000
4,989244	1225,529241	742,353	0,441416	21,880000	45,510000
5,013252	1242,695451	743,554	0,448660	21,880000	45,510000
5,037213	1261,192286	744,755	0,456465	21,880000	45,510000
5,061210	1278,059973	745,957	0,463583	21,880000	45,495000
5,085195	1293,131896	747,160	0,469944	21,880000	45,495000
5,109116	1311,081439	748,361	0,477519	21,880000	45,495000
5,121178	1320,055632	749,567	0,481306	21,890000	45,520000
5,121213	1319,428503	750,769	0,481041	21,890000	45,520000
5,121201	1319,075598	751,970	0,480892	21,890000	45,520000
5,121156	1318,722693	753,173	0,480743	21,880000	45,495000
5,121130	1318,276066	754,377	0,480555	21,880000	45,495000
5,121167	1317,837539	755,579	0,480370	21,880000	45,510000
5,121176	1318,065481	756,782	0,480466	21,880000	45,510000
5,121227	1317,783157	757,983	0,480347	21,880000	45,495000
5,117160	1315,870529	759,186	0,479540	21,880000	45,520000
5,093195	1296,196960	760,391	0,471237	21,880000	45,520000
5,069226	1278,803965	761,593	0,463897	21,890000	45,520000
5,045199	1262,375963	762,794	0,456965	21,890000	45,520000
5,021249	1244,842963	763,995	0,449566	21,880000	45,495000
4,997224	1226,681678	765,199	0,441902	21,880000	45,520000
4,973182	1209,947053	766,401	0,434840	21,880000	45,520000
4,949193	1192,783157	767,604	0,427597	21,880000	45,520000
4,925262	1173,767958	768,809	0,419572	21,880000	45,520000
4,901277	1158,366271	770,012	0,413073	21,880000	45,495000
4,877224	1139,946960	771,215	0,405300	21,880000	45,495000
4,853225	1122,312139	772,419	0,397858	21,880000	45,495000
4,829292	1105,710576	773,625	0,390852	21,870000	45,505000
4,805313	1089,320757	774,828	0,383936	21,870000	45,505000
4,781300	1070,855163	776,030	0,376143	21,880000	45,510000
4,757318	1055,124870	777,235	0,369505	21,880000	45,495000
4,733348	1036,493817	778,438	0,361643	21,880000	45,495000
4,709326	1019,476868	779,643	0,354461	21,880000	45,495000
4,685291	1003,989559	780,845	0,347926	21,880000	45,495000
4,661331	986,432261	782,049	0,340517	21,880000	45,495000
4,637313	969,595814	783,251	0,333412	21,880000	45,520000
4,613313	952,737383	784,455	0,326297	21,880000	45,520000
4,589305	934,443035	785,659	0,318577	21,880000	45,510000
4,565342	919,111930	786,862	0,312107	21,880000	45,510000
4,541373	901,359088	788,067	0,304616	21,880000	45,480000
4,517361	885,001666	789,269	0,297713	21,880000	45,510000
4,493403	867,028982	790,475	0,290128	21,880000	45,510000
4,469400	849,698469	791,678	0,282815	21,880000	45,510000
4,445418	833,928836	792,881	0,276160	21,880000	45,510000
4,421380	815,901770	794,085	0,268553	21,880000	45,510000
4,397367	800,296440	795,287	0,261967	21,890000	45,455000
4,373416	782,354997	796,491	0,254396	21,890000	45,455000
4,349362	765,338048	797,692	0,247215	21,880000	45,535000
4,325432	749,819498	798,892	0,240666	21,880000	45,535000
4,301447	731,588789	800,098	0,232973	21,880000	45,535000
4,277437	714,563740	801,299	0,225788	21,890000	45,535000
4,253420	698,010775	802,502	0,218803	21,890000	45,535000
4,229448	680,993826	803,704	0,211622	21,880000	45,520000
4,205409	664,079856	804,906	0,204484	21,880000	45,520000
4,181438	647,479451	806,109	0,197479	21,880000	45,520000
4,157424	630,275057	807,310	0,190218	21,880000	45,520000
4,133461	613,760275	808,511	0,183249	21,880000	45,520000
4,109506	596,736384	809,716	0,176065	21,880000	45,510000
4,085478	579,891838	810,917	0,168957	21,880000	45,510000
4,061453	564,271466	812,120	0,162365	21,880000	45,510000
4,037443	545,867197	813,321	0,154598	21,880000	45,495000
4,013511	529,337372	814,524	0,147623	21,880000	45,495000
3,989494	512,392162	815,730	0,140472	21,880000	45,495000
3,965448	496,166645	816,932	0,133625	21,880000	45,495000
3,941496	478,586206	818,134	0,126206	21,880000	45,495000
3,917462	461,790257	819,337	0,119118	21,880000	45,520000
3,893465	446,945118	820,541	0,112853	21,880000	45,520000
3,869488	428,682011	821,742	0,105146	21,880000	45,520000
3,845478	411,431335	822,946	0,097866	21,880000	45,520000
3,821469	395,103997	824,148	0,090976	21,880000	45,520000
3,797456	378,597314	825,349	0,084010	21,880000	45,510000
3,773531	361,934427	826,552	0,076979	21,880000	45,510000
3,749480	344,267208	827,755	0,069523	21,880000	45,495000
3,725459	328,450135	828,960	0,062848	21,880000	45,520000
3,701529	311,073339	830,163	0,055515	21,880000	45,520000
3,677482	294,739059	831,366	0,048622	21,880000	45,510000
3,653564	277,440943	832,567	0,041322	21,880000	45,510000
3,629441	259,821164	833,770	0,033887	21,880000	45,495000
3,605458	243,376962	834,972	0,026947	21,880000	45,495000
3,581535	227,230126	836,174	0,020133	21,880000	45,495000
3,557521	211,233709	837,377	0,013383	21,880000	45,470000
3,533547	194,021216	838,580	0,006119	21,880000	45,470000
3,509526	178,729451	839,783	-0,000334	21,890000	45,510000
3,485484	161,783083	840,984	-0,007485	21,880000	45,470000
3,461530	144,484967	842,189	-0,014785	21,880000	45,470000
3,437558	126,818906	843,391	-0,022240	21,880000	45,510000
3,413534	111,910128	844,591	-0,028532	21,880000	45,510000
3,389562	95,583947	845,794	-0,035421	21,880000	45,510000
3,365566	78,928003	846,997	-0,042450	21,880000	45,510000
3,341608	61,810390	848,202	-0,049674	21,880000	45,510000
3,317570	43,821507	849,405	-0,057265	21,880000	45,510000
3,293632	27,416645	850,611	-0,064188	21,880000	45,510000
3,269597	11,686352	851,811	-0,070826	21,890000	45,510000
3,245605	-4,985791	853,014	-0,077862	21,880000	45,520000
3,221587	-20,865345	854,215	-0,084563	21,880000	45,520000
3,197588	-38,539507	855,417	-0,092021	21,880000	45,520000
3,173615	-54,560223	856,619	-0,098782	21,880000	45,520000
3,149660	-68,370946	857,819	-0,104610	21,880000	45,520000
3,125578	-84,235458	859,021	-0,111305	21,880000	45,520000
3,101612	-100,569739	860,224	-0,118198	21,880000	45,520000
3,077659	-116,441193	861,426	-0,124896	21,880000	45,495000
3,053566	-133,112180	862,629	-0,131931	21,880000	45,495000
3,029633	-150,795598	863,833	-0,139394	21,880000	45,480000
3,005636	-167,200459	865,037	-0,146316	21,880000	45,495000
2,981602	-182,899511	866,241	-0,152941	21,880000	45,495000
2,957618	-197,556048	867,442	-0,159126	21,880000	45,510000
2,933635	-214,282574	868,644	-0,166185	21,880000	45,510000
2,909609	-229,912202	869,849	-0,172781	21,880000	45,495000
2,885615	-247,876787	871,051	-0,180362	21,880000	45,495000
2,861683	-263,489059	872,254	-0,186950	21,880000	45,495000
2,837635	-278,977525	873,456	-0,193486	21,880000	45,495000
2,813663	-293,469759	874,659	-0,199602	21,880000	45,495000
2,789665	-308,792765	875,863	-0,206068	21,880000	45,520000
2,765632	-324,790340	877,065	-0,212819	21,880000	45,510000
2,741701	-341,901011	878,268	-0,220040	21,880000	45,510000
2,717698	-357,529482	879,471	-0,226635	21,880000	45,495000
2,693695	-371,386487	880,677	-0,232483	21,880000	45,495000
2,669679	-385,566314	881,881	-0,238467	21,880000	45,510000
2,645669	-402,527723	883,087	-0,245625	21,880000	45,520000
2,621648	-417,732709	884,291	-0,252041	21,880000	45,520000
2,597667	-432,241142	885,494	-0,258164	21,880000	45,520000
2,573703	-444,891328	886,697	-0,263502	21,880000	45,520000
2,549678	-460,912045	887,900	-0,270263	21,880000	45,520000
2,525676	-475,366095	889,102	-0,276362	21,880000	45,510000
2,501742	-490,641662	890,303	-0,282809	21,880000	45,510000
2,477708	-506,207651	891,507	-0,289377	21,880000	45,510000
2,453661	-521,774798	892,710	-0,295947	21,880000	45,510000
2,429687	-537,027223	893,912	-0,302383	21,890000	45,480000
2,405689	-551,887404	895,114	-0,308654	21,890000	45,495000
2,381741	-568,535249	896,315	-0,315680	21,890000	45,495000
2,357715	-582,761358	897,517	-0,321683	21,890000	45,520000
2,333700	-596,964325	898,721	-0,327677	21,890000	45,520000
2,309691	-611,471601	899,923	-0,333799	21,890000	45,520000
2,285666	-625,690768	901,126	-0,339799	21,890000	45,520000
2,261698	-640,629628	902,329	-0,346104	21,890000	45,520000
2,237751	-654,895077	903,531	-0,352124	21,880000	45,495000
2,213717	-669,049448	904,733	-0,358097	21,880000	45,495000
2,189702	-683,840205	905,937	-0,364338	21,880000	45,495000
2,165660	-699,759099	907,140	-0,371056	21,880000	45,510000
2,141711	-714,494316	908,341	-0,377274	21,880000	45,510000
2,117649	-729,628721	909,547	-0,383661	21,890000	45,495000
2,093683	-743,573663	910,749	-0,389546	21,890000	45,495000
2,069664	-755,314398	911,955	-0,394500	21,880000	45,495000
2,045711	-770,018374	913,158	-0,400706	21,880000	45,495000
2,021692	-783,162628	914,359	-0,406252	21,880000	45,495000
1,997664	-795,609171	915,563	-0,411505	21,880000	45,480000
1,973675	-807,569748	916,764	-0,416552	21,880000	45,480000
1,949687	-821,004425	917,968	-0,422222	21,880000	45,495000
1,925695	-833,936935	919,169	-0,427679	21,890000	45,495000
1,901733	-847,207309	920,371	-0,433279	21,890000	45,495000
1,877688	-858,274632	921,571	-0,437950	21,890000	45,495000
1,853700	-870,721175	922,772	-0,443202	21,890000	45,495000
1,829692	-882,242067	923,975	-0,448064	21,880000	45,520000
1,805692	-893,685436	925,179	-0,452893	21,880000	45,520000
1,781707	-907,661619	926,382	-0,458791	21,880000	45,520000
1,757702	-918,995066	927,584	-0,463574	21,880000	45,510000
1,733691	-931,261108	928,792	-0,468750	21,880000	45,510000
1,709714	-941,528899	929,995	-0,473083	21,890000	45,510000
1,685725	-951,804789	931,198	-0,477419	21,890000	45,510000
1,661694	-965,669894	932,401	-0,483271	21,890000	45,510000
1,637737	-977,380545	933,601	-0,488212	21,880000	45,520000
1,613713	-986,080513	934,805	-0,491884	21,880000	45,520000
1,589677	-995,219009	936,009	-0,495740	21,880000	45,480000
1,565761	-1004,601646	937,214	-0,499700	21,880000	45,480000
1,541714	-1015,096221	938,417	-0,504128	21,880000	45,480000
1,517704	-1017,337456	939,619	-0,505074	21,890000	45,510000
1,493732	-1022,809214	940,824	-0,507383	21,890000	45,510000
1,469742	-1030,090621	942,026	-0,510456	21,890000	45,510000
1,445702	-1036,705559	943,231	-0,513248	21,890000	45,510000
1,421716	-1045,100063	944,433	-0,516790	21,890000	45,510000
1,397721	-1055,367854	945,638	-0,521123	21,880000	45,480000
1,373723	-1059,787841	946,841	-0,522988	21,880000	45,480000
1,349771	-1063,253249	948,042	-0,524451	21,880000	45,480000
1,325715	-1063,542515	949,243	-0,524573	21,880000	45,510000
1,301787	-1055,454634	950,445	-0,521160	21,880000	45,510000
1,277733	-1046,275641	951,645	-0,517286	21,880000	45,510000
1,253754	-1043,524141	952,846	-0,516125	21,880000	45,510000
1,229743	-1028,616521	954,047	-0,509834	21,880000	45,510000
1,205752	-1001,521540	955,250	-0,498400	21,880000	45,510000
1,181734	-883,566906	956,450	-0,448623	21,880000	45,510000
1,157707	-0,682668	957,651	-0,076046	21,890000	45,495000
1,133723	-0,306622	958,855	-0,075887	21,890000	45,495000
1,109719	-0,008099	960,058	-0,075761	21,890000	45,495000
1,085749	-0,149261	961,261	-0,075821	21,880000	45,510000
1,061709	-0,024298	962,463	-0,075768	21,880000	45,510000
1,037790	0,039340	963,664	-0,075741	21,880000	45,510000
1,013730	0,124963	964,867	-0,075705	21,880000	45,510000
0,989725	-0,164303	966,068	-0,075827	21,880000	45,510000
0,965761	-0,070581	967,270	-0,075788	21,880000	45,480000
0,941715	-0,172403	968,472	-0,075831	21,880000	45,480000
0,917633	0,172403	969,675	-0,075685	21,880000	45,480000
0,893760	-0,031241	970,877	-0,075771	21,880000	45,480000
0,869745	0,124963	972,079	-0,075705	21,890000	45,480000
0,845709	-0,234884	973,281	-0,075857	21,890000	45,495000
0,821720	0,062481	974,485	-0,075731	21,890000	45,495000
0,797728	0,203643	975,690	-0,075672	21,880000	45,495000
0,773728	0,070581	976,891	-0,075728	21,880000	45,495000
0,749736	-0,024298	978,095	-0,075768	21,880000	45,495000
0,725712	-0,047440	979,297	-0,075778	21,880000	45,510000
0,701683	0,281167	980,504	-0,075639	21,880000	45,510000
0,677749	0,172403	981,707	-0,075685	21,880000	45,480000
0,653702	0,108764	982,912	-0,075712	21,880000	45,510000
0,637733	0,116864	983,714	-0,075708	21,880000	45,510000