File: Nanoindentation Datenauswertung/data/Saphir/AR-SA-450-1-450-3um-diff_LF-4x4-2
Quasi static measurement routine
Tip parameters (shape,radius, material...)
06.09.2022

Piezo position[nm]	MEMS displ.[nm]	Time[ms]	Cap [pf]	Temp [°C]	Rh [%]
eoh

X-Pos [um]	Y-Pos [um]
0,000637	0,001315

POC
2,131993
1,134006	0,370581	0,467	-0,078460	22,460000	48,795000
1,136929	0,370581	0,918	-0,078460	22,460000	48,795000
1,139962	0,229574	1,368	-0,078520	22,460000	48,795000
1,142986	0,252881	1,820	-0,078510	22,450000	48,810000
1,145997	0,370581	2,271	-0,078460	22,450000	48,810000
1,148966	0,165480	2,722	-0,078546	22,450000	48,810000
1,152027	0,284345	3,173	-0,078497	22,450000	48,810000
1,154965	0,142173	3,626	-0,078556	22,450000	48,810000
1,157938	0,299495	4,076	-0,078490	22,450000	48,770000
1,160984	0,347274	4,527	-0,078470	22,450000	48,770000
1,163960	0,449825	4,978	-0,078427	22,450000	48,770000
1,166968	0,544218	5,428	-0,078388	22,450000	48,770000
1,170009	0,142173	5,879	-0,078556	22,470000	48,810000
1,172953	0,110708	6,331	-0,078569	22,470000	48,810000
1,175927	0,196944	6,782	-0,078533	22,470000	48,810000
1,178930	0,418360	7,232	-0,078440	22,470000	48,810000
1,181961	0,236566	7,683	-0,078517	22,450000	48,810000
1,184965	0,229574	8,135	-0,078520	22,450000	48,810000
1,188003	0,276188	8,587	-0,078500	22,450000	48,810000
1,190992	0,252881	9,037	-0,078510	22,450000	48,810000
1,193964	0,213259	9,488	-0,078526	22,450000	48,810000
1,196977	0,330959	9,939	-0,078477	22,450000	48,810000
1,199982	0,181794	10,390	-0,078540	22,450000	48,810000
1,202950	0,276188	10,840	-0,078500	22,450000	48,810000
1,206021	0,102551	11,291	-0,078573	22,450000	48,810000
1,208914	-0,039622	11,741	-0,078632	22,450000	48,825000
1,212011	0,330959	12,191	-0,078477	22,450000	48,825000
1,215006	0,252881	12,642	-0,078510	22,450000	48,825000
1,217989	0,339117	13,092	-0,078474	22,450000	48,825000
1,220988	0,323967	13,542	-0,078480	22,450000	48,825000
1,223945	0,307652	13,993	-0,078487	22,460000	48,795000
1,226967	0,181794	14,444	-0,078540	22,460000	48,795000
1,229951	0,071086	14,894	-0,078586	22,460000	48,795000
1,232939	0,276188	15,345	-0,078500	22,460000	48,795000
1,235984	0,102551	15,795	-0,078573	22,460000	48,785000
1,238979	0,047779	16,245	-0,078596	22,460000	48,785000
1,241936	0,284345	16,696	-0,078497	22,460000	48,785000
1,244943	0,441667	17,146	-0,078431	22,460000	48,785000
1,247987	0,071086	17,596	-0,078586	22,460000	48,785000
1,250985	-0,039622	18,046	-0,078632	22,460000	48,810000
1,253942	0,142173	18,496	-0,078556	22,460000	48,810000
1,256980	0,125858	18,947	-0,078563	22,460000	48,810000
1,259974	0,236566	19,398	-0,078517	22,460000	48,810000
1,262944	0,236566	19,850	-0,078517	22,460000	48,810000
1,265986	0,221416	20,301	-0,078523	22,460000	48,810000
1,269010	0,268030	20,753	-0,078503	22,460000	48,810000
1,271961	0,173637	21,204	-0,078543	22,460000	48,810000
1,274990	-0,039622	21,654	-0,078632	22,460000	48,810000
1,277949	0,347274	22,104	-0,078470	22,460000	48,795000
1,280943	-0,015150	22,554	-0,078622	22,460000	48,795000
1,283938	0,205101	23,004	-0,078530	22,460000	48,795000
1,286938	0,268030	23,455	-0,078503	22,460000	48,795000
1,289953	0,150330	23,907	-0,078553	22,460000	48,795000
1,292957	0,094393	24,357	-0,078576	22,460000	48,795000
1,295928	0,395053	24,808	-0,078450	22,460000	48,795000
1,299001	0,284345	25,259	-0,078497	22,460000	48,795000
1,301980	0,268030	25,711	-0,078503	22,450000	48,795000
1,304985	0,118866	26,161	-0,078566	22,450000	48,795000
1,307972	0,189952	26,612	-0,078536	22,450000	48,795000
1,310966	0,370581	27,062	-0,078460	22,450000	48,795000
1,313984	0,165480	27,512	-0,078546	22,450000	48,795000
1,316967	-0,008157	27,964	-0,078619	22,450000	48,795000
1,319972	0,094393	28,414	-0,078576	22,450000	48,795000
1,322985	0,173637	28,864	-0,078543	22,450000	48,795000
1,325898	0,252881	29,314	-0,078510	22,450000	48,795000
1,328951	0,252881	29,766	-0,078510	22,450000	48,810000
1,331986	0,165480	30,218	-0,078546	22,450000	48,810000
1,334980	0,236566	30,669	-0,078517	22,450000	48,810000
1,337989	0,196944	31,119	-0,078533	22,450000	48,810000
1,340972	-0,102551	31,570	-0,078659	22,450000	48,810000
1,343970	-0,205101	32,020	-0,078702	22,450000	48,810000
1,346971	0,205101	32,471	-0,078530	22,450000	48,810000
1,349989	0,410203	32,921	-0,078444	22,450000	48,810000
1,352958	0,165480	33,373	-0,078546	22,450000	48,810000
1,355920	0,110708	33,824	-0,078569	22,470000	48,810000
1,358913	0,284345	34,276	-0,078497	22,470000	48,810000
1,361944	0,330959	34,727	-0,078477	22,470000	48,810000
1,365007	0,150330	35,179	-0,078553	22,470000	48,810000
1,368001	0,291337	35,632	-0,078494	22,470000	48,810000
1,371016	0,370581	36,083	-0,078460	22,470000	48,810000
1,373893	0,189952	36,535	-0,078536	22,470000	48,810000
1,376993	0,236566	36,985	-0,078517	22,470000	48,810000
1,380005	0,062929	37,435	-0,078589	22,470000	48,810000
1,382939	0,039622	37,886	-0,078599	22,460000	48,810000
1,385951	0,118866	38,338	-0,078566	22,460000	48,810000
1,388966	0,071086	38,788	-0,078586	22,460000	48,810000
1,391961	0,062929	39,238	-0,078589	22,460000	48,810000
1,394976	0,165480	39,688	-0,078546	22,460000	48,810000
1,397970	0,150330	40,139	-0,078553	22,460000	48,810000
1,400993	0,118866	40,590	-0,078566	22,460000	48,810000
1,403962	0,370581	41,040	-0,078460	22,460000	48,810000
1,406968	0,261038	41,490	-0,078506	22,460000	48,810000
1,409966	0,165480	41,940	-0,078546	22,450000	48,785000
1,412979	0,150330	42,390	-0,078553	22,450000	48,785000
1,415988	0,055937	42,840	-0,078592	22,450000	48,785000
1,418989	0,213259	43,290	-0,078526	22,450000	48,785000
1,421965	0,062929	43,740	-0,078589	22,460000	48,785000
1,425005	-0,079244	44,191	-0,078649	22,460000	48,785000
1,427982	0,196944	44,642	-0,078533	22,460000	48,785000
1,430958	0,150330	45,093	-0,078553	22,460000	48,785000
1,433953	0,196944	45,543	-0,078533	22,460000	48,785000
1,436987	0,196944	45,993	-0,078533	22,460000	48,785000
1,439968	0,196944	46,444	-0,078533	22,460000	48,785000
1,442968	-0,173637	46,894	-0,078688	22,460000	48,785000
1,445968	0,236566	47,344	-0,078517	22,460000	48,785000
1,448965	0,284345	47,794	-0,078497	22,450000	48,795000
1,451911	0,086236	48,244	-0,078580	22,450000	48,795000
1,454932	0,291337	48,695	-0,078494	22,450000	48,795000
1,457986	0,008157	49,145	-0,078612	22,450000	48,795000
1,460935	0,071086	49,596	-0,078586	22,450000	48,795000
1,463957	0,173637	50,047	-0,078543	22,470000	48,785000
1,466945	0,276188	50,497	-0,078500	22,470000	48,785000
1,469969	0,047779	50,948	-0,078596	22,470000	48,785000
1,472947	0,181794	51,398	-0,078540	22,470000	48,785000
1,475934	-0,047779	51,849	-0,078636	22,460000	48,785000
1,478944	0,110708	52,299	-0,078569	22,460000	48,785000
1,481944	0,205101	52,750	-0,078530	22,460000	48,785000
1,484948	0,261038	53,201	-0,078506	22,460000	48,785000
1,487970	0,142173	53,653	-0,078556	22,460000	48,785000
1,490939	0,118866	54,103	-0,078566	22,460000	48,785000
1,493966	0,307652	54,556	-0,078487	22,460000	48,785000
1,496965	0,039622	55,007	-0,078599	22,460000	48,785000
1,499977	0,196944	55,457	-0,078533	22,460000	48,785000
1,502971	-0,165480	55,908	-0,078685	22,460000	48,795000
1,505962	0,261038	56,359	-0,078506	22,460000	48,795000
1,508976	0,261038	56,810	-0,078506	22,460000	48,795000
1,511970	-0,079244	57,260	-0,078649	22,460000	48,795000
1,514944	0,196944	57,711	-0,078533	22,460000	48,795000
1,517953	0,047779	58,163	-0,078596	22,460000	48,795000
1,520958	0,181794	58,614	-0,078540	22,460000	48,795000
1,523929	0,055937	59,064	-0,078592	22,460000	48,795000
1,526962	0,062929	59,515	-0,078589	22,460000	48,795000
1,529920	0,094393	59,965	-0,078576	22,460000	48,795000
1,532978	0,134015	60,415	-0,078560	22,460000	48,795000
1,535948	-0,015150	60,867	-0,078622	22,460000	48,795000
1,538968	-0,023307	61,318	-0,078625	22,460000	48,795000
1,541956	0,221416	61,769	-0,078523	22,440000	48,820000
1,544950	-0,196944	62,220	-0,078698	22,440000	48,820000
1,547999	0,284345	62,672	-0,078497	22,440000	48,820000
1,550929	0,221416	63,122	-0,078523	22,440000	48,820000
1,553984	0,125858	63,572	-0,078563	22,440000	48,820000
1,556958	0,110708	64,022	-0,078569	22,460000	48,795000
1,559906	0,086236	64,472	-0,078580	22,460000	48,795000
1,562971	0,205101	64,922	-0,078530	22,460000	48,795000
1,565981	0,110708	65,372	-0,078569	22,460000	48,795000
1,568965	0,031464	65,822	-0,078603	22,460000	48,795000
1,571986	-0,110708	66,274	-0,078662	22,460000	48,795000
1,574991	0,165480	66,724	-0,078546	22,460000	48,795000
1,577948	0,008157	67,178	-0,078612	22,460000	48,795000
1,580897	0,261038	67,629	-0,078506	22,460000	48,795000
1,583917	0,236566	68,079	-0,078517	22,450000	48,810000
1,586957	0,196944	68,529	-0,078533	22,450000	48,810000
1,590004	-0,118866	68,979	-0,078666	22,450000	48,810000
1,592982	0,142173	69,430	-0,078556	22,450000	48,810000
1,595997	-0,134015	69,881	-0,078672	22,460000	48,770000
1,598959	0,276188	70,332	-0,078500	22,460000	48,770000
1,601886	0,134015	70,783	-0,078560	22,460000	48,770000
1,604928	0,466140	71,234	-0,078420	22,460000	48,770000
1,607944	-0,157322	71,684	-0,078682	22,460000	48,770000
1,610958	0,142173	72,134	-0,078556	22,460000	48,785000
1,613948	0,221416	72,585	-0,078523	22,460000	48,785000
1,616865	0,165480	73,035	-0,078546	22,460000	48,785000
1,619965	0,039622	73,486	-0,078599	22,460000	48,785000
1,622967	-0,062929	73,938	-0,078642	22,460000	48,785000
1,626004	0,023307	74,388	-0,078606	22,460000	48,785000
1,628949	0,196944	74,839	-0,078533	22,460000	48,785000
1,631929	0,102551	75,290	-0,078573	22,460000	48,785000
1,634890	0,094393	75,740	-0,078576	22,460000	48,785000
1,637942	0,150330	76,191	-0,078553	22,460000	48,785000
1,640968	0,008157	76,641	-0,078612	22,460000	48,785000
1,643938	0,110708	77,091	-0,078569	22,460000	48,785000
1,646945	0,008157	77,542	-0,078612	22,460000	48,785000
1,649955	0,023307	77,992	-0,078606	22,460000	48,825000
1,652993	0,086236	78,442	-0,078580	22,460000	48,825000
1,655954	0,157322	78,893	-0,078550	22,460000	48,825000
1,658965	0,071086	79,344	-0,078586	22,460000	48,825000
1,661982	-0,015150	79,795	-0,078622	22,460000	48,825000
1,664885	0,165480	80,245	-0,078546	22,460000	48,825000
1,667955	0,055937	80,696	-0,078592	22,460000	48,825000
1,670958	0,102551	81,146	-0,078573	22,460000	48,825000
1,673914	-0,023307	81,596	-0,078625	22,460000	48,825000
1,676970	0,229574	82,048	-0,078520	22,460000	48,810000
1,679944	0,370581	82,499	-0,078460	22,460000	48,810000
1,682959	0,031464	82,949	-0,078603	22,460000	48,810000
1,685934	0,071086	83,399	-0,078586	22,460000	48,810000
1,688907	0,181794	83,849	-0,078540	22,460000	48,810000
1,691963	0,102551	84,299	-0,078573	22,460000	48,810000
1,694966	0,016315	84,749	-0,078609	22,460000	48,810000
1,697918	0,055937	85,200	-0,078592	22,460000	48,810000
1,700992	0,008157	85,651	-0,078612	22,460000	48,810000
1,703948	0,016315	86,101	-0,078609	22,460000	48,785000
1,706940	0,102551	86,553	-0,078573	22,460000	48,785000
1,709942	-0,173637	87,003	-0,078688	22,460000	48,785000
1,712965	0,165480	87,454	-0,078546	22,460000	48,785000
1,715946	-0,181794	87,904	-0,078692	22,460000	48,785000
1,718952	-0,039622	88,356	-0,078632	22,460000	48,785000
1,721947	0,142173	88,806	-0,078556	22,460000	48,785000
1,724975	0,016315	89,256	-0,078609	22,460000	48,785000
1,727953	0,157322	89,706	-0,078550	22,450000	48,795000
1,730915	0,110708	90,159	-0,078569	22,450000	48,795000
1,733908	0,118866	90,610	-0,078566	22,450000	48,795000
1,736938	0,039622	91,060	-0,078599	22,450000	48,795000
1,739995	0,173637	91,510	-0,078543	22,450000	48,795000
1,742948	-0,031464	91,961	-0,078629	22,470000	48,850000
1,745948	0,094393	92,414	-0,078576	22,470000	48,850000
1,748983	0,094393	92,864	-0,078576	22,470000	48,850000
1,751932	0,039622	93,314	-0,078599	22,470000	48,850000
1,754948	0,150330	93,765	-0,078553	22,470000	48,850000
1,757968	-0,054771	94,216	-0,078639	22,470000	48,850000
1,760961	-0,127023	94,666	-0,078669	22,470000	48,850000
1,763917	-0,173637	95,116	-0,078688	22,470000	48,850000
1,766965	0,094393	95,566	-0,078576	22,470000	48,850000
1,769921	-0,315810	96,017	-0,078748	22,460000	48,785000
1,772941	-0,023307	96,468	-0,078625	22,460000	48,785000
1,775962	0,196944	96,918	-0,078533	22,460000	48,785000
1,778960	0,062929	97,368	-0,078589	22,460000	48,785000
1,781938	0,031464	97,818	-0,078603	22,460000	48,785000
1,784946	-0,039622	98,269	-0,078632	22,460000	48,785000
1,787929	0,110708	98,719	-0,078569	22,460000	48,785000
1,790940	0,134015	99,169	-0,078560	22,460000	48,785000
1,793935	-0,134015	99,619	-0,078672	22,460000	48,785000
1,796916	0,039622	100,070	-0,078599	22,460000	48,785000
1,799955	0,071086	100,520	-0,078586	22,460000	48,785000
1,802901	-0,023307	100,970	-0,078625	22,460000	48,785000
1,805956	-0,173637	101,420	-0,078688	22,460000	48,785000
1,808970	0,086236	101,871	-0,078580	22,460000	48,795000
1,811936	-0,071086	102,321	-0,078646	22,460000	48,795000
1,814935	0,000000	102,771	-0,078616	22,460000	48,795000
1,817955	0,094393	103,222	-0,078576	22,460000	48,795000
1,820965	0,094393	103,674	-0,078576	22,460000	48,795000
1,823954	-0,062929	104,126	-0,078642	22,450000	48,810000
1,826903	-0,102551	104,576	-0,078659	22,450000	48,810000
1,829963	-0,054771	105,029	-0,078639	22,450000	48,810000
1,832954	0,062929	105,480	-0,078589	22,450000	48,810000
1,835946	0,055937	105,930	-0,078592	22,450000	48,810000
1,838923	-0,094393	106,380	-0,078655	22,450000	48,810000
1,841921	-0,102551	106,832	-0,078659	22,450000	48,810000
1,844959	0,062929	107,282	-0,078589	22,450000	48,810000
1,847972	-0,284345	107,734	-0,078735	22,460000	48,795000
1,850958	-0,142173	108,185	-0,078675	22,460000	48,795000
1,853935	-0,142173	108,636	-0,078675	22,460000	48,795000
1,856932	-0,236566	109,086	-0,078715	22,460000	48,795000
1,859907	-0,023307	109,536	-0,078625	22,460000	48,795000
1,862929	-0,054771	109,986	-0,078639	22,460000	48,795000
1,865945	-0,039622	110,438	-0,078632	22,460000	48,795000
1,868935	-0,157322	110,889	-0,078682	22,460000	48,795000
1,871943	0,071086	111,339	-0,078586	22,460000	48,795000
1,874922	0,000000	111,790	-0,078616	22,460000	48,825000
1,877914	-0,221416	112,240	-0,078708	22,460000	48,825000
1,880895	0,047779	112,691	-0,078596	22,460000	48,825000
1,883940	-0,079244	113,141	-0,078649	22,460000	48,825000
1,886925	0,173637	113,592	-0,078543	22,460000	48,825000
1,889959	0,047779	114,044	-0,078596	22,460000	48,810000
1,892921	-0,118866	114,496	-0,078666	22,460000	48,810000
1,895942	-0,157322	114,946	-0,078682	22,460000	48,810000
1,898894	-0,228408	115,397	-0,078711	22,460000	48,810000
1,901923	-0,339117	115,848	-0,078758	22,460000	48,810000
1,904960	-0,244723	116,299	-0,078718	22,460000	48,810000
1,907912	-0,213259	116,749	-0,078705	22,460000	48,810000
1,910968	-0,134015	117,199	-0,078672	22,460000	48,810000
1,913952	-0,087401	117,650	-0,078652	22,460000	48,810000
1,916919	-0,307652	118,101	-0,078745	22,460000	48,810000
1,919956	-0,142173	118,551	-0,078675	22,460000	48,810000
1,922927	-0,023307	119,002	-0,078625	22,460000	48,810000
1,925908	-0,150330	119,453	-0,078679	22,460000	48,810000
1,928936	-0,087401	119,904	-0,078652	22,460000	48,810000
1,931920	-0,299495	120,355	-0,078741	22,460000	48,810000
1,934949	0,086236	120,807	-0,078580	22,460000	48,810000
1,937944	-0,181794	121,258	-0,078692	22,460000	48,810000
1,940913	-0,062929	121,710	-0,078642	22,470000	48,825000
1,943910	-0,268030	122,161	-0,078728	22,470000	48,825000
1,946906	-0,157322	122,612	-0,078682	22,470000	48,825000
1,949964	-0,196944	123,064	-0,078698	22,470000	48,825000
1,952969	-0,332124	123,516	-0,078755	22,470000	48,825000
1,955961	-0,378738	123,966	-0,078774	22,460000	48,825000
1,958953	-0,102551	124,416	-0,078659	22,460000	48,825000
1,961935	-0,244723	124,866	-0,078718	22,460000	48,825000
1,964929	-0,323967	125,316	-0,078751	22,460000	48,825000
1,967927	-0,449825	125,768	-0,078804	22,460000	48,825000
1,970938	-0,386896	126,220	-0,078778	22,460000	48,825000
1,973895	-0,244723	126,670	-0,078718	22,460000	48,825000
1,976896	-0,339117	127,120	-0,078758	22,460000	48,825000
1,979913	-0,244723	127,570	-0,078718	22,460000	48,825000
1,982922	-0,221416	128,020	-0,078708	22,460000	48,825000
1,985920	-0,457982	128,471	-0,078808	22,460000	48,825000
1,988941	-0,276188	128,922	-0,078731	22,460000	48,825000
1,991880	-0,284345	129,373	-0,078735	22,460000	48,825000
1,994907	-0,252881	129,826	-0,078722	22,440000	48,790000
1,997868	-0,402045	130,276	-0,078784	22,440000	48,790000
2,000935	-0,362424	130,726	-0,078768	22,440000	48,790000
2,003917	-0,071086	131,176	-0,078646	22,440000	48,790000
2,006962	-0,228408	131,627	-0,078711	22,440000	48,790000
2,009914	-0,489447	132,078	-0,078821	22,460000	48,835000
2,012889	-0,457982	132,529	-0,078808	22,460000	48,835000
2,015917	-0,410203	132,981	-0,078788	22,460000	48,835000
2,018893	-0,679398	133,432	-0,078900	22,460000	48,835000
2,021885	-0,395053	133,882	-0,078781	22,460000	48,825000
2,024880	-0,466140	134,334	-0,078811	22,460000	48,825000
2,027918	-0,552375	134,786	-0,078847	22,460000	48,825000
2,030912	-0,671241	135,237	-0,078897	22,460000	48,825000
2,033918	-0,646769	135,689	-0,078887	22,460000	48,825000
2,036909	-0,607147	136,139	-0,078870	22,470000	48,785000
2,039900	-0,545383	136,591	-0,078844	22,470000	48,785000
2,042951	-0,552375	137,042	-0,078847	22,470000	48,785000
2,045897	-0,788941	137,493	-0,078946	22,470000	48,785000
2,048920	-0,679398	137,943	-0,078900	22,470000	48,785000
2,051886	-0,828563	138,395	-0,078963	22,470000	48,785000
2,054854	-0,820406	138,846	-0,078959	22,470000	48,785000
2,057887	-0,868185	139,296	-0,078979	22,470000	48,785000
2,060887	-0,876342	139,747	-0,078983	22,450000	48,785000
2,063911	-1,041822	140,198	-0,079052	22,450000	48,785000
2,066963	-1,041822	140,648	-0,079052	22,450000	48,785000
2,069907	-7,168062	141,098	-0,081619	22,450000	48,785000
2,072891	-50,466606	141,549	-0,099761	22,450000	48,785000
2,075898	-48,201167	142,001	-0,098812	22,450000	48,825000
2,078924	-44,459231	142,451	-0,097244	22,450000	48,825000
2,081918	-41,459623	142,901	-0,095987	22,450000	48,825000
2,084893	-39,447065	143,351	-0,095144	22,450000	48,825000
2,087954	-36,565157	143,802	-0,093937	22,460000	48,810000
2,090945	-33,471155	144,252	-0,092640	22,460000	48,810000
2,093923	-29,484496	144,702	-0,090970	22,460000	48,810000
2,096913	-27,124664	145,152	-0,089981	22,460000	48,810000
2,099896	-24,257906	145,603	-0,088780	22,460000	48,810000
2,102921	-20,722237	146,054	-0,087298	22,460000	48,810000
2,105964	-17,588613	146,504	-0,085985	22,460000	48,810000
2,108898	-15,212466	146,955	-0,084990	22,460000	48,810000
2,111908	-12,433109	147,407	-0,083825	22,460000	48,810000
2,114959	-9,299485	147,858	-0,082512	22,470000	48,835000
2,117899	-6,015532	148,308	-0,081136	22,470000	48,835000
2,120947	-3,434284	148,759	-0,080055	22,470000	48,835000
2,123895	-0,520911	149,211	-0,078834	22,470000	48,835000
2,126979	2,407611	149,662	-0,077607	22,470000	48,835000
2,129948	6,457199	150,112	-0,075910	22,450000	48,795000
2,132908	8,810039	150,562	-0,074924	22,450000	48,795000
2,135938	11,746718	151,012	-0,073694	22,450000	48,795000
2,138917	14,723020	151,462	-0,072447	22,450000	48,795000
2,141917	17,430126	151,912	-0,071313	22,450000	48,795000
2,144925	20,256097	152,363	-0,070128	22,450000	48,795000
2,147913	24,045812	152,814	-0,068541	22,450000	48,795000
2,150910	28,055778	153,266	-0,066860	22,450000	48,795000
2,153895	30,779199	153,716	-0,065719	22,450000	48,785000
2,156948	33,439691	154,166	-0,064604	22,450000	48,785000
2,159906	35,870609	154,617	-0,063586	22,450000	48,785000
2,162889	39,557773	155,067	-0,062041	22,450000	48,785000
2,165975	42,651775	155,518	-0,060745	22,450000	48,785000
2,168918	44,885749	155,968	-0,059809	22,460000	48,795000
2,171913	47,996066	156,418	-0,058505	22,460000	48,795000
2,174898	51,809088	156,869	-0,056908	22,460000	48,795000
2,177935	54,816854	157,320	-0,055647	22,460000	48,795000
2,180941	57,793155	157,770	-0,054400	22,460000	48,795000
2,183921	60,389553	158,221	-0,053312	22,460000	48,795000
2,186990	63,311083	158,673	-0,052088	22,460000	48,795000
2,189899	66,570564	159,125	-0,050723	22,460000	48,795000
2,192928	69,159970	159,577	-0,049638	22,460000	48,795000
2,195900	72,025563	160,028	-0,048437	22,460000	48,785000
2,198941	75,302525	160,479	-0,047064	22,460000	48,785000
2,201906	78,585313	160,931	-0,045688	22,460000	48,785000
2,204923	81,238813	161,381	-0,044577	22,460000	48,785000
2,207899	83,858517	161,832	-0,043479	22,460000	48,810000
2,210887	87,805555	162,283	-0,041825	22,460000	48,810000
2,213905	90,277260	162,735	-0,040790	22,460000	48,810000
2,216921	93,395734	163,187	-0,039483	22,460000	48,810000
2,219940	96,987340	163,637	-0,037978	22,460000	48,810000
2,222989	99,355329	164,089	-0,036986	22,470000	48,810000
2,225879	102,733676	164,539	-0,035570	22,470000	48,810000
2,228933	105,196058	164,989	-0,034539	22,470000	48,810000
2,231930	109,214182	165,439	-0,032855	22,470000	48,810000
2,234943	111,251212	165,890	-0,032001	22,460000	48,810000
2,237938	114,346379	166,340	-0,030705	22,460000	48,810000
2,240920	118,009071	166,790	-0,029170	22,460000	48,810000
2,243933	120,092715	167,241	-0,028297	22,460000	48,810000
2,246921	124,181925	167,692	-0,026583	22,460000	48,810000
2,249938	127,315549	168,142	-0,025271	22,460000	48,795000
2,252964	129,084548	168,593	-0,024529	22,460000	48,795000
2,255915	132,155243	169,044	-0,023243	22,460000	48,795000
2,256967	134,096715	169,495	-0,022429	22,460000	48,795000
2,256913	134,175958	169,947	-0,022396	22,460000	48,795000
2,255930	133,307773	170,399	-0,022760	22,460000	48,795000
2,252893	130,978241	170,850	-0,023736	22,460000	48,795000
2,249876	127,608051	171,300	-0,025148	22,460000	48,795000
2,246941	123,581770	171,750	-0,026835	22,450000	48,795000
2,243904	121,395575	172,201	-0,027751	22,450000	48,795000
2,240882	118,032378	172,652	-0,029160	22,450000	48,795000
2,237919	115,395193	173,102	-0,030265	22,450000	48,795000
2,234938	111,504093	173,552	-0,031896	22,450000	48,795000
2,231913	108,345997	174,003	-0,033219	22,460000	48,825000
2,228939	105,749599	174,455	-0,034307	22,460000	48,825000
2,225941	102,434181	174,906	-0,035696	22,460000	48,825000
2,222935	99,489344	175,356	-0,036930	22,460000	48,825000
2,219921	97,136504	175,806	-0,037916	22,470000	48,825000
2,216914	94,019196	176,257	-0,039222	22,470000	48,825000
2,213890	90,521983	176,708	-0,040687	22,470000	48,825000
2,210872	88,145836	177,158	-0,041683	22,470000	48,825000
2,207934	84,119555	177,608	-0,043370	22,470000	48,825000
2,204943	81,956668	178,058	-0,044276	22,470000	48,825000
2,201920	78,143646	178,509	-0,045874	22,470000	48,825000
2,198894	75,941136	178,960	-0,046796	22,470000	48,825000
2,195943	73,107007	179,410	-0,047984	22,470000	48,825000
2,192904	70,201792	179,860	-0,049201	22,460000	48,810000
2,189939	66,768674	180,311	-0,050640	22,460000	48,810000
2,186922	62,765700	180,762	-0,052317	22,460000	48,810000
2,183928	60,563190	181,214	-0,053240	22,460000	48,810000
2,180923	56,371429	181,664	-0,054996	22,460000	48,810000
2,177953	54,264478	182,114	-0,055879	22,470000	48,825000
2,174886	51,351106	182,565	-0,057100	22,470000	48,825000
2,171881	47,933137	183,016	-0,058532	22,470000	48,825000
2,168944	45,422975	183,468	-0,059583	22,470000	48,825000
2,165937	42,044628	183,918	-0,060999	22,470000	48,825000
2,162885	39,060169	184,368	-0,062250	22,470000	48,825000
2,159897	34,954645	184,820	-0,063970	22,470000	48,825000
2,156905	32,784765	185,271	-0,064879	22,470000	48,825000
2,153885	30,028714	185,722	-0,066034	22,460000	48,795000
2,150946	26,208700	186,172	-0,067634	22,460000	48,795000
2,147920	24,014348	186,623	-0,068554	22,460000	48,795000
2,144948	20,958803	187,073	-0,069834	22,460000	48,795000
2,141907	17,800707	187,524	-0,071157	22,460000	48,795000
2,138934	14,801098	187,974	-0,072414	22,450000	48,825000
2,135960	11,517145	188,426	-0,073790	22,450000	48,825000
2,132888	8,059554	188,879	-0,075239	22,450000	48,825000
2,129934	4,807065	189,330	-0,076602	22,450000	48,825000
2,126946	2,581248	189,780	-0,077534	22,450000	48,825000
2,123908	-0,370581	190,231	-0,078771	22,450000	48,825000
2,120906	-3,505370	190,682	-0,080084	22,450000	48,825000
2,117913	-6,125075	191,134	-0,081182	22,450000	48,825000
2,114915	-9,544209	191,584	-0,082615	22,450000	48,825000
2,111860	-12,874776	192,034	-0,084010	22,460000	48,810000
2,108912	-16,333532	192,485	-0,085459	22,460000	48,810000
2,105917	-19,427534	192,936	-0,086756	22,460000	48,810000
2,102952	-21,440092	193,387	-0,087599	22,460000	48,810000
2,099906	-24,590030	193,839	-0,088919	22,460000	48,810000
2,096943	-27,629261	194,289	-0,090192	22,460000	48,810000
2,093918	-31,687006	194,739	-0,091893	22,460000	48,810000
2,090906	-34,000224	195,189	-0,092862	22,460000	48,810000
2,087923	-37,852868	195,639	-0,094476	22,460000	48,810000
2,084907	-39,944669	196,090	-0,095353	22,460000	48,785000
2,081944	-43,850919	196,540	-0,096989	22,460000	48,785000
2,078959	-46,014972	196,990	-0,097896	22,460000	48,785000
2,075940	-48,990109	197,441	-0,099143	22,460000	48,785000
2,072950	-52,006032	197,891	-0,100406	22,460000	48,785000
2,069935	-55,250364	198,344	-0,101766	22,460000	48,785000
2,066925	-59,111165	198,795	-0,103383	22,460000	48,785000
2,063945	-61,589862	199,246	-0,104422	22,460000	48,785000
2,060954	-65,221090	199,697	-0,105943	22,460000	48,785000
2,057904	-68,647216	200,148	-0,107379	22,460000	48,795000
2,054901	-70,525759	200,598	-0,108166	22,460000	48,795000
2,051935	-73,636075	201,050	-0,109469	22,460000	48,795000
2,048944	-76,516818	201,500	-0,110676	22,460000	48,795000
2,045930	-79,722694	201,950	-0,112020	22,460000	48,795000
2,042943	-83,077733	202,401	-0,113425	22,460000	48,795000
2,039921	-86,669339	202,852	-0,114930	22,460000	48,795000
2,036924	-88,690054	203,304	-0,115777	22,460000	48,795000
2,033941	-92,969216	203,754	-0,117570	22,460000	48,795000
2,030961	-94,910688	204,204	-0,118383	22,460000	48,795000
2,027943	-97,610801	204,655	-0,119515	22,460000	48,795000
2,024889	-101,936577	205,107	-0,121327	22,460000	48,795000
2,021925	-104,210173	205,559	-0,122280	22,460000	48,795000
2,018949	-108,101273	206,009	-0,123910	22,460000	48,795000
2,015956	-110,445956	206,460	-0,124893	22,460000	48,795000
2,012963	-112,932811	206,910	-0,125935	22,460000	48,795000
2,009875	-117,030178	207,361	-0,127651	22,460000	48,795000
2,006928	-119,208215	207,812	-0,128564	22,460000	48,785000
2,003902	-122,429240	208,262	-0,129914	22,460000	48,785000
2,000928	-125,200440	208,713	-0,131075	22,460000	48,785000
1,997934	-129,123005	209,164	-0,132718	22,460000	48,785000
1,994931	-132,036378	209,614	-0,133939	22,460000	48,785000
1,991902	-135,533590	210,064	-0,135404	22,460000	48,785000
1,988900	-138,154460	210,514	-0,136502	22,460000	48,785000
1,985958	-141,493185	210,964	-0,137901	22,460000	48,785000
1,982941	-143,720167	211,414	-0,138834	22,460000	48,785000
1,979936	-146,309573	211,864	-0,139919	22,460000	48,795000
1,976922	-149,687920	212,314	-0,141335	22,460000	48,795000
1,973910	-152,198081	212,765	-0,142387	22,460000	48,795000
1,970915	-155,695294	213,215	-0,143852	22,460000	48,795000
1,967941	-159,437230	213,666	-0,145420	22,460000	48,795000
1,964983	-161,529031	214,118	-0,146296	22,460000	48,825000
1,961923	-165,673012	214,568	-0,148033	22,460000	48,825000
1,958928	-167,599334	215,019	-0,148840	22,460000	48,825000
1,955912	-171,814402	215,469	-0,150606	22,460000	48,825000
1,952927	-173,551937	215,920	-0,151334	22,460000	48,825000
1,949912	-177,475668	216,370	-0,152978	22,460000	48,825000
1,946977	-179,724791	216,821	-0,153920	22,460000	48,825000
1,943961	-183,008745	217,272	-0,155296	22,460000	48,825000
1,940907	-186,782145	217,724	-0,156877	22,470000	48,755000
1,937911	-188,629223	218,176	-0,157651	22,470000	48,755000
1,934935	-191,850248	218,626	-0,159001	22,470000	48,755000
1,931939	-195,797285	219,077	-0,160655	22,470000	48,755000
1,928936	-198,884295	219,528	-0,161948	22,470000	48,755000
1,925949	-201,899053	219,978	-0,163211	22,470000	48,755000
1,922958	-204,228586	220,428	-0,164188	22,470000	48,755000
1,919970	-208,025293	220,879	-0,165778	22,470000	48,755000
1,916934	-210,353660	221,329	-0,166754	22,470000	48,755000
1,913966	-212,840515	221,779	-0,167796	22,460000	48,795000
1,910939	-216,511364	222,229	-0,169334	22,460000	48,795000
1,907931	-218,847889	222,679	-0,170313	22,460000	48,795000
1,904978	-221,665703	223,130	-0,171494	22,460000	48,795000
1,901953	-224,721249	223,580	-0,172774	22,460000	48,795000
1,898901	-228,084446	224,031	-0,174183	22,460000	48,785000
1,895937	-231,044432	224,481	-0,175423	22,460000	48,785000
1,892955	-235,480916	224,933	-0,177282	22,460000	48,785000
1,889904	-237,430545	225,384	-0,178099	22,460000	48,785000
1,886930	-240,446469	225,834	-0,179363	22,460000	48,795000
1,883975	-244,109161	226,286	-0,180897	22,460000	48,795000
1,880948	-247,432736	226,736	-0,182290	22,460000	48,795000
1,877931	-249,430144	227,186	-0,183127	22,460000	48,795000
1,874936	-253,179072	227,637	-0,184698	22,460000	48,795000
1,871936	-255,515597	228,089	-0,185677	22,450000	48,825000
1,868907	-259,644429	228,540	-0,187407	22,450000	48,825000
1,865930	-261,444893	228,990	-0,188161	22,450000	48,825000
1,862912	-264,428187	229,442	-0,189411	22,450000	48,825000
1,859986	-268,588483	229,892	-0,191154	22,450000	48,825000
1,856943	-271,194203	230,342	-0,192246	22,450000	48,825000
1,853870	-273,585499	230,793	-0,193248	22,450000	48,825000
1,850925	-276,909075	231,244	-0,194641	22,450000	48,825000
1,847936	-279,672117	231,695	-0,195798	22,450000	48,825000
1,844941	-282,554026	232,146	-0,197006	22,470000	48,810000
1,841902	-286,737629	232,596	-0,198759	22,470000	48,810000
1,838960	-288,978595	233,046	-0,199698	22,470000	48,810000
1,835966	-292,705381	233,496	-0,201259	22,470000	48,810000
1,832981	-294,772710	233,947	-0,202125	22,450000	48,795000
1,829942	-298,459875	234,397	-0,203670	22,450000	48,795000
1,826932	-301,964079	234,847	-0,205139	22,450000	48,795000
1,824036	-304,443942	235,299	-0,206178	22,450000	48,795000
1,820959	-307,056655	235,749	-0,207272	22,450000	48,795000
1,817973	-310,104042	236,199	-0,208549	22,450000	48,795000
1,814990	-313,948529	236,650	-0,210160	22,450000	48,795000
1,811935	-315,850379	237,100	-0,210957	22,450000	48,795000
1,808941	-319,876659	237,551	-0,212644	22,450000	48,795000
1,805944	-322,403136	238,001	-0,213703	22,460000	48,795000
1,802945	-326,009891	238,452	-0,215214	22,460000	48,795000
1,799966	-328,488589	238,902	-0,216252	22,460000	48,795000
1,796944	-332,080195	239,352	-0,217757	22,460000	48,795000
1,793937	-335,317534	239,804	-0,219114	22,460000	48,795000
1,790925	-337,179762	240,254	-0,219894	22,460000	48,795000
1,787940	-340,132757	240,704	-0,221131	22,460000	48,795000
1,784982	-343,598505	241,156	-0,222583	22,460000	48,795000
1,781966	-347,221575	241,607	-0,224102	22,460000	48,795000
1,778967	-349,637343	242,058	-0,225114	22,460000	48,795000
1,775968	-353,205642	242,509	-0,226609	22,460000	48,795000
1,772929	-355,454766	242,960	-0,227551	22,460000	48,795000
1,769911	-359,236323	243,410	-0,229136	22,460000	48,795000
1,766929	-361,123024	243,861	-0,229926	22,460000	48,825000
1,763924	-364,683165	244,311	-0,231418	22,460000	48,825000
1,760966	-367,075626	244,761	-0,232420	22,460000	48,825000
1,757978	-370,257029	245,211	-0,233753	22,460000	48,825000
1,754986	-373,225173	245,661	-0,234997	22,460000	48,825000
1,751973	-376,438041	246,111	-0,236343	22,460000	48,825000
1,748954	-379,264012	246,562	-0,237527	22,460000	48,825000
1,745981	-383,211049	247,012	-0,239181	22,460000	48,825000
1,742920	-386,305051	247,463	-0,240478	22,460000	48,825000
1,739991	-389,013322	247,913	-0,241612	22,470000	48,825000
1,736958	-391,546791	248,364	-0,242674	22,470000	48,825000
1,733948	-394,673423	248,814	-0,243984	22,470000	48,825000
1,730971	-398,769624	249,264	-0,245700	22,470000	48,825000
1,727918	-401,509360	249,715	-0,246848	22,460000	48,770000
1,724960	-404,319017	250,166	-0,248025	22,460000	48,770000
1,721954	-407,745143	250,617	-0,249461	22,460000	48,770000
1,718941	-410,342706	251,069	-0,250549	22,460000	48,770000
1,715983	-412,639609	251,520	-0,251512	22,460000	48,770000
1,712941	-415,734776	251,971	-0,252809	22,460000	48,770000
1,709932	-418,458197	252,422	-0,253950	22,460000	48,770000
1,706944	-421,907630	252,874	-0,255395	22,460000	48,770000
1,703974	-425,593629	253,324	-0,256939	22,460000	48,770000
1,700957	-427,954626	253,774	-0,257929	22,470000	48,810000
1,697946	-431,870199	254,224	-0,259569	22,470000	48,810000
1,694974	-433,700962	254,677	-0,260336	22,470000	48,810000
1,691959	-436,930144	255,128	-0,261689	22,470000	48,810000
1,688950	-439,851674	255,578	-0,262914	22,470000	48,810000
1,685990	-443,024920	256,029	-0,264243	22,450000	48,795000
1,682964	-446,032686	256,480	-0,265503	22,450000	48,795000
1,679983	-449,024137	256,931	-0,266757	22,450000	48,795000
1,676958	-451,810486	257,382	-0,267924	22,450000	48,795000
1,673936	-456,057018	257,833	-0,269704	22,450000	48,810000
1,671012	-458,370236	258,283	-0,270673	22,450000	48,810000
1,667943	-461,101814	258,735	-0,271817	22,450000	48,810000
1,664951	-464,306524	259,186	-0,273160	22,450000	48,810000
1,661955	-466,912245	259,636	-0,274252	22,450000	48,810000
1,658947	-470,345363	260,086	-0,275690	22,470000	48,810000
1,655962	-473,250578	260,537	-0,276908	22,470000	48,810000
1,652973	-476,243194	260,987	-0,278162	22,470000	48,810000
1,650028	-480,213539	261,438	-0,279825	22,470000	48,810000
1,646941	-482,289025	261,889	-0,280695	22,470000	48,810000
1,643930	-485,091690	262,341	-0,281869	22,470000	48,810000
1,640958	-487,862890	262,791	-0,283030	22,470000	48,810000
1,637990	-491,881013	263,241	-0,284714	22,470000	48,810000
1,634997	-495,259360	263,692	-0,286129	22,470000	48,810000
1,631979	-497,635507	264,144	-0,287125	22,460000	48,810000
1,628924	-501,109412	264,596	-0,288581	22,460000	48,810000
1,625982	-503,454095	265,046	-0,289563	22,460000	48,810000
1,623003	-506,295216	265,496	-0,290753	22,460000	48,810000
1,619961	-509,421847	265,947	-0,292063	22,460000	48,810000
1,616943	-512,919060	266,398	-0,293529	22,460000	48,810000
1,613971	-516,123769	266,850	-0,294872	22,460000	48,810000
1,610973	-518,121178	267,301	-0,295708	22,460000	48,810000
1,607931	-522,217380	267,751	-0,297425	22,470000	48,810000
1,604975	-524,475826	268,203	-0,298371	22,470000	48,810000
1,601965	-528,193289	268,654	-0,299929	22,470000	48,810000
1,598921	-530,301406	269,104	-0,300812	22,470000	48,810000
1,595938	-533,301014	269,555	-0,302069	22,470000	48,810000
1,592974	-537,375075	270,006	-0,303776	22,470000	48,810000
1,589977	-539,584576	270,456	-0,304702	22,470000	48,810000
1,586982	-542,363934	270,907	-0,305866	22,470000	48,810000
1,583980	-546,294656	271,357	-0,307513	22,470000	48,810000
1,580970	-549,128785	271,807	-0,308701	22,460000	48,825000
1,577966	-551,496774	272,257	-0,309693	22,460000	48,825000
1,574980	-554,133959	272,707	-0,310798	22,460000	48,825000
1,572013	-557,851423	273,158	-0,312355	22,460000	48,825000
1,568960	-561,285706	273,609	-0,313794	22,460000	48,825000
1,565981	-563,630389	274,059	-0,314777	22,460000	48,825000
1,562927	-567,261616	274,510	-0,316298	22,460000	48,825000
1,559972	-569,353418	274,960	-0,317175	22,460000	48,825000
1,557003	-573,331919	275,410	-0,318842	22,460000	48,825000
1,553964	-575,163848	275,860	-0,319609	22,450000	48,795000
1,550994	-577,831332	276,310	-0,320727	22,450000	48,795000
1,547946	-581,225994	276,761	-0,322149	22,450000	48,795000
1,544928	-584,384090	277,212	-0,323473	22,450000	48,795000
1,542003	-588,165647	277,662	-0,325057	22,450000	48,795000
1,539002	-590,968312	278,113	-0,326231	22,470000	48,785000
1,536016	-594,110093	278,563	-0,327548	22,470000	48,785000
1,532978	-596,549168	279,015	-0,328570	22,470000	48,785000
1,529947	-600,266632	279,466	-0,330127	22,470000	48,785000
1,526983	-602,184796	279,917	-0,330931	22,440000	48,750000
1,523983	-606,298479	280,368	-0,332655	22,440000	48,750000
1,520985	-608,271414	280,819	-0,333481	22,440000	48,750000
1,518010	-611,563526	281,270	-0,334861	22,440000	48,750000
1,514951	-613,962979	281,721	-0,335866	22,460000	48,785000
1,511939	-617,357641	282,173	-0,337289	22,460000	48,785000
1,508975	-621,233592	282,624	-0,338913	22,460000	48,785000
1,505971	-623,490873	283,074	-0,339858	22,460000	48,785000
1,502965	-626,523111	283,526	-0,341129	22,460000	48,785000
1,499996	-629,317618	283,977	-0,342300	22,460000	48,770000
1,496976	-632,427935	284,428	-0,343603	22,460000	48,770000
1,493978	-634,921782	284,878	-0,344648	22,460000	48,770000
1,490973	-638,829197	285,328	-0,346285	22,460000	48,770000
1,488006	-641,450067	285,781	-0,347383	22,460000	48,810000
1,484980	-644,616320	286,231	-0,348710	22,460000	48,810000
1,481941	-648,444492	286,683	-0,350314	22,460000	48,810000
1,478972	-650,173870	287,133	-0,351039	22,460000	48,810000
1,475963	-654,119742	287,585	-0,352692	22,460000	48,810000
1,472958	-656,290787	288,037	-0,353602	22,460000	48,825000
1,469994	-659,946487	288,488	-0,355133	22,460000	48,825000
1,466937	-663,268897	288,938	-0,356525	22,460000	48,825000
1,463976	-665,512194	289,389	-0,357465	22,460000	48,825000
1,460954	-669,466224	289,840	-0,359122	22,460000	48,825000
1,457950	-671,479947	290,291	-0,359966	22,460000	48,825000
1,454958	-675,181095	290,741	-0,361517	22,460000	48,825000
1,451976	-677,510628	291,191	-0,362493	22,460000	48,825000
1,448960	-680,905290	291,642	-0,363915	22,460000	48,825000
1,445940	-683,328050	292,092	-0,364930	22,460000	48,755000
1,443002	-687,038522	292,543	-0,366485	22,460000	48,755000
1,439971	-690,014823	292,994	-0,367732	22,460000	48,755000
1,436998	-692,058845	293,444	-0,368588	22,460000	48,755000
1,434001	-696,465030	293,894	-0,370435	22,460000	48,755000
1,430964	-698,239857	294,344	-0,371178	22,460000	48,755000
1,427973	-702,014422	294,795	-0,372760	22,460000	48,755000
1,424973	-704,824079	295,245	-0,373937	22,460000	48,755000
1,421956	-706,900731	295,695	-0,374807	22,460000	48,755000
1,419029	-710,823296	296,146	-0,376451	22,460000	48,795000
1,416008	-713,981392	296,598	-0,377774	22,460000	48,795000
1,413010	-716,127965	297,048	-0,378673	22,460000	48,795000
1,409937	-719,286061	297,499	-0,379997	22,460000	48,795000
1,407009	-722,325291	297,949	-0,381270	22,460000	48,795000
1,404003	-724,938003	298,399	-0,382365	22,460000	48,795000
1,401010	-729,051686	298,850	-0,384088	22,460000	48,795000
1,397941	-731,790256	299,301	-0,385236	22,460000	48,795000
1,394964	-734,055694	299,751	-0,386185	22,470000	48,810000
1,391959	-737,995739	300,201	-0,387836	22,470000	48,810000
1,389019	-739,953526	300,651	-0,388656	22,470000	48,810000
1,386027	-742,873891	301,101	-0,389880	22,470000	48,810000
1,382995	-745,991199	301,551	-0,391186	22,470000	48,810000
1,379956	-749,078209	302,001	-0,392479	22,470000	48,810000
1,376983	-752,922695	302,452	-0,394090	22,470000	48,810000
1,374024	-754,761616	302,903	-0,394861	22,470000	48,810000
1,370984	-758,306608	303,354	-0,396346	22,470000	48,810000
1,367968	-761,985615	303,805	-0,397888	22,460000	48,795000
1,365005	-763,983023	304,256	-0,398725	22,460000	48,795000
1,361968	-767,803037	304,706	-0,400325	22,460000	48,795000
1,358978	-770,668631	305,158	-0,401526	22,460000	48,795000
1,355967	-773,076242	305,608	-0,402535	22,460000	48,795000
1,353007	-776,123630	306,059	-0,403812	22,460000	48,810000
1,349972	-778,752657	306,510	-0,404913	22,460000	48,810000
1,346982	-781,957367	306,960	-0,406256	22,460000	48,810000
1,343978	-785,904404	307,411	-0,407910	22,460000	48,810000
1,340935	-787,617467	307,861	-0,408627	22,460000	48,810000
1,337986	-791,595969	308,313	-0,410294	22,460000	48,810000
1,334960	-793,601535	308,764	-0,411135	22,460000	48,810000
1,331986	-797,500792	309,215	-0,412769	22,460000	48,810000
1,328954	-800,998005	309,666	-0,414234	22,460000	48,810000
1,325963	-802,829934	310,117	-0,415001	22,460000	48,770000
1,322983	-806,729192	310,567	-0,416635	22,460000	48,770000
1,320011	-809,831351	311,017	-0,417935	22,460000	48,770000
1,316967	-812,862424	311,467	-0,419205	22,460000	48,770000
1,313943	-814,939076	311,918	-0,420075	22,460000	48,810000
1,310976	-817,504009	312,369	-0,421150	22,460000	48,810000
1,307915	-820,804277	312,819	-0,422533	22,460000	48,810000
1,305004	-824,309647	313,270	-0,424001	22,460000	48,810000
1,301963	-827,671679	313,720	-0,425410	22,470000	48,795000
[...]
3,388396	1407,675222	542,854	0,511478	22,430000	48,635000
3,381424	1400,467538	543,906	0,508458	22,430000	48,635000
3,374405	1394,579029	544,958	0,505991	22,440000	48,650000
3,367410	1386,526467	546,010	0,502617	22,440000	48,650000
3,360331	1380,186969	547,062	0,499960	22,440000	48,650000
3,353377	1372,616861	548,113	0,496789	22,440000	48,650000
3,346395	1366,072261	549,163	0,494046	22,420000	48,650000
3,339457	1358,660641	550,215	0,490941	22,430000	48,660000
3,332391	1351,887632	551,267	0,488103	22,430000	48,660000
3,325454	1344,979443	552,320	0,485208	22,430000	48,660000
3,318384	1338,112041	553,371	0,482331	22,430000	48,660000
3,311375	1330,178345	554,426	0,479007	22,440000	48,635000
3,304434	1324,005491	555,478	0,476420	22,440000	48,635000
3,297424	1315,842221	556,528	0,473000	22,450000	48,695000
3,290469	1308,848961	557,582	0,470070	22,450000	48,695000
3,283405	1302,067795	558,635	0,467229	22,420000	48,660000
3,276421	1295,617588	559,686	0,464526	22,420000	48,660000
3,269414	1287,700207	560,740	0,461208	22,420000	48,660000
3,262426	1280,381815	561,790	0,458142	22,420000	48,660000
3,255384	1274,722880	562,840	0,455771	22,430000	48,660000
3,248442	1266,450067	563,893	0,452305	22,430000	48,660000
3,241421	1260,347134	564,945	0,449748	22,440000	48,650000
3,234401	1253,061372	565,997	0,446695	22,440000	48,650000
3,227452	1246,390914	567,050	0,443900	22,430000	48,650000
3,220422	1237,739363	568,102	0,440275	22,430000	48,650000
3,213396	1231,952239	569,153	0,437850	22,420000	48,675000
3,206455	1224,365817	570,206	0,434671	22,430000	48,675000
3,199485	1217,885311	571,257	0,431956	22,430000	48,675000
3,192466	1210,575076	572,309	0,428893	22,430000	48,675000
3,185428	1203,218228	573,362	0,425811	22,430000	48,675000
3,178431	1195,205288	574,414	0,422453	22,430000	48,660000
3,171455	1189,932083	575,468	0,420244	22,430000	48,660000
3,164453	1181,674420	576,522	0,416784	22,420000	48,675000
3,157462	1174,404973	577,574	0,413738	22,420000	48,675000
3,150477	1167,314989	578,626	0,410767	22,430000	48,675000
3,143382	1160,234328	579,678	0,407800	22,430000	48,675000
3,136415	1153,453162	580,731	0,404959	22,430000	48,660000
3,129439	1146,751240	581,783	0,402151	22,430000	48,660000
3,122427	1139,125196	582,834	0,398956	22,430000	48,660000
3,115468	1132,699461	583,885	0,396263	22,430000	48,660000
3,108414	1124,907937	584,938	0,392999	22,450000	48,665000
3,101473	1118,711777	585,990	0,390402	22,450000	48,665000
3,094451	1110,406334	587,044	0,386922	22,430000	48,635000
3,087422	1104,297574	588,095	0,384363	22,430000	48,635000
3,080451	1096,426807	589,147	0,381065	22,430000	48,675000
3,073496	1089,447531	590,198	0,378141	22,430000	48,635000
3,066469	1082,864475	591,249	0,375382	22,430000	48,635000
3,059445	1076,099623	592,302	0,372548	22,430000	48,635000
3,052475	1069,231056	593,352	0,369670	22,430000	48,635000
3,045473	1060,950086	594,403	0,366200	22,430000	48,700000
3,038482	1054,066369	595,454	0,363316	22,430000	48,700000
3,031412	1047,987908	596,508	0,360769	22,430000	48,700000
3,024448	1039,888732	597,560	0,357375	22,430000	48,700000
3,017463	1034,316033	598,613	0,355041	22,440000	48,660000
3,010424	1027,321608	599,663	0,352110	22,440000	48,660000
3,003486	1018,668892	600,714	0,348484	22,440000	48,660000
2,996456	1011,619695	601,766	0,345531	22,440000	48,660000
2,989528	1005,825580	602,816	0,343103	22,440000	48,660000
2,982441	998,579440	603,869	0,340067	22,440000	48,660000
2,975420	991,719030	604,920	0,337192	22,440000	48,660000
2,968488	984,345866	605,972	0,334103	22,440000	48,660000
2,961433	977,564700	607,025	0,331262	22,430000	48,635000
2,954438	970,578433	608,075	0,328334	22,430000	48,635000
2,947448	962,708831	609,128	0,325037	22,430000	48,635000
2,940467	955,737713	610,178	0,322116	22,430000	48,635000
2,933446	949,746653	611,228	0,319606	22,430000	48,635000
2,926470	942,554119	612,280	0,316592	22,430000	48,660000
2,919459	935,489773	613,332	0,313632	22,430000	48,660000
2,912491	928,480198	614,382	0,310695	22,440000	48,635000
2,905510	921,375065	615,432	0,307718	22,440000	48,635000
2,898479	913,173339	616,485	0,304282	22,430000	48,660000
2,891499	906,068206	617,540	0,301305	22,430000	48,660000
2,884472	900,131918	618,592	0,298817	22,420000	48,650000
2,877500	892,009435	619,642	0,295414	22,420000	48,650000
2,870445	885,354126	620,694	0,292625	22,430000	48,650000
2,863476	878,984328	621,746	0,289957	22,430000	48,650000
2,856464	871,728865	622,796	0,286917	22,430000	48,650000
2,849469	864,861463	623,846	0,284039	22,430000	48,650000
2,842509	856,611957	624,900	0,280583	22,440000	48,635000
2,835512	850,943700	625,955	0,278208	22,440000	48,635000
2,828480	843,286191	627,008	0,274999	22,440000	48,635000
2,821465	836,797528	628,062	0,272280	22,440000	48,635000
2,814407	829,361435	629,115	0,269165	22,420000	48,650000
2,807453	822,161909	630,167	0,266148	22,430000	48,650000
2,800490	815,341121	631,220	0,263290	22,430000	48,650000
2,793510	808,497026	632,273	0,260422	22,430000	48,650000
2,786469	801,037627	633,325	0,257297	22,430000	48,650000
2,779497	794,137595	634,378	0,254406	22,430000	48,650000
2,772501	786,994005	635,432	0,251413	22,430000	48,650000
2,765413	779,597535	636,484	0,248313	22,430000	48,635000
2,758450	772,839676	637,535	0,245482	22,430000	48,635000
2,751488	765,884873	638,589	0,242568	22,440000	48,635000
2,744506	758,843834	639,640	0,239618	22,440000	48,635000
2,737492	751,864558	640,693	0,236693	22,420000	48,610000
2,730537	744,792055	641,744	0,233730	22,420000	48,610000
2,723533	737,789473	642,795	0,230796	22,430000	48,610000
2,716519	730,645883	643,845	0,227803	22,430000	48,610000
2,709479	723,351963	644,898	0,224747	22,440000	48,660000
2,702505	715,631526	645,949	0,221512	22,440000	48,660000
2,695499	709,417885	647,000	0,218908	22,440000	48,660000
2,688466	701,824470	648,050	0,215727	22,440000	48,660000
2,681504	695,722703	649,103	0,213170	22,430000	48,660000
2,674496	688,285445	650,154	0,210054	22,430000	48,660000
2,667535	680,771275	651,204	0,206905	22,430000	48,660000
2,660466	674,613570	652,255	0,204325	22,430000	48,620000
2,653513	666,790582	653,308	0,201047	22,430000	48,620000
2,646536	660,451083	654,361	0,198391	22,430000	48,650000
2,639537	653,180471	655,412	0,195345	22,430000	48,650000
2,632491	646,336376	656,462	0,192477	22,430000	48,650000
2,625490	639,303494	657,512	0,189530	22,430000	48,650000
2,618498	632,506013	658,563	0,186682	22,430000	48,650000
2,611527	625,306487	659,615	0,183666	22,430000	48,650000
2,604487	617,246933	660,666	0,180289	22,430000	48,635000
2,597478	610,087028	661,717	0,177289	22,430000	48,635000
2,590513	603,132225	662,769	0,174375	22,420000	48,635000
2,583505	596,225201	663,821	0,171480	22,420000	48,635000
2,576488	589,862396	664,874	0,168814	22,430000	48,650000
2,569496	583,018301	665,926	0,165947	22,430000	48,650000
2,562528	575,597358	666,980	0,162837	22,430000	48,650000
2,555467	569,163466	668,032	0,160142	22,430000	48,650000
2,548512	561,444194	669,083	0,156907	22,420000	48,610000
2,541504	553,818150	670,133	0,153712	22,430000	48,635000
2,534525	546,706024	671,183	0,150732	22,430000	48,635000
2,527523	540,548320	672,234	0,148152	22,420000	48,650000
2,520494	532,472451	673,286	0,144768	22,420000	48,650000
2,513485	526,741265	674,337	0,142367	22,420000	48,650000
2,506484	518,784261	675,388	0,139033	22,420000	48,650000
2,499530	512,500699	676,440	0,136400	22,420000	48,650000
2,492495	505,489959	677,491	0,133462	22,420000	48,650000
2,485507	498,330055	678,543	0,130462	22,440000	48,620000
2,478492	490,625932	679,595	0,127234	22,440000	48,620000
2,471492	484,381992	680,648	0,124618	22,430000	48,650000
2,464498	477,324638	681,700	0,121661	22,430000	48,650000
2,457452	470,077333	682,753	0,118625	22,430000	48,660000
2,450468	462,538690	683,804	0,115466	22,430000	48,660000
2,443525	456,018562	684,854	0,112734	22,430000	48,660000
2,436483	449,323631	685,906	0,109929	22,430000	48,660000
2,429475	442,266278	686,959	0,106972	22,430000	48,650000
2,422501	434,348896	688,012	0,103654	22,430000	48,650000
2,415474	427,946469	689,064	0,100972	22,430000	48,635000
2,408483	420,210882	690,115	0,097730	22,430000	48,635000
2,401489	414,069492	691,168	0,095157	22,430000	48,650000
2,394544	406,324582	692,220	0,091912	22,430000	48,650000
2,387561	399,852234	693,270	0,089200	22,430000	48,650000
2,380460	392,163261	694,322	0,085979	22,430000	48,650000
2,373453	386,210658	695,372	0,083484	22,430000	48,650000
2,366515	379,192926	696,422	0,080544	22,430000	48,650000
2,359497	372,229965	697,472	0,077626	22,430000	48,650000
2,352480	364,810188	698,522	0,074518	22,430000	48,660000
2,345571	357,823920	699,572	0,071590	22,430000	48,660000
2,338516	350,639544	700,623	0,068580	22,420000	48,635000
2,331574	342,990192	701,675	0,065375	22,420000	48,635000
2,324541	336,035389	702,726	0,062461	22,430000	48,660000
2,317503	329,918472	703,776	0,059898	22,430000	48,660000
2,310523	323,294628	704,828	0,057123	22,430000	48,660000
2,303531	316,158031	705,883	0,054132	22,430000	48,660000
2,296580	308,240649	706,933	0,050815	22,430000	48,660000
2,289516	302,296204	707,984	0,048324	22,430000	48,660000
2,282488	294,717939	709,038	0,045149	22,430000	48,660000
2,275478	286,903108	710,091	0,041875	22,430000	48,660000
2,268441	280,019391	711,142	0,038990	22,440000	48,650000
2,261486	273,072746	712,192	0,036080	22,440000	48,620000
2,254532	265,747362	713,243	0,033010	22,440000	48,620000
2,247560	259,945089	714,296	0,030579	22,430000	48,660000
2,240492	252,231643	715,348	0,027347	22,430000	48,660000
2,233521	244,906259	716,398	0,024278	22,420000	48,660000
2,226541	238,085471	717,448	0,021420	22,420000	48,660000
2,219535	230,689001	718,500	0,018321	22,430000	48,650000
2,212539	224,807484	719,551	0,015856	22,430000	48,650000
2,205539	216,676844	720,602	0,012450	22,430000	48,650000
2,198509	210,503990	721,654	0,009863	22,430000	48,650000
2,191446	202,877946	722,706	0,006668	22,430000	48,650000
2,184473	196,594384	723,759	0,004035	22,430000	48,650000
2,177513	188,683995	724,811	0,000721	22,420000	48,660000
2,170539	181,982072	725,865	-0,002087	22,420000	48,660000
2,163571	175,572653	726,918	-0,004773	22,420000	48,660000
2,156488	168,459362	727,970	-0,007753	22,420000	48,660000
2,149538	160,424280	729,023	-0,011120	22,430000	48,660000
2,142528	154,369127	730,075	-0,013657	22,430000	48,660000
2,135498	147,004121	731,128	-0,016743	22,430000	48,660000
2,128547	140,072625	732,180	-0,019647	22,420000	48,650000
2,121514	133,181916	733,233	-0,022535	22,420000	48,650000
2,114497	126,123396	734,286	-0,025492	22,420000	48,650000
2,107529	118,609226	735,336	-0,028641	22,420000	48,650000
2,100488	112,474828	736,389	-0,031211	22,420000	48,650000
2,093491	105,189066	737,442	-0,034264	22,420000	48,650000
2,086536	98,320499	738,494	-0,037142	22,420000	48,650000
2,079511	91,721127	739,545	-0,039907	22,420000	48,650000
2,072544	84,703395	740,599	-0,042847	22,430000	48,660000
2,065521	76,801163	741,651	-0,046158	22,430000	48,660000
2,058525	69,381386	742,704	-0,049267	22,430000	48,650000
2,051509	63,026738	743,755	-0,051930	22,430000	48,650000
2,044518	55,155970	744,805	-0,055228	22,420000	48,660000
2,037540	48,485512	745,857	-0,058022	22,420000	48,660000
2,030556	42,486295	746,909	-0,060536	22,420000	48,660000
2,023504	33,968759	747,961	-0,064105	22,420000	48,660000
2,016510	26,895091	749,013	-0,067069	22,440000	48,650000
2,009519	19,885516	750,065	-0,070006	22,440000	48,650000
2,002534	13,152129	751,116	-0,072827	22,440000	48,650000
1,995526	7,168062	752,166	-0,075334	22,430000	48,635000
1,988488	-0,678233	753,216	-0,078622	22,430000	48,635000
1,981542	-6,931496	754,270	-0,081242	22,430000	48,635000
1,974528	-14,919964	755,321	-0,084589	22,430000	48,635000
1,967494	-20,848094	756,374	-0,087073	22,430000	48,660000
1,960538	-28,221258	757,426	-0,090163	22,430000	48,660000
1,953500	-35,460406	758,479	-0,093196	22,430000	48,660000
1,946543	-41,957227	759,530	-0,095918	22,430000	48,660000
1,939494	-49,108974	760,581	-0,098915	22,420000	48,635000
1,932539	-57,208150	761,633	-0,102308	22,420000	48,635000
1,925573	-64,328433	762,686	-0,105292	22,430000	48,660000
1,918499	-70,343964	763,738	-0,107812	22,430000	48,660000
1,911523	-76,840785	764,791	-0,110534	22,430000	48,650000
1,904532	-85,050669	765,841	-0,113974	22,430000	48,650000
1,897562	-91,800371	766,893	-0,116802	22,430000	48,650000
1,890516	-98,976590	767,943	-0,119809	22,430000	48,650000
1,883529	-105,338231	768,996	-0,122475	22,430000	48,650000
1,876538	-112,964275	770,049	-0,125670	22,430000	48,650000
1,869550	-119,350388	771,103	-0,128346	22,420000	48,650000
1,862549	-127,174541	772,153	-0,131624	22,430000	48,660000
1,855551	-133,086357	773,204	-0,134101	22,430000	48,660000
1,848533	-141,312556	774,255	-0,137548	22,430000	48,660000
1,841579	-147,326922	775,308	-0,140068	22,430000	48,660000
1,834524	-155,047360	776,361	-0,143303	22,440000	48,635000
1,827553	-162,365752	777,414	-0,146369	22,440000	48,635000
1,820584	-168,949974	778,467	-0,149128	22,440000	48,635000
1,813481	-175,928084	779,519	-0,152052	22,440000	48,635000
1,806482	-182,306039	780,572	-0,154724	22,440000	48,635000
1,799536	-189,821375	781,623	-0,157873	22,440000	48,635000
1,792592	-196,081630	782,674	-0,160496	22,430000	48,650000
1,785526	-204,007169	783,725	-0,163817	22,430000	48,650000
1,778547	-211,079673	784,775	-0,166780	22,430000	48,650000
1,771529	-217,055582	785,828	-0,169284	22,430000	48,650000
1,764549	-224,373974	786,879	-0,172351	22,440000	48,620000
1,757549	-231,557186	787,931	-0,175360	22,440000	48,620000
1,750645	-238,733405	788,982	-0,178367	22,430000	48,675000
1,743525	-246,288363	790,032	-0,181533	22,430000	48,675000
1,736519	-252,658161	791,083	-0,184202	22,430000	48,650000
1,729551	-260,094253	792,133	-0,187317	22,430000	48,650000
1,722555	-267,111985	793,183	-0,190258	22,420000	48,635000
1,715563	-273,688050	794,233	-0,193013	22,420000	48,635000
1,708561	-281,487731	795,284	-0,196281	22,420000	48,635000
1,701576	-288,158189	796,336	-0,199076	22,440000	48,650000
1,694542	-294,726096	797,388	-0,201828	22,440000	48,650000
1,687495	-302,383605	798,440	-0,205037	22,420000	48,675000
1,680494	-308,533152	799,493	-0,207613	22,420000	48,675000
1,673564	-315,392396	800,544	-0,210487	22,430000	48,675000
1,666559	-324,099884	801,594	-0,214136	22,430000	48,675000
1,659552	-330,257589	802,648	-0,216716	22,420000	48,650000
1,652553	-336,896582	803,700	-0,219498	22,420000	48,650000
1,645555	-344,150880	804,750	-0,222537	22,430000	48,635000
1,638536	-350,513686	805,801	-0,225203	22,430000	48,635000
1,631543	-357,893841	806,852	-0,228295	22,430000	48,610000
1,624567	-364,438442	807,903	-0,231038	22,430000	48,610000
1,617507	-372,167036	808,954	-0,234276	22,430000	48,635000
1,610542	-379,232548	810,006	-0,237236	22,430000	48,635000
1,603551	-385,357622	811,059	-0,239803	22,430000	48,635000
1,596534	-392,636392	812,112	-0,242853	22,430000	48,635000
1,589490	-399,488645	813,163	-0,245724	22,430000	48,610000
1,582570	-406,387511	814,214	-0,248614	22,430000	48,675000
1,575583	-414,818812	815,264	-0,252147	22,430000	48,675000
1,568562	-420,424140	816,314	-0,254496	22,430000	48,650000
1,561551	-427,977933	817,368	-0,257661	22,430000	48,650000
1,554534	-434,301117	818,419	-0,260310	22,430000	48,660000
1,547537	-442,337364	819,473	-0,263677	22,430000	48,660000
1,540550	-448,557997	820,525	-0,266284	22,430000	48,660000
1,533551	-455,805303	821,578	-0,269320	22,430000	48,660000
1,526528	-463,494276	822,629	-0,272542	22,430000	48,635000
1,519547	-470,196198	823,682	-0,275350	22,430000	48,635000
1,512522	-476,503067	824,733	-0,277993	22,440000	48,650000
1,505562	-483,418248	825,784	-0,280890	22,440000	48,650000
1,498584	-491,320480	826,836	-0,284201	22,430000	48,650000
1,491515	-497,288233	827,888	-0,286702	22,430000	48,650000
1,484523	-504,676546	828,941	-0,289797	22,430000	48,650000
1,477605	-512,279283	829,991	-0,292983	22,430000	48,650000
1,470555	-518,113020	831,043	-0,295427	22,430000	48,635000
1,463546	-525,667978	832,094	-0,298593	22,430000	48,635000
1,456504	-532,054091	833,148	-0,301269	22,420000	48,660000
1,449587	-539,111445	834,198	-0,304226	22,430000	48,650000
1,442591	-545,765588	835,250	-0,307014	22,430000	48,650000
1,435570	-552,776328	836,300	-0,309951	22,420000	48,635000
1,428542	-560,733331	837,351	-0,313285	22,420000	48,635000
1,421578	-566,724390	838,402	-0,315795	22,420000	48,635000
1,414558	-574,239726	839,453	-0,318944	22,420000	48,635000
1,407574	-581,566276	840,505	-0,322014	22,430000	48,660000
1,400538	-587,904609	841,556	-0,324670	22,430000	48,660000
1,393556	-595,396638	842,610	-0,327809	22,430000	48,660000
1,386600	-602,816416	843,664	-0,330918	22,430000	48,660000
1,379533	-609,944856	844,717	-0,333905	22,420000	48,650000
1,372564	-616,220260	845,770	-0,336534	22,420000	48,650000
1,365517	-623,965170	846,822	-0,339779	22,430000	48,650000
1,358620	-631,116917	847,873	-0,342776	22,430000	48,650000
1,351555	-637,235000	848,923	-0,345339	22,420000	48,675000
1,344550	-643,945079	849,974	-0,348151	22,420000	48,675000
1,337556	-650,504829	851,026	-0,350899	22,420000	48,675000
1,330549	-658,659942	852,078	-0,354316	22,420000	48,675000
1,323553	-665,890933	853,129	-0,357346	22,440000	48,650000
1,316565	-672,323659	854,182	-0,360042	22,440000	48,650000
1,309495	-679,096668	855,234	-0,362879	22,440000	48,650000
1,302561	-685,459474	856,284	-0,365545	22,420000	48,675000
1,295589	-693,156604	857,340	-0,368771	22,420000	48,675000
1,288631	-699,251380	858,395	-0,371324	22,450000	48,655000
1,281600	-706,537142	859,446	-0,374377	22,450000	48,655000
1,274611	-714,604853	860,496	-0,377757	22,430000	48,635000
1,267562	-720,666999	861,547	-0,380297	22,430000	48,635000
1,260537	-728,529609	862,599	-0,383592	22,430000	48,675000
1,253597	-734,545141	863,650	-0,386112	22,430000	48,675000
1,246551	-741,499944	864,701	-0,389026	22,430000	48,675000
1,239576	-749,078209	865,751	-0,392202	22,430000	48,675000
1,232565	-756,001548	866,802	-0,395103	22,430000	48,635000
1,225595	-762,719785	867,854	-0,397917	22,430000	48,635000
1,218565	-769,476479	868,905	-0,400749	22,420000	48,660000
1,211577	-776,163251	869,960	-0,403550	22,420000	48,660000
1,204575	-783,789296	871,010	-0,406746	22,430000	48,675000
1,197565	-789,970307	872,062	-0,409335	22,430000	48,675000
1,190526	-797,373769	873,114	-0,412438	22,430000	48,620000
1,183568	-804,558146	874,165	-0,415448	22,430000	48,620000
1,176623	-810,858023	875,218	-0,418087	22,430000	48,620000
1,169609	-817,978306	876,269	-0,421071	22,430000	48,620000
1,162603	-825,738365	877,322	-0,424322	22,430000	48,620000
1,155572	-831,595409	878,376	-0,426776	22,430000	48,620000
1,148555	-839,173674	879,427	-0,429952	22,430000	48,620000
1,141599	-846,854490	880,479	-0,433170	22,430000	48,635000
1,134576	-852,483126	881,530	-0,435528	22,430000	48,635000
1,127605	-860,140634	882,580	-0,438737	22,430000	48,635000
1,120616	-866,478968	883,630	-0,441393	22,430000	48,635000
1,113580	-873,726273	884,681	-0,444429	22,420000	48,650000
1,106577	-881,446711	885,733	-0,447664	22,420000	48,650000
1,099579	-887,675502	886,785	-0,450274	22,420000	48,660000
1,092585	-894,882020	887,836	-0,453293	22,420000	48,660000
1,085569	-902,240034	888,890	-0,456376	22,420000	48,660000
1,078596	-908,231093	889,941	-0,458887	22,420000	48,660000
1,071579	-916,290647	890,991	-0,462264	22,430000	48,635000
1,064549	-922,117393	892,043	-0,464705	22,430000	48,635000
1,057553	-928,708607	893,093	-0,467467	22,430000	48,620000
1,050575	-936,665610	894,145	-0,470801	22,430000	48,620000
1,043556	-943,921073	895,196	-0,473841	22,430000	48,620000
1,036586	-951,040191	896,249	-0,476824	22,420000	48,635000
1,029581	-957,482240	897,299	-0,479523	22,420000	48,635000
1,022585	-964,579216	898,350	-0,482497	22,430000	48,660000
1,015582	-971,130808	899,401	-0,485242	22,430000	48,660000
1,008571	-977,896825	900,453	-0,488077	22,420000	48,675000
1,001576	-984,883092	901,505	-0,491004	22,420000	48,675000
0,994599	-991,474306	902,555	-0,493766	22,440000	48,675000
0,992560	-0,631619	902,856	-0,078603	22,440000	48,675000