File: Nanoindentation Datenauswertung/data/Saphir/PM-Sa-150ms, 3um, 20nms ,3cycles
Quasi static measurement routine
Tip parameters (shape,radius, material...)
08.09.2022

Piezo position[nm]	MEMS displ.[nm]	Time[ms]	Cap [pf]	Temp [°C]	Rh [%]
eoh
1,288003	-0,242984	0,202	-0,076787	22,500000	54,390000
1,300077	0,016199	0,802	-0,076677	22,500000	54,390000
1,312032	-0,093722	1,402	-0,076724	22,500000	54,390000
1,324003	-0,219842	2,004	-0,076777	22,480000	54,345000
1,336087	0,093722	2,605	-0,076645	22,480000	54,345000
1,348033	-0,282324	3,207	-0,076803	22,480000	54,345000
1,360087	0,156204	3,808	-0,076618	22,480000	54,345000
1,372108	-0,109921	4,411	-0,076730	22,480000	54,345000
1,384089	-0,297366	5,012	-0,076810	22,480000	54,345000
1,396033	-0,282324	5,612	-0,076803	22,490000	54,345000
1,408084	-0,085623	6,212	-0,076720	22,490000	54,345000
1,420053	-0,016199	6,813	-0,076691	22,490000	54,345000
1,431998	-0,039340	7,414	-0,076701	22,490000	54,345000
1,444125	-0,336706	8,015	-0,076826	22,500000	54,350000
1,456121	-0,055539	8,615	-0,076708	22,500000	54,350000
1,468062	-0,227942	9,216	-0,076780	22,500000	54,350000
1,480068	-0,282324	9,818	-0,076803	22,500000	54,365000
1,492078	-0,149261	10,418	-0,076747	22,500000	54,365000
1,504059	-0,251083	11,018	-0,076790	22,500000	54,365000
1,516077	-0,085623	11,618	-0,076720	22,490000	54,385000
1,528091	-0,415386	12,218	-0,076859	22,490000	54,385000
1,540105	-0,219842	12,818	-0,076777	22,490000	54,385000
1,552061	-0,297366	13,420	-0,076810	22,490000	54,385000
1,564083	-0,180502	14,021	-0,076760	22,480000	54,375000
1,576070	-0,328606	14,622	-0,076823	22,480000	54,375000
1,588058	-0,282324	15,223	-0,076803	22,480000	54,375000
1,600047	-0,321664	15,824	-0,076820	22,500000	54,350000
1,612104	-0,289266	16,426	-0,076806	22,500000	54,350000
1,624033	-0,399187	17,027	-0,076853	22,500000	54,350000
1,636087	-0,423486	17,628	-0,076863	22,500000	54,335000
1,648055	-0,141162	18,230	-0,076744	22,500000	54,335000
1,660027	-0,141162	18,831	-0,076744	22,500000	54,335000
1,672073	-0,234884	19,431	-0,076783	22,500000	54,335000
1,684074	-0,188602	20,031	-0,076764	22,480000	54,375000
1,696066	-0,446627	20,634	-0,076873	22,480000	54,375000
1,708029	-0,266125	21,235	-0,076796	22,480000	54,375000
1,720025	-0,352905	21,836	-0,076833	22,480000	54,375000
1,732028	-0,361004	22,437	-0,076836	22,480000	54,375000
1,744078	-0,376046	23,040	-0,076843	22,480000	54,375000
1,756049	-0,133062	23,642	-0,076740	22,500000	54,390000
1,768053	-0,180502	24,242	-0,076760	22,500000	54,390000
1,780105	-0,259182	24,844	-0,076793	22,500000	54,390000
1,792128	-0,172403	25,445	-0,076757	22,500000	54,390000
1,803998	-0,297366	26,045	-0,076810	22,500000	54,390000
1,816019	-0,494067	26,646	-0,076893	22,500000	54,390000
1,828072	-0,266125	27,248	-0,076796	22,500000	54,390000
1,840027	-0,093722	27,849	-0,076724	22,500000	54,405000
1,852068	-0,328606	28,449	-0,076823	22,500000	54,405000
1,864066	-0,650270	29,052	-0,076958	22,500000	54,405000
1,876029	-0,399187	29,654	-0,076853	22,490000	54,360000
1,888023	-0,532250	30,255	-0,076909	22,490000	54,360000
1,900046	-0,431585	30,858	-0,076866	22,490000	54,360000
1,912074	-0,431585	31,458	-0,076866	22,490000	54,360000
1,923992	-0,454726	32,058	-0,076876	22,480000	54,400000
1,935991	-0,595888	32,660	-0,076936	22,480000	54,400000
1,948083	-0,211743	33,260	-0,076773	22,480000	54,400000
1,960049	-0,501009	33,860	-0,076896	22,490000	54,375000
1,972045	-0,728951	34,461	-0,076992	22,490000	54,375000
1,984100	-0,814573	35,062	-0,077028	22,490000	54,375000
1,996026	-0,807631	35,662	-0,077025	22,500000	54,350000
2,008036	-0,595888	36,264	-0,076936	22,500000	54,350000
2,019997	-0,737050	36,865	-0,076995	22,500000	54,350000
2,032086	-0,799532	37,465	-0,077021	22,500000	54,350000
2,044059	-0,886311	38,065	-0,077058	22,490000	54,375000
2,056062	-0,807631	38,666	-0,077025	22,490000	54,375000
2,068006	-1,152436	39,267	-0,077170	22,490000	54,375000
2,080051	-1,065656	39,868	-0,077134	22,500000	54,390000
2,092102	-0,963835	40,471	-0,077091	22,500000	54,390000
2,104030	-0,948793	41,073	-0,077084	22,500000	54,390000
2,116053	-1,206818	41,676	-0,077193	22,490000	54,400000
2,128002	-1,198719	42,278	-0,077190	22,490000	54,400000
2,140052	-1,246159	42,878	-0,077210	22,490000	54,400000
2,152066	-1,395420	43,479	-0,077273	22,490000	54,400000
2,164068	-1,582864	44,081	-0,077352	22,490000	54,400000
2,176050	-1,661545	44,682	-0,077385	22,490000	54,400000
2,188050	-1,857089	45,283	-0,077468	22,490000	54,400000
2,199985	-2,194951	45,884	-0,077610	22,480000	54,400000
2,212081	-2,461076	46,484	-0,077723	22,480000	54,400000
2,224040	-3,063907	47,085	-0,077977	22,480000	54,400000
2,236041	-3,942119	47,686	-0,078348	22,500000	54,380000
2,248043	-5,322497	48,286	-0,078930	22,500000	54,380000
2,260080	-8,558807	48,887	-0,080296	22,500000	54,380000
2,272023	-11,325348	49,488	-0,081463	22,500000	54,380000
2,284032	-0,133062	50,090	-0,076740	22,480000	54,385000
2,296021	12,164220	50,692	-0,071551	22,480000	54,385000
2,308046	27,032500	51,293	-0,065276	22,480000	54,385000
2,320009	36,344555	51,894	-0,061347	22,480000	54,385000
2,332043	48,368770	52,494	-0,056272	22,480000	54,385000
2,344027	62,892245	53,095	-0,050144	22,480000	54,385000
2,356029	74,774141	53,695	-0,045129	22,480000	54,385000
2,368021	85,402936	54,298	-0,040644	22,480000	54,385000
2,380076	97,896919	54,900	-0,035372	22,480000	54,385000
2,392018	109,191027	55,500	-0,030605	22,480000	54,385000
2,404061	120,305789	56,101	-0,025915	22,490000	54,375000
2,416015	132,054623	56,703	-0,020957	22,490000	54,375000
2,428087	146,891662	57,305	-0,014696	22,490000	54,375000
2,440014	155,780232	57,905	-0,010945	22,490000	54,375000
2,452027	170,860254	58,506	-0,004581	22,490000	54,375000
2,464040	179,497741	59,106	-0,000936	22,490000	54,375000
2,476068	192,147928	59,706	0,004402	22,490000	54,375000
2,488058	207,134229	60,307	0,010727	22,490000	54,375000
2,500036	216,069081	60,910	0,014497	22,490000	54,375000
2,512020	230,616854	61,511	0,020636	22,490000	54,375000
2,524064	239,920811	62,112	0,024563	22,500000	54,390000
2,535929	254,240642	62,712	0,030605	22,500000	54,390000
2,548085	264,437852	63,313	0,034909	22,500000	54,390000
2,559999	277,181761	63,914	0,040287	22,490000	54,385000
2,571992	288,006100	64,518	0,044854	22,490000	54,385000
2,584027	303,227285	65,121	0,051278	22,490000	54,385000
2,596058	311,966593	65,721	0,054966	22,480000	54,400000
2,608052	323,685343	66,322	0,059911	22,480000	54,400000
2,620005	339,000250	66,922	0,066374	22,480000	54,400000
2,632063	347,826338	67,524	0,070099	22,480000	54,400000
2,644064	363,055622	68,124	0,076525	22,480000	54,400000
2,656061	371,974276	68,724	0,080289	22,480000	54,400000
2,668073	386,404028	69,325	0,086378	22,480000	54,400000
2,680012	398,638829	69,925	0,091542	22,500000	54,380000
2,692003	407,832864	70,526	0,095421	22,500000	54,380000
2,704036	422,160795	71,127	0,101468	22,500000	54,380000
2,716018	431,903279	71,728	0,105579	22,490000	54,375000
2,727986	445,290516	72,328	0,111229	22,490000	54,375000
2,739987	457,463992	72,928	0,116366	22,490000	54,375000
2,752042	468,342713	73,528	0,120957	22,490000	54,375000
2,764032	481,181502	74,128	0,126375	22,480000	54,345000
2,775974	495,046607	74,728	0,132226	22,480000	54,345000
2,788035	507,100905	75,329	0,137313	22,480000	54,345000
2,799991	516,169977	75,930	0,141140	22,490000	54,385000
2,812005	531,131979	76,531	0,147454	22,490000	54,385000
2,824053	542,928253	77,131	0,152432	22,490000	54,385000
2,835974	555,014949	77,732	0,157532	22,490000	54,375000
2,847967	563,746159	78,335	0,161217	22,490000	54,375000
2,860080	577,909786	78,935	0,167194	22,490000	54,375000
2,872063	590,802957	79,536	0,172635	22,490000	54,375000
2,884030	602,865355	80,137	0,177725	22,490000	54,375000
2,895990	611,847647	80,738	0,181516	22,490000	54,375000
2,907965	625,572747	81,338	0,187308	22,490000	54,375000
2,919997	638,050531	81,939	0,192573	22,490000	54,375000
2,932014	647,628712	82,541	0,196615	22,490000	54,375000
2,944002	660,255758	83,143	0,201944	22,490000	54,375000
2,956018	672,239475	83,743	0,207001	22,480000	54,375000
2,955964	674,629971	84,343	0,208010	22,480000	54,375000
2,953014	674,692452	84,944	0,208036	22,480000	54,375000
2,941006	662,912378	85,545	0,203065	22,480000	54,375000
2,928959	650,622038	86,146	0,197878	22,500000	54,365000
2,917000	638,536498	86,747	0,192778	22,500000	54,365000
2,904992	626,089955	87,348	0,187526	22,500000	54,365000
2,892984	611,353580	87,948	0,181307	22,490000	54,385000
2,880994	598,852655	88,549	0,176032	22,490000	54,385000
2,869039	589,972184	89,150	0,172284	22,490000	54,385000
2,857024	575,158286	89,753	0,166033	22,480000	54,375000
2,844987	564,952977	90,354	0,161726	22,480000	54,375000
2,832984	552,146586	90,954	0,156322	22,480000	54,375000
2,821026	541,619613	91,557	0,151879	22,480000	54,375000
2,808977	528,961326	92,157	0,146538	22,480000	54,375000
2,797053	517,416136	92,758	0,141666	22,480000	54,375000
2,785018	505,150094	93,359	0,136489	22,480000	54,375000
2,772959	489,983292	93,960	0,130089	22,480000	54,345000
2,761002	481,110921	94,560	0,126345	22,480000	54,345000
2,749014	465,842297	95,160	0,119901	22,480000	54,345000
2,736983	456,735041	95,762	0,116058	22,480000	54,345000
2,725004	441,630721	96,362	0,109684	22,480000	54,345000
2,713033	432,507266	96,962	0,105834	22,480000	54,345000
2,700985	420,390486	97,563	0,100721	22,480000	54,415000
2,688995	405,145003	98,164	0,094287	22,480000	54,415000
2,677052	396,327014	98,765	0,090566	22,480000	54,415000
2,664995	381,160212	99,366	0,084166	22,480000	54,415000
2,652993	368,925411	99,968	0,079002	22,500000	54,390000
2,641011	358,234134	100,568	0,074491	22,500000	54,390000
2,629015	344,948719	101,170	0,068884	22,500000	54,390000
2,617032	334,854488	101,771	0,064625	22,490000	54,375000
2,605063	320,541599	102,373	0,058584	22,490000	54,375000
2,593032	311,708568	102,973	0,054857	22,490000	54,375000
2,580976	299,480709	103,576	0,049697	22,490000	54,375000
2,569054	284,361347	104,178	0,043316	22,490000	54,375000
2,557031	273,733709	104,780	0,038832	22,490000	54,375000
2,544962	260,769957	105,381	0,033361	22,490000	54,375000
2,542079	254,608588	105,869	0,030761	22,480000	54,400000
2,554035	266,608505	106,470	0,035825	22,480000	54,400000
2,566091	278,734542	107,070	0,040942	22,480000	54,400000
2,578038	291,000583	107,670	0,046118	22,480000	54,400000
2,590057	303,023641	108,271	0,051192	22,480000	54,400000
2,602008	315,008516	108,874	0,056250	22,480000	54,400000
2,613987	330,182261	109,476	0,062653	22,480000	54,400000
2,626013	341,853571	110,078	0,067578	22,500000	54,390000
2,638026	351,220009	110,678	0,071531	22,500000	54,390000
2,649998	366,048948	111,278	0,077789	22,500000	54,390000
2,662043	377,994483	111,878	0,082830	22,500000	54,390000
2,674019	387,642088	112,479	0,086901	22,500000	54,390000
2,685960	399,626962	113,081	0,091958	22,500000	54,390000
2,697994	412,112846	113,681	0,097228	22,480000	54,385000
2,709996	423,759858	114,282	0,102143	22,480000	54,385000
2,722023	436,637987	114,882	0,107577	22,480000	54,385000
2,733976	448,284999	115,483	0,112492	22,480000	54,385000
2,746005	460,598480	116,085	0,117688	22,480000	54,385000
2,757969	472,073089	116,686	0,122531	22,480000	54,385000
2,770063	484,238466	117,286	0,127665	22,480000	54,385000
2,781992	496,394587	117,888	0,132794	22,490000	54,385000
2,794019	508,606246	118,491	0,137948	22,490000	54,385000
2,805974	522,714335	119,091	0,143901	22,490000	54,385000
2,818035	535,177077	119,691	0,149161	22,500000	54,390000
2,830037	544,645337	120,292	0,153156	22,500000	54,390000
2,842024	559,121371	120,893	0,159265	22,500000	54,390000
2,854045	570,455976	121,493	0,164048	22,500000	54,390000
2,866013	583,083022	122,094	0,169377	22,490000	54,375000
2,878034	594,111004	122,695	0,174031	22,490000	54,375000
2,890000	605,687435	123,296	0,178916	22,490000	54,375000
2,902002	617,130804	123,897	0,183745	22,490000	54,375000
2,914019	628,848397	124,499	0,188690	22,490000	54,375000
2,925984	643,803456	125,102	0,195001	22,490000	54,375000
2,938017	652,895670	125,702	0,198838	22,500000	54,365000
2,950020	668,242974	126,303	0,205314	22,500000	54,365000
2,961983	676,769383	126,905	0,208913	22,500000	54,365000
2,974011	691,921144	127,507	0,215307	22,500000	54,365000
2,986018	703,402695	128,108	0,220152	22,490000	54,400000
2,997948	714,423736	128,708	0,224803	22,490000	54,400000
3,010024	726,988300	129,310	0,230105	22,490000	54,400000
3,021927	737,749000	129,911	0,234646	22,490000	54,400000
3,034028	749,380970	130,512	0,239555	22,490000	54,400000
3,045947	761,538248	131,112	0,244685	22,490000	54,400000
3,057969	773,819331	131,712	0,249868	22,480000	54,415000
3,070013	788,288424	132,314	0,255974	22,480000	54,415000
3,082009	797,513700	132,914	0,259867	22,480000	54,415000
3,093986	809,592297	133,516	0,264964	22,480000	54,415000
3,105909	821,293691	134,117	0,269902	22,480000	54,415000
3,117971	836,805298	134,718	0,276448	22,480000	54,415000
3,129929	845,670727	135,320	0,280189	22,480000	54,415000
3,142001	860,123621	135,922	0,286288	22,490000	54,375000
3,153996	869,466917	136,523	0,290231	22,490000	54,375000
3,165924	882,571831	137,125	0,295761	22,490000	54,375000
3,178031	893,662295	137,726	0,300441	22,490000	54,400000
3,189971	905,662211	138,328	0,305505	22,490000	54,400000
3,201924	920,413627	138,930	0,311730	22,490000	54,400000
3,213975	929,458401	139,531	0,315547	22,490000	54,400000
3,225920	942,062306	140,133	0,320866	22,500000	54,380000
3,237986	953,686176	140,735	0,325771	22,500000	54,380000
3,249987	968,326514	141,336	0,331950	22,500000	54,380000
3,261982	977,411785	141,937	0,335784	22,480000	54,375000
3,273985	989,646586	142,538	0,340947	22,480000	54,375000
3,285934	1004,396845	143,138	0,347171	22,480000	54,375000
3,297959	1013,740142	143,739	0,351114	22,480000	54,375000
3,309925	1028,209234	144,342	0,357220	22,480000	54,375000
3,321905	1039,974267	144,943	0,362185	22,480000	54,375000
3,333884	1049,598730	145,544	0,366247	22,480000	54,375000
3,345918	1061,716667	146,144	0,371360	22,490000	54,400000
3,357944	1073,378721	146,744	0,376282	22,490000	54,400000
3,369959	1088,553623	147,345	0,382686	22,490000	54,400000
3,381899	1100,678503	147,946	0,387802	22,500000	54,405000
3,393911	1109,386571	148,547	0,391477	22,500000	54,405000
3,405917	1124,428410	149,148	0,397825	22,500000	54,405000
3,417941	1133,583105	149,750	0,401688	22,480000	54,400000
3,429860	1148,521966	150,350	0,407992	22,480000	54,400000
3,441883	1157,645420	150,950	0,411842	22,480000	54,400000
3,453919	1171,260599	151,551	0,417588	22,480000	54,400000
3,465851	1183,331096	152,152	0,422682	22,480000	54,385000
3,477884	1193,723850	152,753	0,427067	22,480000	54,385000
3,489862	1207,227951	153,353	0,432766	22,480000	54,385000
3,501898	1218,953643	153,953	0,437714	22,480000	54,375000
3,513889	1230,107746	154,556	0,442421	22,480000	54,375000
3,525920	1241,715418	155,158	0,447320	22,480000	54,375000
3,537887	1253,628555	155,758	0,452347	22,500000	54,405000
3,549926	1268,576672	156,358	0,458655	22,500000	54,405000
3,561899	1280,544191	156,961	0,463706	22,500000	54,405000
3,573949	1289,848147	157,562	0,467632	22,500000	54,405000
3,585838	1304,709484	158,163	0,473903	22,490000	54,400000
3,597865	1316,294015	158,763	0,478792	22,490000	54,400000
3,609922	1328,661878	159,364	0,484011	22,490000	54,400000
3,621840	1339,964085	159,965	0,488781	22,490000	54,400000
3,621856	1340,481293	160,568	0,488999	22,490000	54,400000
3,618860	1339,228192	161,170	0,488470	22,490000	54,400000
3,606824	1328,121529	161,772	0,483783	22,490000	54,385000
3,594912	1313,205809	162,374	0,477489	22,490000	54,385000
3,582840	1301,315814	162,975	0,472471	22,490000	54,385000
3,570895	1291,964418	163,578	0,468525	22,480000	54,375000
3,558921	1277,284740	164,180	0,462330	22,480000	54,375000
3,546900	1265,472267	164,780	0,457345	22,480000	54,375000
3,534946	1253,339288	165,384	0,452225	22,480000	54,375000
3,522869	1243,619946	165,984	0,448124	22,490000	54,360000
3,510948	1230,452551	166,586	0,442567	22,490000	54,360000
3,498865	1216,492567	167,186	0,436676	22,490000	54,360000
3,486868	1206,492058	167,786	0,432456	22,500000	54,390000
3,474911	1192,014866	168,386	0,426346	22,500000	54,390000
3,462840	1182,742150	168,988	0,422433	22,500000	54,390000
3,450890	1171,236300	169,590	0,417578	22,480000	54,415000
3,438956	1159,118363	170,192	0,412464	22,480000	54,415000
3,427002	1143,560473	170,792	0,405898	22,480000	54,415000
3,414886	1131,866021	171,392	0,400963	22,480000	54,415000
3,402882	1122,366521	171,993	0,396955	22,490000	54,375000
3,390914	1110,453384	172,594	0,391927	22,490000	54,375000
3,378929	1095,913711	173,195	0,385792	22,490000	54,375000
3,366902	1084,289840	173,796	0,380886	22,490000	54,375000
3,354956	1074,186352	174,397	0,376623	22,490000	54,375000
3,342938	1060,337446	174,998	0,370778	22,490000	54,375000
3,330892	1049,191443	175,598	0,366075	22,490000	54,385000
3,318957	1037,904278	176,199	0,361312	22,490000	54,385000
3,306919	1022,745575	176,799	0,354915	22,490000	54,385000
3,294935	1010,871779	177,400	0,349904	22,490000	54,385000
3,282933	1001,277399	178,001	0,345855	22,490000	54,385000
3,270970	987,765199	178,603	0,340153	22,490000	54,385000
3,258902	977,136404	179,203	0,335667	22,490000	54,385000
3,246933	965,285749	179,804	0,330667	22,490000	54,415000
3,234916	949,993983	180,405	0,324213	22,490000	54,415000
3,222931	938,041506	181,005	0,319169	22,490000	54,415000
3,211032	929,285999	181,605	0,315475	22,490000	54,360000
3,198963	914,087955	182,205	0,309061	22,490000	54,360000
3,186949	902,833188	182,806	0,304312	22,490000	54,360000
3,174978	890,902695	183,408	0,299277	22,490000	54,360000
3,162913	878,096305	184,008	0,293873	22,480000	54,400000
3,150924	866,534916	184,610	0,288994	22,480000	54,400000
3,138946	855,475692	185,210	0,284327	22,480000	54,400000
3,126979	844,478951	185,810	0,279686	22,480000	54,400000
3,114968	832,165469	186,411	0,274490	22,480000	54,400000
3,102991	819,758266	187,013	0,269254	22,480000	54,400000
3,091015	808,095055	187,615	0,264332	22,490000	54,360000
3,078917	796,063898	188,215	0,259255	22,490000	54,360000
3,066988	784,251426	188,816	0,254270	22,490000	54,360000
3,055040	772,032824	189,416	0,249114	22,490000	54,360000
3,042955	759,789923	190,017	0,243947	22,490000	54,360000
3,045991	756,967843	190,501	0,242756	22,490000	54,360000
3,057967	771,931002	191,102	0,249071	22,490000	54,360000
3,069931	782,888403	191,705	0,253695	22,490000	54,375000
3,082048	795,201885	192,305	0,258891	22,490000	54,375000
3,094008	807,405445	192,905	0,264041	22,490000	54,375000
3,106035	818,504008	193,508	0,268725	22,490000	54,375000
3,117995	829,422069	194,108	0,273332	22,490000	54,375000
3,129996	844,667552	194,710	0,279766	22,490000	54,375000
3,141960	853,759766	195,313	0,283603	22,490000	54,375000
3,153946	865,147595	195,914	0,288408	22,500000	54,390000
3,166019	877,695960	196,516	0,293704	22,500000	54,390000
3,177938	892,706559	197,117	0,300038	22,500000	54,390000
3,189943	904,831439	197,718	0,305155	22,490000	54,385000
3,201979	917,269883	198,320	0,310404	22,490000	54,385000
3,213938	926,621279	198,922	0,314350	22,490000	54,385000
3,225927	941,285915	199,523	0,320539	22,490000	54,385000
3,237953	951,310723	200,124	0,324769	22,490000	54,385000
3,249988	965,701135	200,726	0,330842	22,490000	54,385000
3,262006	974,511025	201,326	0,334560	22,490000	54,385000
3,273947	986,620862	201,928	0,339670	22,490000	54,415000
3,285937	998,691360	202,529	0,344764	22,490000	54,415000
3,297897	1010,174069	203,130	0,349609	22,490000	54,415000
3,309956	1025,442693	203,731	0,356053	22,480000	54,385000
3,321933	1037,802457	204,334	0,361269	22,480000	54,385000
3,333948	1049,904195	204,934	0,366375	22,480000	54,385000
3,345950	1060,877795	205,534	0,371006	22,480000	54,385000
3,357974	1071,137487	206,135	0,375336	22,490000	54,385000
3,370005	1083,482209	206,737	0,380545	22,490000	54,385000
3,381960	1096,595222	207,339	0,386079	22,490000	54,385000
3,393940	1107,199719	207,942	0,390554	22,490000	54,385000
3,405947	1119,591880	208,543	0,395784	22,490000	54,385000
3,417900	1131,317573	209,145	0,400732	22,490000	54,385000
3,429864	1146,530658	209,746	0,407152	22,490000	54,415000
3,441873	1155,630970	210,348	0,410992	22,490000	54,415000
3,453890	1167,834531	210,949	0,416142	22,490000	54,415000
3,465866	1182,295524	211,550	0,422245	22,490000	54,415000
3,477860	1191,670061	212,151	0,426201	22,490000	54,415000
3,489973	1205,950552	212,752	0,432227	22,490000	54,415000
3,501913	1217,119696	213,353	0,436940	22,490000	54,415000
3,513871	1228,421903	213,954	0,441710	22,490000	54,375000
3,525892	1240,743483	214,554	0,446910	22,490000	54,375000
3,537859	1252,978284	215,155	0,452073	22,490000	54,375000
3,549814	1264,296690	215,755	0,456849	22,480000	54,400000
3,561880	1276,375287	216,358	0,461946	22,480000	54,400000
3,573889	1291,400928	216,960	0,468287	22,480000	54,400000
3,585877	1303,345305	217,561	0,473328	22,480000	54,400000
3,597893	1315,525724	218,163	0,478468	22,490000	54,400000
3,609846	1328,011608	218,764	0,483737	22,490000	54,400000
3,621832	1336,719676	219,365	0,487412	22,490000	54,400000
3,633870	1348,672153	219,967	0,492456	22,490000	54,385000
3,645836	1361,738883	220,568	0,497970	22,490000	54,385000
3,657902	1374,436510	221,168	0,503328	22,490000	54,385000
3,669875	1386,177244	221,768	0,508283	22,480000	54,400000
3,681863	1398,231543	222,368	0,513370	22,480000	54,400000
3,693846	1410,083355	222,968	0,518371	22,480000	54,400000
3,705850	1421,471184	223,570	0,523177	22,480000	54,400000
3,717839	1433,173736	224,170	0,528115	22,500000	54,380000
3,729839	1444,656444	224,771	0,532961	22,500000	54,380000
3,741858	1457,016208	225,372	0,538177	22,500000	54,380000
3,753864	1468,859921	225,973	0,543175	22,490000	54,345000
3,765835	1483,823080	226,574	0,549489	22,490000	54,345000
3,777851	1495,227109	227,174	0,554302	22,490000	54,345000
3,789842	1507,869196	227,775	0,559637	22,490000	54,345000
3,801856	1517,517958	228,376	0,563708	22,490000	54,345000
3,813809	1528,639662	228,977	0,568402	22,490000	54,345000
3,825875	1543,258016	229,578	0,574571	22,490000	54,345000
3,837839	1552,843139	230,178	0,578616	22,490000	54,375000
3,849820	1564,655611	230,779	0,583601	22,490000	54,375000
3,861854	1578,755600	231,380	0,589551	22,490000	54,375000
3,873854	1589,548699	231,981	0,594105	22,490000	54,375000
3,885879	1602,348147	232,581	0,599507	22,490000	54,375000
3,897832	1615,664803	233,181	0,605126	22,490000	54,375000
3,909882	1625,635228	233,781	0,609334	22,490000	54,375000
3,921778	1637,651344	234,381	0,614405	22,490000	54,375000
3,933892	1649,211576	234,982	0,619283	22,490000	54,375000
3,945865	1660,859745	235,583	0,624199	22,490000	54,375000
3,957854	1675,844889	236,184	0,630522	22,490000	54,375000
3,969825	1685,336289	236,784	0,634528	22,490000	54,375000
3,981847	1696,467250	237,385	0,639225	22,490000	54,375000
3,993855	1711,868937	237,986	0,645725	22,480000	54,375000
4,005825	1723,586530	238,586	0,650669	22,480000	54,375000
4,017847	1735,171060	239,187	0,655558	22,480000	54,375000
4,029853	1747,578264	239,787	0,660794	22,480000	54,385000
4,041856	1759,594379	240,390	0,665865	22,480000	54,385000
4,053805	1771,318915	240,990	0,670813	22,480000	54,385000
4,065853	1780,622871	241,591	0,674739	22,500000	54,390000
4,077815	1794,379212	242,192	0,680544	22,500000	54,390000
4,089824	1804,678243	242,794	0,684890	22,500000	54,390000
4,101837	1817,766958	243,395	0,690414	22,500000	54,390000
4,113814	1828,850479	243,996	0,695091	22,500000	54,365000
4,125767	1843,342713	244,597	0,701207	22,500000	54,365000
4,137835	1852,544848	245,199	0,705090	22,500000	54,365000
4,149829	1867,357588	245,801	0,711341	22,490000	54,385000
4,161787	1876,528482	246,401	0,715211	22,490000	54,385000
4,173836	1891,287998	247,001	0,721439	22,490000	54,385000
4,185781	1903,679003	247,602	0,726668	22,490000	54,385000
4,197821	1912,488892	248,203	0,730386	22,490000	54,385000
4,209782	1927,255350	248,804	0,736618	22,490000	54,385000
4,221786	1938,989142	249,404	0,741569	22,490000	54,385000
4,233793	1950,706735	250,006	0,746514	22,490000	54,385000
4,245795	1962,369946	250,608	0,751436	22,490000	54,385000
4,257857	1972,810140	251,209	0,755842	22,490000	54,385000
4,269771	1984,512691	251,811	0,760780	22,490000	54,375000
4,281800	1996,919894	252,412	0,766016	22,490000	54,375000
4,287830	2005,251916	253,012	0,769532	22,490000	54,375000
4,287786	2005,706642	253,614	0,769724	22,490000	54,345000
4,278771	1996,277723	254,216	0,765745	22,490000	54,345000
4,266790	1984,394670	254,816	0,760730	22,490000	54,345000
4,254722	1975,185593	255,420	0,756844	22,490000	54,345000
4,242788	1962,041340	256,021	0,751297	22,490000	54,345000
4,230766	1948,418061	256,621	0,745548	22,490000	54,345000
4,218787	1937,539340	257,223	0,740958	22,490000	54,345000
4,206756	1926,699959	257,823	0,736383	22,490000	54,345000
4,194856	1914,691943	258,425	0,731316	22,490000	54,345000
4,182756	1902,698969	259,026	0,726255	22,490000	54,345000
4,170778	1887,477784	259,628	0,719832	22,490000	54,400000
4,158777	1878,464251	260,228	0,716028	22,490000	54,400000
4,146804	1866,229451	260,828	0,710865	22,490000	54,400000
4,134808	1854,150853	261,428	0,705768	22,490000	54,400000
4,122872	1839,133312	262,030	0,699430	22,500000	54,420000
4,110813	1827,353238	262,631	0,694459	22,500000	54,420000
4,098829	1815,031657	263,232	0,689259	22,500000	54,420000
4,086808	1804,269800	263,835	0,684718	22,490000	54,400000
4,074818	1793,133053	264,435	0,680018	22,490000	54,400000
4,062823	1778,921986	265,036	0,674021	22,490000	54,400000
4,050837	1767,416136	265,636	0,669166	22,490000	54,375000
4,038804	1755,534240	266,237	0,664151	22,490000	54,375000
4,026805	1743,894170	266,838	0,659239	22,490000	54,375000
4,014825	1733,696960	267,438	0,654936	22,490000	54,375000
4,002880	1721,478358	268,038	0,649780	22,490000	54,375000
3,990860	1708,191786	268,639	0,644173	22,490000	54,375000
3,978846	1697,281824	269,239	0,639569	22,490000	54,375000
3,966847	1684,436093	269,840	0,634148	22,500000	54,390000
3,954870	1672,945285	270,440	0,629299	22,500000	54,390000
3,942888	1657,990225	271,040	0,622988	22,500000	54,390000
3,930874	1645,998408	271,641	0,617927	22,480000	54,360000
3,918835	1633,661785	272,242	0,612721	22,480000	54,360000
3,906833	1621,457068	272,843	0,607571	22,480000	54,360000
3,894849	1609,598313	273,445	0,602566	22,480000	54,360000
3,882876	1597,583355	274,045	0,597496	22,490000	54,400000
3,870809	1588,404362	274,645	0,593623	22,490000	54,400000
3,858832	1576,341963	275,245	0,588532	22,490000	54,400000
3,846891	1561,661128	275,847	0,582337	22,490000	54,375000
3,834837	1552,483292	276,448	0,578464	22,490000	54,375000
3,822854	1539,064814	277,049	0,572801	22,490000	54,375000
3,810791	1526,030482	277,650	0,567301	22,490000	54,375000
3,798882	1514,006267	278,250	0,562227	22,490000	54,375000
3,786860	1502,845222	278,851	0,557517	22,490000	54,375000
3,774859	1491,597397	279,453	0,552770	22,490000	54,375000
3,762894	1476,768457	280,054	0,546512	22,500000	54,390000
3,750823	1464,635478	280,656	0,541392	22,500000	54,390000
3,738872	1455,590705	281,257	0,537575	22,500000	54,390000
3,726824	1443,425328	281,860	0,532441	22,490000	54,360000
3,714893	1428,282824	282,460	0,526051	22,490000	54,360000
3,702801	1416,102405	283,060	0,520911	22,490000	54,360000
3,690892	1407,496159	283,660	0,517279	22,490000	54,385000
3,678894	1394,893411	284,260	0,511961	22,490000	54,385000
3,666856	1383,292682	284,862	0,507065	22,490000	54,385000
3,654876	1368,314481	285,463	0,500745	22,490000	54,385000
3,642833	1357,685686	286,065	0,496259	22,490000	54,400000
3,630865	1345,097980	286,665	0,490947	22,490000	54,400000
3,618950	1334,767708	287,266	0,486588	22,490000	54,400000
3,606855	1319,640245	287,868	0,480204	22,490000	54,400000
3,594895	1310,156944	288,468	0,476202	22,490000	54,400000
3,582912	1296,534823	289,070	0,470454	22,490000	54,400000
3,570890	1283,609255	289,671	0,464999	22,500000	54,420000
3,558864	1271,021549	290,271	0,459687	22,500000	54,420000
3,546883	1259,813065	290,871	0,454957	22,500000	54,420000
3,534885	1247,609505	291,472	0,449807	22,500000	54,420000
3,522895	1238,329847	292,072	0,445891	22,500000	54,420000
3,510871	1226,392412	292,673	0,440854	22,500000	54,420000
3,498901	1214,125213	293,274	0,435677	22,500000	54,420000
3,486880	1199,288174	293,875	0,429416	22,480000	54,400000
3,474934	1189,780574	294,478	0,425403	22,480000	54,400000
3,462902	1177,059806	295,081	0,420035	22,480000	54,400000
3,450880	1166,141745	295,683	0,415428	22,490000	54,385000
3,438828	1152,935010	296,285	0,409854	22,490000	54,385000
3,426907	1141,867687	296,886	0,405184	22,490000	54,385000
3,414894	1129,875870	297,487	0,400124	22,490000	54,385000
3,402909	1117,413128	298,089	0,394864	22,490000	54,345000
3,390940	1105,600655	298,690	0,389879	22,490000	54,345000
3,378935	1093,774298	299,290	0,384889	22,490000	54,345000
3,366986	1078,850479	299,890	0,378591	22,490000	54,375000
3,354928	1069,593963	300,493	0,374685	22,490000	54,375000
3,342884	1054,921227	301,093	0,368493	22,490000	54,375000
3,330945	1045,280565	301,693	0,364424	22,490000	54,375000
3,318986	1032,182594	302,295	0,358897	22,490000	54,375000
3,306907	1020,238216	302,895	0,353856	22,490000	54,375000
3,294915	1009,327098	303,497	0,349252	22,490000	54,375000
3,282962	997,335280	304,099	0,344191	22,500000	54,380000
3,270924	985,131720	304,700	0,339042	22,500000	54,380000
3,258952	973,013783	305,300	0,333928	22,500000	54,380000
3,246986	957,651437	305,901	0,327445	22,480000	54,400000
3,234905	945,823923	306,504	0,322454	22,480000	54,400000
3,222998	936,544265	307,104	0,318538	22,480000	54,400000
3,210948	921,714168	307,705	0,312279	22,490000	54,345000
3,198981	910,631804	308,307	0,307603	22,490000	54,345000
3,186976	897,541932	308,909	0,302079	22,490000	54,345000
3,174912	887,909369	309,510	0,298014	22,490000	54,345000
3,162953	876,505341	310,111	0,293201	22,500000	54,390000
3,150914	863,587872	310,712	0,287750	22,500000	54,390000
3,138971	852,262524	311,312	0,282971	22,500000	54,390000
3,127013	840,403769	311,914	0,277966	22,500000	54,390000
3,114964	825,010182	312,515	0,271470	22,500000	54,390000
3,102974	813,417552	313,116	0,266578	22,500000	54,390000
3,090933	800,861087	313,716	0,261279	22,480000	54,375000
3,078943	791,015625	314,317	0,257125	22,480000	54,375000
3,066979	776,907537	314,918	0,251171	22,480000	54,375000
3,054972	767,110671	315,519	0,247037	22,480000	54,375000
3,043002	755,964668	316,120	0,242333	22,480000	54,375000
3,031008	743,659286	316,722	0,237140	22,480000	54,375000
3,018967	728,641745	317,322	0,230803	22,480000	54,375000
3,006952	718,428336	317,922	0,226493	22,480000	54,385000
2,994977	705,613846	318,523	0,221085	22,480000	54,385000
2,982958	695,667719	319,123	0,216888	22,480000	54,385000
2,970950	683,518541	319,724	0,211761	22,480000	54,385000
2,959043	671,456143	320,324	0,206670	22,480000	54,385000
2,946997	656,414303	320,924	0,200323	22,480000	54,385000
2,935023	647,032824	321,526	0,196364	22,480000	54,385000
2,923020	635,267791	322,128	0,191399	22,490000	54,360000
2,910971	623,151011	322,728	0,186286	22,490000	54,360000
2,899005	608,219092	323,330	0,179984	22,490000	54,360000
2,886926	599,276140	323,930	0,176210	22,490000	54,400000
2,874992	584,148678	324,531	0,169827	22,490000	54,400000
2,863037	575,197627	325,131	0,166049	22,490000	54,400000
2,850983	559,984542	325,732	0,159629	22,490000	54,400000
2,838997	547,874704	326,332	0,154519	22,490000	54,400000
2,827027	535,937269	326,934	0,149481	22,490000	54,400000
2,815039	527,017458	327,535	0,145717	22,490000	54,400000
2,803023	511,906194	328,136	0,139340	22,480000	54,360000
2,791018	501,387320	328,736	0,134901	22,480000	54,360000
2,779080	488,972018	329,336	0,129662	22,480000	54,360000
2,767022	477,944035	329,938	0,125008	22,500000	54,365000
2,755031	463,921570	330,538	0,119091	22,500000	54,365000
2,743029	454,265866	331,139	0,115016	22,500000	54,365000
2,731001	439,836113	331,741	0,108927	22,490000	54,375000
2,719006	431,049365	332,342	0,105219	22,490000	54,375000
2,707046	415,663877	332,943	0,098726	22,490000	54,375000
2,695043	403,780824	333,545	0,093711	22,490000	54,375000
2,683051	391,687185	334,146	0,088608	22,490000	54,375000
2,671010	382,478108	334,747	0,084722	22,490000	54,375000
2,658987	368,243900	335,348	0,078715	22,490000	54,375000
2,647051	355,891079	335,948	0,073502	22,490000	54,385000
2,634970	343,922403	336,549	0,068451	22,490000	54,385000
2,623012	332,086789	337,149	0,063457	22,490000	54,385000
2,611006	319,836946	337,750	0,058287	22,500000	54,405000
2,599011	309,012607	338,351	0,053719	22,500000	54,405000
2,587079	295,444868	338,952	0,047994	22,500000	54,405000
2,574994	286,423236	339,553	0,044187	22,500000	54,405000
2,562994	271,561898	340,154	0,037915	22,500000	54,390000
2,551011	262,375963	340,754	0,034039	22,500000	54,390000
2,539037	247,460243	341,355	0,027744	22,500000	54,390000
2,527012	237,976942	341,955	0,023742	22,490000	54,400000
2,515007	223,570331	342,555	0,017663	22,490000	54,400000
2,503054	214,588039	343,155	0,013872	22,490000	54,400000
2,491068	199,319415	343,756	0,007429	22,490000	54,400000
2,479046	190,611347	344,357	0,003754	22,490000	54,400000
2,467035	175,656287	344,959	-0,002557	22,490000	54,400000
2,455052	163,915553	345,561	-0,007512	22,490000	54,400000
2,443017	154,517874	346,161	-0,011478	22,480000	54,385000
2,431064	139,587113	346,763	-0,017778	22,480000	54,385000
2,419029	128,190027	347,366	-0,022588	22,480000	54,385000
2,407029	118,572506	347,966	-0,026646	22,480000	54,400000
2,395054	103,672986	348,567	-0,032934	22,480000	54,400000
2,382984	94,416469	349,168	-0,036840	22,480000	54,400000
2,371073	82,565814	349,770	-0,041841	22,480000	54,400000
2,359049	67,492734	350,370	-0,048202	22,480000	54,400000
2,347032	56,848897	350,971	-0,052694	22,480000	54,400000
2,335005	43,540340	351,572	-0,058310	22,480000	54,400000
2,323077	30,849656	352,172	-0,063666	22,490000	54,400000
2,311029	19,445627	352,772	-0,068478	22,490000	54,400000
2,299037	9,734384	353,372	-0,072576	22,490000	54,400000
2,286950	-4,899011	353,974	-0,078751	22,490000	54,400000
2,275057	-13,912544	354,574	-0,082555	22,490000	54,400000
2,262980	-25,676420	355,175	-0,087520	22,490000	54,400000
2,251025	-37,700635	355,777	-0,092594	22,480000	54,385000
2,239042	-51,322756	356,378	-0,098342	22,480000	54,385000
2,227039	-64,412628	356,980	-0,103866	22,480000	54,385000
2,215068	-75,769217	357,582	-0,108659	22,480000	54,385000
2,203003	-87,417386	358,183	-0,113574	22,500000	54,420000
2,191038	-97,888820	358,784	-0,117993	22,500000	54,420000
2,179120	-112,757100	359,387	-0,124268	22,500000	54,420000
2,167012	-121,519550	359,988	-0,127965	22,490000	54,385000
2,155018	-135,205310	360,588	-0,133741	22,490000	54,385000
2,143053	-148,694368	361,190	-0,139433	22,490000	54,385000
2,131040	-160,224517	361,790	-0,144299	22,490000	54,375000
2,119022	-172,223276	362,391	-0,149362	22,490000	54,375000
2,107051	-184,702218	362,992	-0,154628	22,490000	54,375000
2,095060	-194,687685	363,593	-0,158842	22,490000	54,375000
2,083036	-205,645087	364,194	-0,163466	22,490000	54,375000
2,071041	-217,887987	364,794	-0,168633	22,490000	54,375000
2,059047	-229,323256	365,394	-0,173458	22,490000	54,375000
2,047068	-242,726692	365,995	-0,179115	22,490000	54,400000
2,034981	-253,448052	366,597	-0,183639	22,490000	54,400000
2,023047	-265,723350	367,198	-0,188819	22,490000	54,400000
2,011048	-279,416053	367,800	-0,194598	22,500000	54,380000
1,999041	-292,332364	368,401	-0,200048	22,500000	54,380000
1,987022	-303,893754	369,001	-0,204927	22,500000	54,380000
1,975027	-316,128555	369,603	-0,210090	22,500000	54,380000
1,962991	-327,501342	370,204	-0,214890	22,500000	54,380000
1,950988	-340,034666	370,805	-0,220179	22,500000	54,380000
1,939014	-351,187611	371,405	-0,224885	22,500000	54,380000
1,927049	-363,853997	372,006	-0,230230	22,490000	54,375000
1,915059	-373,016791	372,607	-0,234097	22,490000	54,375000
1,903062	-386,121705	373,210	-0,239627	22,490000	54,375000
1,891039	-397,118446	373,810	-0,244268	22,480000	54,375000
1,879041	-409,440027	374,412	-0,249468	22,480000	54,375000
1,867031	-422,137654	375,012	-0,254826	22,480000	54,375000
1,855077	-432,781491	375,613	-0,259318	22,500000	54,390000
1,843041	-446,662794	376,214	-0,265176	22,500000	54,390000
1,831076	-459,798948	376,814	-0,270719	22,500000	54,390000
1,819030	-468,585697	377,416	-0,274427	22,500000	54,390000
1,807124	-483,618280	378,018	-0,280771	22,490000	54,330000
1,795065	-495,109088	378,620	-0,285620	22,490000	54,330000
1,783114	-507,846055	379,221	-0,290995	22,490000	54,330000
1,771033	-518,944618	379,822	-0,295679	22,490000	54,330000
1,759093	-529,831439	380,422	-0,300273	22,490000	54,330000
1,747028	-541,800115	381,023	-0,305324	22,490000	54,330000
1,735055	-554,066156	381,624	-0,310500	22,490000	54,385000
1,723058	-565,470185	382,225	-0,315312	22,490000	54,385000
1,711030	-577,094055	382,826	-0,320218	22,490000	54,385000
1,699067	-588,271299	383,426	-0,324935	22,490000	54,385000
1,687060	-600,216834	384,027	-0,329976	22,500000	54,365000
1,675073	-612,381054	384,628	-0,335109	22,500000	54,365000
1,663097	-627,108172	385,228	-0,341324	22,500000	54,365000
1,651058	-639,132387	385,829	-0,346398	22,490000	54,375000
1,639125	-651,241067	386,431	-0,351508	22,490000	54,375000
1,627094	-662,943619	387,031	-0,356446	22,490000	54,375000
1,615073	-674,974776	387,632	-0,361523	22,490000	54,375000
1,603080	-686,943452	388,233	-0,366574	22,490000	54,375000
1,591077	-695,792682	388,834	-0,370309	22,490000	54,375000
1,579066	-710,481617	389,435	-0,376507	22,490000	54,375000
1,567065	-721,893744	390,036	-0,381323	22,500000	54,420000
1,555076	-733,493317	390,637	-0,386218	22,500000	54,420000
1,543079	-744,544441	391,238	-0,390882	22,500000	54,420000
1,531118	-757,007183	391,839	-0,396141	22,490000	54,430000
1,519068	-767,705402	392,439	-0,400656	22,490000	54,430000
1,507044	-779,353571	393,040	-0,405571	22,490000	54,430000
1,495072	-791,291006	393,641	-0,410609	22,480000	54,375000
1,483133	-803,181002	394,242	-0,415626	22,480000	54,375000
1,471147	-815,164720	394,845	-0,420684	22,480000	54,375000
1,459073	-827,008433	395,446	-0,425682	22,480000	54,375000
1,447092	-841,751749	396,046	-0,431903	22,480000	54,385000
1,435146	-850,381137	396,647	-0,435545	22,480000	54,385000
1,423073	-864,591047	397,250	-0,441542	22,480000	54,385000
1,411122	-874,451551	397,850	-0,445703	22,500000	54,365000
1,399100	-888,677660	398,450	-0,451706	22,500000	54,365000
1,387033	-898,333364	399,051	-0,455781	22,500000	54,365000
1,375097	-911,830522	399,651	-0,461477	22,500000	54,365000
1,363051	-922,544940	400,253	-0,465998	22,500000	54,365000
1,351073	-933,259358	400,853	-0,470520	22,500000	54,365000
1,339093	-0,124963	401,454	-0,076737	22,500000	54,365000
1,327075	-0,156204	402,055	-0,076750	22,490000	54,400000
1,315075	0,219842	402,658	-0,076591	22,490000	54,400000
1,303090	-0,039340	403,259	-0,076701	22,490000	54,400000
1,291082	0,211743	403,860	-0,076595	22,500000	54,380000
1,288051	0,226785	404,010	-0,076588	22,500000	54,380000