File: Nanoindentation Datenauswertung/data/Saphir/PM-Sa-150ms, 3um, 20nms ,9cycles-3
Quasi static measurement routine
Tip parameters (shape,radius, material...)
08.09.2022

Piezo position[nm]	MEMS displ.[nm]	Time[ms]	Cap [pf]	Temp [°C]	Rh [%]
eoh
1,251856	-0,234884	0,216	-0,076740	22,480000	54,480000
1,268916	0,101822	2,768	-0,076598	22,480000	54,495000
1,285869	-0,124963	5,324	-0,076694	22,480000	54,495000
1,302865	0,124963	7,879	-0,076588	22,490000	54,455000
1,319877	-0,031241	10,432	-0,076654	22,480000	54,480000
1,336941	0,000000	12,989	-0,076641	22,490000	54,480000
1,353949	-0,093722	15,539	-0,076681	22,480000	54,455000
1,370879	-0,242984	18,092	-0,076744	22,480000	54,495000
1,387873	-0,218685	20,649	-0,076733	22,480000	54,495000
1,404959	0,000000	23,203	-0,076641	22,480000	54,510000
1,421943	-0,344805	25,757	-0,076787	22,480000	54,510000
1,438877	-0,047440	28,314	-0,076661	22,480000	54,525000
1,455918	-0,218685	30,869	-0,076733	22,500000	54,475000
1,472886	-0,266125	33,421	-0,076753	22,480000	54,480000
1,489857	-0,133062	35,975	-0,076697	22,480000	54,480000
1,506891	-0,195544	38,527	-0,076724	22,490000	54,510000
1,523857	-0,157361	41,081	-0,076708	22,490000	54,510000
1,540881	-0,149261	43,631	-0,076704	22,480000	54,480000
1,557879	-0,101822	46,186	-0,076684	22,480000	54,525000
1,574807	0,016199	48,739	-0,076634	22,490000	54,525000
1,591859	-0,180502	51,296	-0,076717	22,480000	54,480000
1,608921	-0,109921	53,851	-0,076688	22,480000	54,480000
1,625836	-0,141162	56,404	-0,076701	22,480000	54,480000
1,642900	-0,070581	58,957	-0,076671	22,490000	54,510000
1,659836	-0,149261	61,512	-0,076704	22,500000	54,485000
1,676939	-0,234884	64,069	-0,076740	22,490000	54,495000
1,693845	0,024298	66,624	-0,076631	22,490000	54,480000
1,710844	-0,195544	69,179	-0,076724	22,490000	54,480000
1,727819	-0,352905	71,737	-0,076790	22,480000	54,525000
1,744881	-0,384145	74,290	-0,076803	22,490000	54,480000
1,761845	-0,297366	76,843	-0,076767	22,480000	54,525000
1,778871	-0,195544	79,399	-0,076724	22,480000	54,525000
1,795843	-0,266125	81,957	-0,076753	22,490000	54,495000
1,812831	-0,321664	84,509	-0,076777	22,480000	54,510000
1,829851	-0,297366	87,063	-0,076767	22,480000	54,480000
1,846865	-0,517208	89,618	-0,076859	22,490000	54,480000
1,863827	-0,430428	92,172	-0,076823	22,490000	54,480000
1,880824	-0,211743	94,725	-0,076730	22,480000	54,495000
1,897847	-0,446627	97,279	-0,076830	22,480000	54,455000
1,914851	-0,266125	99,834	-0,076753	22,490000	54,495000
1,931830	-0,423486	102,388	-0,076820	22,490000	54,455000
1,948902	-0,329763	104,944	-0,076780	22,490000	54,495000
1,965840	-0,376046	107,496	-0,076800	22,480000	54,480000
1,982814	-0,313564	110,048	-0,076773	22,480000	54,480000
1,999822	-0,446627	112,598	-0,076830	22,500000	54,485000
2,016827	-0,423486	115,151	-0,076820	22,480000	54,495000
2,033811	-0,619030	117,705	-0,076902	22,490000	54,480000
2,050842	-0,423486	120,257	-0,076820	22,490000	54,480000
2,067823	-0,822673	122,810	-0,076988	22,490000	54,495000
2,084790	-0,234884	125,367	-0,076740	22,480000	54,480000
2,101818	-0,650270	127,921	-0,076916	22,480000	54,510000
2,118845	-0,853914	130,473	-0,077001	22,490000	54,535000
2,135810	-1,081855	133,024	-0,077098	22,490000	54,470000
2,152838	-1,246159	135,579	-0,077167	22,480000	54,480000
2,169831	-1,646503	138,132	-0,077336	22,480000	54,480000
2,186807	-2,085030	140,685	-0,077521	22,480000	54,525000
2,203858	-42,772049	143,239	-0,094691	22,490000	54,495000
2,220819	-25,582698	145,793	-0,087437	22,490000	54,495000
2,237769	-8,456985	148,347	-0,080210	22,480000	54,495000
2,254861	8,770549	150,900	-0,072940	22,480000	54,525000
2,271850	26,069822	153,451	-0,065640	22,480000	54,535000
2,288846	42,763950	156,003	-0,058595	22,480000	54,480000
2,305806	59,536758	158,556	-0,051517	22,480000	54,480000
2,322766	76,921653	161,111	-0,044180	22,480000	54,480000
2,339750	94,235967	163,665	-0,036874	22,480000	54,495000
2,356793	111,361680	166,225	-0,029646	22,480000	54,495000
2,373835	128,542932	168,777	-0,022396	22,480000	54,480000
2,390778	144,233884	171,333	-0,015774	22,490000	54,495000
2,407879	162,160286	173,885	-0,008209	22,480000	54,510000
2,424827	179,121695	176,445	-0,001052	22,490000	54,510000
2,441802	196,208068	178,997	0,006159	22,480000	54,510000
2,458820	213,333781	181,552	0,013386	22,480000	54,510000
2,473824	228,594305	184,107	0,019826	22,480000	54,510000
2,461808	216,406944	186,663	0,014683	22,480000	54,480000
2,444803	199,163211	189,219	0,007406	22,480000	54,480000
2,427838	182,413544	191,771	0,000337	22,490000	54,510000
2,410826	164,801864	194,326	-0,007095	22,490000	54,495000
2,393821	147,597471	196,882	-0,014355	22,490000	54,495000
2,376840	130,611763	199,438	-0,021523	22,490000	54,495000
2,359799	113,807714	201,991	-0,028614	22,480000	54,455000
2,342789	97,058048	204,546	-0,035683	22,490000	54,480000
2,325780	79,249667	207,099	-0,043198	22,490000	54,510000
2,308817	62,892245	209,653	-0,050101	22,490000	54,510000
2,291814	45,076922	212,212	-0,057619	22,490000	54,510000
2,274857	28,906944	214,765	-0,064442	22,500000	54,515000
2,257835	11,380887	217,317	-0,071838	22,490000	54,510000
2,240812	-5,894087	219,871	-0,079128	22,480000	54,495000
2,223758	-22,432011	222,425	-0,086107	22,480000	54,495000
2,206769	-40,452135	224,981	-0,093712	22,480000	54,495000
2,189786	-56,990059	227,535	-0,100691	22,480000	54,495000
2,172809	-73,825348	230,091	-0,107795	22,480000	54,525000
2,178838	-69,766366	232,531	-0,106083	22,490000	54,495000
2,195833	-51,424578	235,086	-0,098342	22,490000	54,525000
2,212832	-35,286998	237,639	-0,091532	22,490000	54,480000
2,229804	-17,321257	240,194	-0,083951	22,480000	54,535000
2,246829	-1,191777	242,748	-0,077144	22,480000	54,510000
2,263842	17,219435	245,304	-0,069375	22,480000	54,480000
2,280792	33,272549	247,858	-0,062600	22,480000	54,510000
2,297810	50,782407	250,413	-0,055211	22,480000	54,510000
2,314739	68,551448	252,968	-0,047712	22,490000	54,510000
2,331813	85,778982	255,527	-0,040442	22,490000	54,470000
2,348838	102,239383	258,082	-0,033496	22,490000	54,525000
2,365846	118,854830	260,635	-0,026484	22,490000	54,495000
2,382814	135,909962	263,189	-0,019287	22,470000	54,510000
2,399829	153,279815	265,743	-0,011957	22,470000	54,510000
2,416787	171,456143	268,295	-0,004287	22,500000	54,530000
2,433779	188,660536	270,851	0,002974	22,480000	54,495000
2,450771	204,720592	273,404	0,009751	22,480000	54,510000
2,467788	221,846305	275,958	0,016978	22,480000	54,510000
2,484830	239,474184	278,513	0,024417	22,490000	54,525000
2,501780	257,117104	281,068	0,031862	22,480000	54,525000
2,518827	274,124796	283,622	0,039040	22,490000	54,480000
2,535830	290,130471	286,177	0,045794	22,490000	54,480000
2,552763	307,914553	288,732	0,053299	22,480000	54,480000
2,569800	324,115771	291,288	0,060136	22,490000	54,510000
2,586807	340,669894	293,839	0,067122	22,490000	54,510000
2,603745	357,772466	296,393	0,074339	22,490000	54,525000
2,620757	375,579689	298,949	0,081854	22,490000	54,495000
2,637833	392,345555	301,502	0,088929	22,490000	54,495000
2,654826	408,797856	304,053	0,095872	22,480000	54,480000
2,671743	426,307714	306,610	0,103261	22,480000	54,495000
2,688849	442,783157	309,162	0,110213	22,480000	54,470000
2,692745	447,470425	311,718	0,112191	22,480000	54,470000
2,675806	430,446534	314,273	0,105007	22,480000	54,470000
2,658763	413,711909	316,824	0,097945	22,490000	54,510000
2,641774	397,369529	319,379	0,091049	22,480000	54,480000
2,624761	378,817156	321,932	0,083220	22,480000	54,480000
2,607794	362,647179	324,483	0,076396	22,490000	54,495000
2,590797	345,577005	327,038	0,069192	22,490000	54,495000
2,573806	328,497575	329,594	0,061985	22,480000	54,495000
2,556827	310,406870	332,149	0,054351	22,480000	54,495000
2,539809	293,336697	334,703	0,047147	22,480000	54,510000
2,522854	276,241067	337,254	0,039933	22,480000	54,510000
2,505831	259,468259	339,805	0,032854	22,490000	54,495000
2,488782	242,907194	342,360	0,025866	22,490000	54,525000
2,471809	226,000167	344,916	0,018731	22,480000	54,510000
2,454803	208,708994	347,471	0,011434	22,490000	54,480000
2,437836	191,333355	350,027	0,004102	22,480000	54,480000
2,420832	173,281991	352,583	-0,003516	22,480000	54,510000
2,403822	156,233801	355,139	-0,010710	22,480000	54,510000
2,386810	139,978201	357,691	-0,017570	22,480000	54,510000
2,369755	122,719426	360,246	-0,024854	22,490000	54,495000
2,352821	105,523132	362,799	-0,032110	22,490000	54,495000
2,335795	87,425485	365,353	-0,039748	22,470000	54,480000
2,349843	101,901520	367,787	-0,033639	22,490000	54,495000
2,366793	118,910369	370,345	-0,026461	22,490000	54,495000
2,383818	136,310306	372,899	-0,019118	22,480000	54,495000
2,400819	153,608422	375,456	-0,011818	22,480000	54,510000
2,417866	170,719092	378,009	-0,004598	22,480000	54,480000
2,434813	186,935352	380,563	0,002246	22,480000	54,480000
2,451774	204,633812	383,119	0,009714	22,500000	54,500000
2,468769	222,488476	385,675	0,017249	22,490000	54,495000
2,485783	238,266208	388,226	0,023907	22,490000	54,525000
2,502778	256,137070	390,780	0,031449	22,480000	54,495000
2,519779	272,589372	393,334	0,038392	22,480000	54,510000
2,536796	291,094305	395,889	0,046201	22,490000	54,495000
2,553782	306,684593	398,439	0,052780	22,480000	54,525000
2,570816	324,022049	400,993	0,060096	22,480000	54,495000
2,587851	341,822330	403,549	0,067608	22,490000	54,455000
2,604768	358,798782	406,104	0,074772	22,490000	54,455000
2,621799	375,219842	408,656	0,081702	22,470000	54,510000
2,638810	393,145087	411,213	0,089266	22,490000	54,480000
2,655834	409,440027	413,771	0,096143	22,480000	54,495000
2,672820	427,460151	416,327	0,103747	22,480000	54,495000
2,689776	443,865012	418,881	0,110670	22,490000	54,495000
2,706763	461,468593	421,434	0,118099	22,490000	54,535000
2,723805	478,782907	423,985	0,125405	22,490000	54,535000
2,740792	494,944785	426,539	0,132226	22,490000	54,510000
2,757820	512,023058	429,094	0,139433	22,490000	54,510000
2,774778	529,094389	431,649	0,146637	22,470000	54,535000
2,791784	547,098313	434,202	0,154234	22,490000	54,495000
2,808805	563,252092	436,755	0,161051	22,480000	54,480000
2,825816	579,931178	439,306	0,168090	22,480000	54,495000
2,842762	598,163044	441,859	0,175784	22,480000	54,525000
2,859727	615,116354	444,412	0,182938	22,490000	54,525000
2,876764	631,207651	446,965	0,189729	22,490000	54,495000
2,893766	648,302123	449,523	0,196942	22,490000	54,510000
2,910785	665,639579	452,075	0,204259	22,490000	54,495000
2,914778	671,071997	454,631	0,206551	22,480000	54,525000
2,897803	652,974350	457,186	0,198914	22,490000	54,480000
2,880791	636,968676	459,742	0,192160	22,480000	54,510000
2,863775	619,591880	462,295	0,184827	22,480000	54,495000
2,846775	602,191943	464,852	0,177484	22,490000	54,510000
2,829867	584,705226	467,407	0,170104	22,480000	54,535000
2,812859	568,057381	469,962	0,163079	22,480000	54,525000
2,795782	550,570664	472,522	0,155700	22,500000	54,515000
2,778802	533,804799	475,075	0,148625	22,480000	54,510000
2,761759	515,974434	477,631	0,141100	22,480000	54,495000
2,744773	500,055539	480,181	0,134382	22,480000	54,565000
2,727848	482,921727	482,735	0,127152	22,490000	54,480000
2,710790	465,819155	485,292	0,119935	22,490000	54,480000
2,693808	447,580347	487,843	0,112238	22,500000	54,530000
2,676769	431,049365	490,397	0,105262	22,490000	54,510000
2,659798	413,907453	492,952	0,098028	22,480000	54,480000
2,642894	396,092130	495,505	0,090510	22,490000	54,525000
2,625838	378,864596	498,056	0,083240	22,490000	54,480000
2,608813	362,725859	500,609	0,076429	22,490000	54,535000
2,591845	345,646429	503,164	0,069222	22,490000	54,535000
2,574853	328,215251	505,719	0,061866	22,490000	54,510000
2,557837	311,504924	508,271	0,054814	22,500000	54,555000
2,540761	294,143171	510,823	0,047487	22,480000	54,480000
2,523764	277,211845	513,377	0,040342	22,490000	54,525000
2,506838	260,126629	515,933	0,033132	22,490000	54,525000
2,510859	262,963751	518,369	0,034330	22,490000	54,525000
2,527786	279,314231	520,924	0,041229	22,470000	54,510000
2,544787	296,792848	523,476	0,048605	22,490000	54,525000
2,561825	313,495076	526,033	0,055654	22,490000	54,525000
2,578833	331,052373	528,586	0,063063	22,490000	54,525000
2,595853	348,632812	531,143	0,070482	22,480000	54,535000
2,612868	365,837206	533,702	0,077742	22,480000	54,535000
2,629832	382,343889	536,261	0,084708	22,480000	54,550000
2,646867	399,344639	538,815	0,091882	22,490000	54,495000
2,663836	417,411045	541,371	0,099506	22,480000	54,535000
2,680788	434,035749	543,928	0,106522	22,480000	54,535000
2,697821	452,141495	546,485	0,114163	22,480000	54,510000
2,714800	468,083531	549,039	0,120890	22,480000	54,480000
2,731818	485,225442	551,592	0,128124	22,480000	54,495000
2,748805	502,751500	554,150	0,135520	22,480000	54,495000
2,765840	520,206976	556,704	0,142886	22,480000	54,510000
2,782773	536,674319	559,257	0,149835	22,490000	54,535000
2,799798	554,599563	561,812	0,157400	22,480000	54,495000
2,816819	570,549698	564,369	0,164131	22,480000	54,495000
2,833776	588,742225	566,925	0,171808	22,490000	54,550000
2,850798	605,193369	569,480	0,178750	22,480000	54,525000
2,867776	622,202218	572,034	0,185928	22,490000	54,495000
2,884776	639,069905	574,589	0,193046	22,490000	54,495000
2,901721	657,221934	577,145	0,200707	22,480000	54,510000
2,918789	673,885978	579,701	0,207739	22,490000	54,525000
2,935790	690,376463	582,254	0,214698	22,490000	54,525000
2,952824	708,756433	584,806	0,222454	22,490000	54,510000
2,969779	725,921486	587,360	0,229698	22,490000	54,510000
2,986828	741,981543	589,914	0,236475	22,500000	54,475000
3,003813	758,841130	592,470	0,243590	22,480000	54,495000
3,020801	776,265366	595,027	0,250943	22,490000	54,470000
3,037806	794,049448	597,582	0,258448	22,500000	54,515000
3,054740	811,245742	600,138	0,265705	22,480000	54,525000
3,071837	827,392578	602,691	0,272519	22,480000	54,495000
3,088767	844,071664	605,244	0,279557	22,490000	54,495000
3,105743	862,655278	607,799	0,287399	22,490000	54,525000
3,122819	878,314990	610,353	0,294008	22,480000	54,525000
3,139753	895,551781	612,907	0,301282	22,490000	54,480000
3,129719	886,889996	615,464	0,297626	22,480000	54,495000
3,112756	868,643087	618,015	0,289926	22,500000	54,485000
3,095773	851,870279	620,569	0,282848	22,480000	54,510000
3,078786	835,442276	623,126	0,275916	22,480000	54,525000
3,061733	818,096721	625,681	0,268596	22,480000	54,510000
3,044813	800,798606	628,234	0,261296	22,490000	54,510000
3,027762	783,382470	630,795	0,253946	22,490000	54,470000
3,010765	766,843389	633,351	0,246967	22,490000	54,470000
2,993790	748,675161	635,906	0,239300	22,490000	54,535000
2,976769	731,744992	638,462	0,232155	22,490000	54,535000
2,959738	715,105247	641,018	0,225133	22,500000	54,500000
2,942770	698,394920	643,572	0,218082	22,470000	54,535000
2,925779	680,461576	646,124	0,210514	22,470000	54,535000
2,908837	663,006100	648,679	0,203147	22,480000	54,495000
2,891772	647,182085	651,233	0,196470	22,480000	54,525000
2,874813	628,918978	653,791	0,188763	22,490000	54,480000
2,857785	612,827681	656,344	0,181972	22,480000	54,510000
2,840775	595,474026	658,900	0,174649	22,480000	54,495000
2,823728	578,685019	661,459	0,167564	22,490000	54,525000
2,806810	561,276983	664,011	0,160218	22,490000	54,525000
2,789822	544,504175	666,566	0,153140	22,490000	54,510000
2,772883	526,805715	669,123	0,145671	22,490000	54,510000
2,755840	510,118530	671,676	0,138629	22,490000	54,495000
2,738815	491,942202	674,232	0,130958	22,490000	54,480000
2,721797	475,553540	676,785	0,124042	22,480000	54,525000
2,704785	458,223027	679,341	0,116729	22,500000	54,500000
2,687809	441,504600	681,900	0,109674	22,490000	54,510000
2,670796	425,155278	684,451	0,102774	22,490000	54,510000
2,680809	433,456059	686,913	0,106277	22,490000	54,495000
2,697866	451,161461	689,469	0,113749	22,490000	54,495000
2,714820	467,339538	692,025	0,120576	22,490000	54,480000
2,731797	484,307890	694,581	0,127737	22,480000	54,480000
2,748781	501,607163	697,134	0,135037	22,480000	54,480000
2,765808	518,678493	699,691	0,142241	22,490000	54,495000
2,782837	536,572497	702,247	0,149792	22,490000	54,510000
2,799787	552,742474	704,801	0,156616	22,490000	54,525000
2,816776	569,710826	707,353	0,163777	22,490000	54,550000
2,833770	587,730950	709,911	0,171381	22,490000	54,480000
2,850777	605,193369	712,467	0,178750	22,490000	54,495000
2,867801	622,052957	715,023	0,185865	22,490000	54,495000
2,884855	638,246075	717,576	0,192699	22,480000	54,510000
2,901807	656,140079	720,131	0,200250	22,480000	54,525000
2,918791	673,344472	722,686	0,207510	22,490000	54,525000
2,935792	689,671810	725,241	0,214400	22,490000	54,525000
2,952767	707,094889	727,794	0,221753	22,490000	54,525000
2,969801	724,010016	730,350	0,228891	22,480000	54,510000
2,986758	741,723517	732,904	0,236366	22,480000	54,510000
3,003736	759,194035	735,457	0,243739	22,480000	54,565000
3,020825	776,217926	738,015	0,250923	22,480000	54,565000
3,037824	792,223600	740,571	0,257677	22,490000	54,535000
3,054777	809,521716	743,122	0,264977	22,480000	54,480000
3,071785	826,749250	745,676	0,272247	22,480000	54,480000
3,088836	844,345888	748,230	0,279673	22,500000	54,555000
3,105800	860,798189	750,785	0,286616	22,480000	54,525000
3,122809	878,864596	753,338	0,294240	22,480000	54,525000
3,139775	895,802864	755,893	0,301388	22,480000	54,525000
3,156768	913,006100	758,449	0,308647	22,480000	54,525000
3,173738	929,873787	761,004	0,315766	22,490000	54,525000
3,190753	947,203144	763,559	0,323079	22,480000	54,480000
3,207770	964,369354	766,114	0,330323	22,490000	54,535000
3,224744	981,470768	768,667	0,337540	22,480000	54,495000
3,241700	997,523882	771,223	0,344314	22,490000	54,495000
3,258726	1015,135562	773,773	0,351746	22,490000	54,510000
3,275736	1031,516125	776,332	0,358659	22,490000	54,510000
3,292748	1049,081522	778,885	0,366071	22,490000	54,525000
3,309768	1065,438944	781,437	0,372974	22,490000	54,480000
3,326672	1082,612096	783,991	0,380221	22,480000	54,510000
3,343743	1099,213659	786,548	0,387227	22,490000	54,510000
3,360702	1115,664803	789,101	0,394169	22,490000	54,535000
3,352725	1108,956143	791,656	0,391338	22,490000	54,535000
3,335696	1092,786165	794,209	0,384515	22,480000	54,550000
3,318733	1075,652353	796,763	0,377284	22,490000	54,550000
3,301693	1057,938851	799,318	0,369809	22,480000	54,470000
3,284758	1041,407870	801,871	0,362833	22,480000	54,495000
3,267736	1024,517041	804,426	0,355705	22,480000	54,495000
3,250746	1006,921560	806,980	0,348280	22,480000	54,480000
3,233704	989,732209	809,537	0,341026	22,490000	54,510000
3,216723	972,762700	812,091	0,333865	22,480000	54,510000
3,199772	955,346564	814,647	0,326515	22,490000	54,495000
3,182773	937,554382	817,205	0,319007	22,480000	54,535000
3,165749	920,444868	819,759	0,311787	22,480000	54,535000
3,148751	902,895670	822,313	0,304381	22,480000	54,480000
3,131769	886,584531	824,865	0,297498	22,480000	54,525000
3,114770	869,286415	827,419	0,290198	22,490000	54,480000
3,097788	851,658536	829,975	0,282759	22,480000	54,525000
3,080868	835,394837	832,531	0,275896	22,490000	54,510000
3,063747	818,080522	835,088	0,268589	22,490000	54,495000
3,046776	801,291515	837,641	0,261504	22,490000	54,525000
3,029784	783,343130	840,198	0,253930	22,490000	54,535000
3,012817	766,271799	842,754	0,246726	22,490000	54,525000
2,995825	749,185427	845,305	0,239515	22,490000	54,525000
2,978784	731,941693	847,859	0,232238	22,490000	54,510000
2,961841	715,889736	850,414	0,225464	22,490000	54,565000
2,944851	699,022049	852,967	0,218346	22,490000	54,495000
2,927762	680,963742	855,522	0,210726	22,490000	54,495000
2,910796	664,393420	858,074	0,203733	22,490000	54,510000
2,893796	647,016625	860,630	0,196400	22,490000	54,535000
2,876840	630,557381	863,184	0,189454	22,480000	54,510000
2,859778	613,502249	865,739	0,182257	22,480000	54,510000
2,842853	594,605071	868,297	0,174282	22,490000	54,525000
2,840788	592,919228	870,737	0,173571	22,480000	54,525000
2,857834	609,159786	873,291	0,180424	22,480000	54,525000
2,874838	626,677744	875,847	0,187817	22,500000	54,540000
2,891815	643,246908	878,400	0,194809	22,480000	54,510000
2,908852	660,325181	880,954	0,202016	22,490000	54,535000
2,925819	677,616354	883,507	0,209313	22,480000	54,590000
2,942842	694,805706	886,064	0,216567	22,480000	54,535000
2,959791	711,985801	888,617	0,223817	22,490000	54,550000
2,976799	730,012867	891,172	0,231424	22,490000	54,550000
2,993747	746,315906	893,724	0,238304	22,480000	54,495000
3,010807	763,474017	896,275	0,245545	22,480000	54,510000
3,027797	780,435427	898,830	0,252703	22,480000	54,495000
3,044783	798,015866	901,386	0,260122	22,490000	54,535000
3,061800	814,616271	903,936	0,267127	22,490000	54,525000
3,078821	831,185436	906,491	0,274119	22,490000	54,525000
3,095794	848,594629	909,047	0,281466	22,500000	54,540000
3,112778	866,566156	911,606	0,289050	22,490000	54,510000
3,129790	882,932835	914,161	0,295957	22,490000	54,510000
3,146788	900,144170	916,715	0,303220	22,500000	54,540000
3,163783	916,949376	919,269	0,310312	22,500000	54,540000
3,180740	935,101405	921,823	0,317972	22,490000	54,510000
3,197828	952,446960	924,374	0,325292	22,490000	54,510000
3,214792	968,498917	926,930	0,332065	22,490000	54,550000
3,231780	985,836373	929,485	0,339382	22,490000	54,535000
3,248757	1003,636654	932,041	0,346894	22,490000	54,525000
3,265780	1020,097055	934,594	0,353840	22,480000	54,525000
3,282723	1037,896179	937,149	0,361351	22,480000	54,525000
3,299726	1054,513940	939,702	0,368364	22,480000	54,480000
3,316731	1071,827098	942,256	0,375670	22,480000	54,480000
3,333732	1088,734125	944,809	0,382805	22,480000	54,535000
3,350730	1106,604987	947,362	0,390346	22,480000	54,535000
3,367757	1122,914970	949,913	0,397229	22,480000	54,525000
3,384731	1139,469092	952,464	0,404215	22,480000	54,510000
3,401710	1157,527399	955,018	0,411835	22,480000	54,575000
3,418717	1173,815397	957,571	0,418709	22,480000	54,550000
3,435679	1190,862430	960,122	0,425903	22,480000	54,550000
3,452675	1208,646512	962,676	0,433408	22,480000	54,510000
3,469714	1224,519124	965,232	0,440106	22,480000	54,525000
3,486703	1242,170144	967,786	0,447555	22,490000	54,575000
3,503738	1259,076015	970,341	0,454689	22,480000	54,510000
3,520677	1276,037424	972,897	0,461847	22,480000	54,535000
3,537671	1293,438518	975,449	0,469190	22,490000	54,525000
3,554734	1310,792173	978,006	0,476513	22,490000	54,495000
3,571661	1326,788590	980,559	0,483264	22,480000	54,510000
3,583694	1339,689860	983,113	0,488708	22,480000	54,525000
3,568672	1324,641079	985,663	0,482357	22,480000	54,525000
3,551682	1308,126296	988,217	0,475388	22,490000	54,510000
3,534694	1291,031824	990,770	0,468174	22,480000	54,550000
3,517722	1274,039174	993,323	0,461003	22,470000	54,510000
3,500698	1256,419394	995,880	0,453568	22,470000	54,510000
3,483697	1238,862096	998,438	0,446159	22,480000	54,535000
3,466666	1221,933085	1000,995	0,439015	22,480000	54,535000
3,449739	1205,763107	1003,549	0,432191	22,480000	54,535000
3,432677	1188,581855	1006,101	0,424940	22,480000	54,525000
3,415689	1170,977118	1008,655	0,417511	22,500000	54,515000
3,398761	1154,501675	1011,214	0,410559	22,490000	54,510000
3,381695	1136,569489	1013,773	0,402991	22,480000	54,480000
3,364697	1119,356996	1016,328	0,395728	22,490000	54,510000
3,347753	1102,198886	1018,881	0,388487	22,480000	54,495000
3,330766	1086,256850	1021,436	0,381759	22,480000	54,495000
3,313746	1069,131137	1023,988	0,374532	22,480000	54,525000
3,296744	1051,816823	1026,542	0,367226	22,480000	54,525000
3,279745	1035,012774	1029,095	0,360134	22,480000	54,495000
3,262737	1016,922069	1031,646	0,352500	22,480000	54,525000
3,245777	1001,113096	1034,200	0,345829	22,500000	54,500000
3,228773	983,132313	1036,756	0,338241	22,490000	54,510000
3,211763	965,544931	1039,311	0,330819	22,490000	54,510000
3,194735	948,378721	1041,865	0,323575	22,480000	54,480000
3,177756	931,958818	1044,419	0,316646	22,490000	54,525000
3,160776	914,833105	1046,971	0,309418	22,480000	54,525000
3,143752	897,699293	1049,525	0,302188	22,480000	54,525000
3,126821	880,322497	1052,079	0,294855	22,490000	54,510000
3,109770	862,773299	1054,633	0,287449	22,490000	54,535000
3,092782	845,349063	1057,186	0,280096	22,490000	54,550000
3,075773	829,108505	1059,741	0,273243	22,490000	54,535000
3,058818	812,265116	1062,297	0,266135	22,490000	54,535000
3,041816	794,308631	1064,852	0,258557	22,480000	54,550000
3,024765	777,009358	1067,406	0,251257	22,480000	54,550000
3,007838	761,004841	1069,959	0,244503	22,480000	54,510000
3,009786	760,981700	1072,399	0,244493	22,480000	54,510000
3,026753	777,950052	1074,953	0,251654	22,480000	54,495000
3,043812	795,288664	1077,507	0,258971	22,490000	54,550000
3,060790	812,250074	1080,061	0,266128	22,490000	54,550000
3,077759	830,221601	1082,614	0,273712	22,490000	54,535000
3,094828	846,933085	1085,166	0,280765	22,490000	54,525000
3,111818	863,595972	1087,723	0,287796	22,490000	54,525000
3,128790	880,612920	1090,276	0,294978	22,490000	54,535000
3,145809	898,451385	1092,827	0,302505	22,490000	54,535000
3,162830	914,746325	1095,383	0,309382	22,490000	54,535000
3,179809	931,732033	1097,936	0,316550	22,490000	54,525000
3,196779	949,100729	1100,492	0,323879	22,490000	54,525000
3,213801	966,155861	1103,046	0,331077	22,480000	54,535000
3,230832	984,018624	1105,599	0,338615	22,490000	54,510000
3,247781	1000,485967	1108,152	0,345564	22,480000	54,535000
3,264714	1018,309390	1110,705	0,353085	22,480000	54,495000
3,281740	1034,518707	1113,255	0,359926	22,480000	54,525000
3,298800	1052,898678	1115,812	0,367682	22,480000	54,525000
3,315810	1069,201718	1118,368	0,374562	22,490000	54,535000
3,332760	1086,844639	1120,922	0,382007	22,480000	54,510000
3,349715	1102,756591	1123,475	0,388722	22,480000	54,525000
3,366756	1119,936685	1126,029	0,395972	22,500000	54,515000
3,383721	1138,324756	1128,584	0,403732	22,500000	54,500000
3,400740	1154,839538	1131,142	0,410701	22,480000	54,535000
3,417727	1172,372538	1133,695	0,418100	22,490000	54,480000
3,434735	1188,644337	1136,247	0,424967	22,480000	54,510000
3,451729	1206,178493	1138,803	0,432366	22,490000	54,510000
3,468723	1222,826338	1141,358	0,439392	22,480000	54,525000
3,485742	1240,602322	1143,912	0,446893	22,480000	54,525000
3,502761	1256,936602	1146,466	0,453786	22,490000	54,510000
3,519727	1274,024132	1149,021	0,460997	22,480000	54,565000
3,536684	1291,565231	1151,574	0,468399	22,480000	54,550000
3,553729	1308,776566	1154,125	0,475663	22,480000	54,510000
3,570689	1326,067739	1156,679	0,482959	22,480000	54,525000
3,587708	1343,358912	1159,234	0,490256	22,490000	54,495000
3,604710	1360,115521	1161,790	0,497328	22,490000	54,525000
3,621657	1377,587196	1164,346	0,504701	22,490000	54,510000
3,638670	1394,030241	1166,898	0,511640	22,500000	54,555000
3,655665	1410,694285	1169,451	0,518672	22,480000	54,525000
3,672718	1427,686935	1172,002	0,525843	22,500000	54,530000
3,689675	1445,502259	1174,556	0,533361	22,490000	54,525000
3,706704	1461,547273	1177,113	0,540132	22,490000	54,525000
3,723643	1478,414960	1179,666	0,547250	22,480000	54,525000
3,740702	1495,328930	1182,221	0,554388	22,480000	54,525000
3,757718	1512,485884	1184,772	0,561628	22,490000	54,535000
3,774690	1529,972601	1187,326	0,569007	22,490000	54,535000
3,791671	1546,589205	1189,883	0,576020	22,490000	54,550000
3,805689	1561,332522	1192,441	0,582241	22,480000	54,495000
3,792694	1548,925318	1194,999	0,577005	22,490000	54,510000
3,775701	1532,269374	1197,551	0,569977	22,490000	54,525000
3,758700	1514,720176	1200,103	0,562571	22,480000	54,510000
3,741689	1497,719426	1202,657	0,555396	22,480000	54,550000
3,724694	1480,248908	1205,212	0,548024	22,480000	54,525000
3,707679	1462,126962	1207,768	0,540376	22,480000	54,525000
3,690721	1445,808881	1210,323	0,533490	22,490000	54,495000
3,673744	1428,666969	1212,877	0,526256	22,480000	54,550000
3,656736	1411,830522	1215,433	0,519151	22,480000	54,550000
3,639660	1394,657370	1217,992	0,511904	22,490000	54,525000
3,622734	1377,892661	1220,548	0,504830	22,490000	54,535000
3,605695	1360,154862	1223,102	0,497344	22,480000	54,510000
3,588718	1342,879887	1225,654	0,490054	22,480000	54,525000
3,571652	1325,409369	1228,211	0,482682	22,480000	54,550000
3,554669	1309,160712	1230,768	0,475825	22,490000	54,535000
3,537679	1292,153019	1233,324	0,468647	22,480000	54,535000
3,520733	1274,305298	1235,877	0,461116	22,470000	54,550000
3,503626	1256,537415	1238,435	0,453618	22,480000	54,550000
3,486679	1239,403603	1240,991	0,446387	22,480000	54,525000
3,469751	1222,402853	1243,548	0,439213	22,480000	54,525000
3,452647	1205,950552	1246,106	0,432270	22,480000	54,535000
3,435749	1188,660536	1248,662	0,424974	22,480000	54,535000
3,418712	1172,333198	1251,216	0,418083	22,490000	54,510000
3,401744	1155,028140	1253,772	0,410781	22,480000	54,550000
3,384755	1137,838789	1256,327	0,403527	22,480000	54,535000
3,367786	1120,642495	1258,886	0,396270	22,490000	54,535000
3,350750	1102,646670	1261,441	0,388676	22,480000	54,525000
3,333700	1086,516032	1263,995	0,381869	22,480000	54,550000
3,316760	1068,653269	1266,547	0,374331	22,480000	54,550000
3,299785	1052,537674	1269,103	0,367530	22,480000	54,565000
3,282749	1035,318239	1271,656	0,360263	22,480000	54,525000
3,265781	1017,189351	1274,213	0,352613	22,480000	54,525000
3,248774	1000,392245	1276,767	0,345524	22,480000	54,535000
3,231758	983,171653	1279,321	0,338257	22,490000	54,480000
3,214734	966,916053	1281,875	0,331397	22,480000	54,510000
3,197845	949,821581	1284,427	0,324184	22,500000	54,500000
3,180747	932,326764	1286,981	0,316801	22,480000	54,510000
3,170755	921,792848	1289,413	0,312355	22,480000	54,510000
3,187808	939,107163	1291,967	0,319662	22,480000	54,535000
3,204776	955,418302	1294,523	0,326545	22,490000	54,495000
3,221805	972,888820	1297,074	0,333918	22,490000	54,525000
3,238784	990,147595	1299,631	0,341201	22,490000	54,480000
3,255798	1007,195785	1302,190	0,348396	22,490000	54,480000
3,272781	1025,050448	1304,745	0,355930	22,480000	54,535000
3,289764	1041,941277	1307,297	0,363058	22,490000	54,535000
3,306676	1059,090131	1309,849	0,370295	22,490000	54,535000
3,323775	1075,253166	1312,405	0,377116	22,480000	54,525000
3,340707	1092,449459	1314,962	0,384373	22,480000	54,525000
3,357771	1109,465251	1317,517	0,391553	22,480000	54,510000
3,374722	1127,452977	1320,071	0,399144	22,490000	54,535000
3,391761	1144,555548	1322,626	0,406361	22,480000	54,510000
3,408716	1160,623704	1325,182	0,413142	22,490000	54,510000
3,425706	1178,047939	1327,735	0,420495	22,480000	54,525000
3,442709	1194,805706	1330,287	0,427567	22,480000	54,535000
3,459726	1212,652270	1332,845	0,435098	22,480000	54,535000
3,476653	1230,295190	1335,399	0,442543	22,480000	54,550000
3,493731	1246,010441	1337,953	0,449175	22,490000	54,535000
3,510739	1263,262274	1340,509	0,456456	22,490000	54,550000
3,527663	1281,297440	1343,060	0,464066	22,490000	54,535000
3,544715	1297,772882	1345,618	0,471019	22,490000	54,535000
3,561704	1315,055956	1348,175	0,478313	22,490000	54,525000
3,578665	1332,158527	1350,733	0,485530	22,480000	54,525000
3,595695	1349,158120	1353,289	0,492704	22,480000	54,525000
3,612718	1366,974600	1355,843	0,500222	22,480000	54,480000
3,629662	1383,182761	1358,397	0,507062	22,480000	54,480000
3,646674	1399,979867	1360,951	0,514150	22,490000	54,565000
3,663707	1417,262941	1363,505	0,521444	22,490000	54,510000
3,680725	1434,419894	1366,061	0,528684	22,490000	54,510000
3,697702	1451,671727	1368,617	0,535964	22,480000	54,495000
3,714706	1468,656278	1371,169	0,543132	22,480000	54,510000
3,731668	1485,829430	1373,724	0,550379	22,480000	54,495000
3,748715	1503,441110	1376,281	0,557811	22,500000	54,500000
3,765722	1520,668644	1378,833	0,565081	22,490000	54,525000
3,782660	1537,442610	1381,389	0,572160	22,490000	54,525000
3,799683	1553,847471	1383,942	0,579083	22,490000	54,535000
3,816737	1570,941943	1386,496	0,586296	22,490000	54,535000
3,833677	1588,788507	1389,051	0,593828	22,490000	54,495000
3,850653	1605,248908	1391,610	0,600774	22,480000	54,510000
3,867648	1622,625703	1394,163	0,608107	22,480000	54,510000
3,884662	1639,986300	1396,717	0,615433	22,490000	54,535000
3,901624	1657,026390	1399,273	0,622624	22,490000	54,510000
3,918749	1672,835364	1401,826	0,629295	22,490000	54,535000
3,935683	1690,345222	1404,379	0,636685	22,490000	54,535000
3,952660	1707,526474	1406,935	0,643935	22,480000	54,470000
3,969673	1724,950709	1409,487	0,651288	22,490000	54,535000
3,986662	1741,942202	1412,045	0,658458	22,480000	54,525000
4,003674	1757,869196	1414,601	0,665180	22,480000	54,525000
4,020673	1775,355913	1417,155	0,672559	22,490000	54,525000
4,024656	1779,949459	1419,707	0,674498	22,490000	54,565000
4,007620	1762,791349	1422,261	0,667257	22,480000	54,495000
3,990670	1746,763690	1424,814	0,660493	22,490000	54,535000
3,973599	1728,915969	1427,366	0,652961	22,490000	54,535000
3,956704	1712,496066	1429,920	0,646032	22,490000	54,535000
3,939653	1695,103071	1432,478	0,638692	22,480000	54,495000
3,922642	1678,094222	1435,035	0,631515	22,480000	54,550000
3,905687	1661,157111	1437,589	0,624367	22,480000	54,550000
3,888617	1643,192526	1440,142	0,616786	22,490000	54,525000
3,871688	1625,855071	1442,699	0,609470	22,480000	54,510000
3,854676	1609,425911	1445,251	0,602537	22,480000	54,510000
3,837612	1592,410119	1447,808	0,595356	22,470000	54,510000
3,820675	1575,354987	1450,361	0,588159	22,490000	54,510000
3,803707	1557,288581	1452,917	0,580535	22,490000	54,525000
3,786674	1540,381554	1455,473	0,573400	22,490000	54,525000
3,769662	1524,134053	1458,026	0,566543	22,490000	54,525000
3,752700	1506,992141	1460,582	0,559310	22,490000	54,510000
3,735719	1489,042598	1463,137	0,551735	22,480000	54,525000
3,718680	1472,896919	1465,692	0,544921	22,500000	54,540000
3,701670	1454,955476	1468,245	0,537350	22,480000	54,525000
3,684718	1438,079689	1470,801	0,530229	22,480000	54,510000
3,667774	1420,436769	1473,353	0,522783	22,480000	54,525000
3,650728	1403,679003	1475,906	0,515711	22,480000	54,525000
3,633729	1387,132979	1478,462	0,508729	22,480000	54,525000
3,616686	1369,247075	1481,016	0,501181	22,490000	54,535000
3,599725	1353,070155	1483,572	0,494354	22,480000	54,525000
3,582800	1335,559140	1486,128	0,486965	22,480000	54,525000
3,565726	1318,715751	1488,682	0,479857	22,480000	54,495000
3,548706	1301,378295	1491,237	0,472541	22,470000	54,495000
3,531732	1283,837196	1493,792	0,465138	22,470000	54,495000
3,514706	1266,867687	1496,345	0,457977	22,480000	54,535000
3,497721	1250,713909	1498,900	0,451160	22,490000	54,510000
3,480692	1233,445877	1501,457	0,443873	22,490000	54,510000
3,463738	1216,508766	1504,012	0,436726	22,490000	54,535000
3,446692	1199,178253	1506,567	0,429412	22,480000	54,535000
3,429759	1182,428586	1509,121	0,422344	22,490000	54,535000
3,412757	1164,079856	1511,674	0,414601	22,490000	54,510000
3,395788	1148,035999	1514,229	0,407830	22,490000	54,535000
3,378711	1130,565481	1516,785	0,400458	22,480000	54,495000
3,361786	1113,948876	1519,341	0,393445	22,490000	54,535000
3,344777	1097,002509	1521,896	0,386294	22,490000	54,565000
3,338757	1089,494316	1524,336	0,383125	22,490000	54,565000
3,355700	1106,142162	1526,892	0,390151	22,490000	54,535000
3,372766	1123,808223	1529,447	0,397606	22,480000	54,525000
3,389790	1140,127462	1532,002	0,404493	22,490000	54,495000
3,406800	1157,597980	1534,555	0,411865	22,480000	54,510000
3,423730	1175,061556	1537,111	0,419235	22,490000	54,535000
3,440693	1192,696377	1539,663	0,426677	22,480000	54,510000
3,457751	1210,168052	1542,219	0,434050	22,490000	54,535000
3,474756	1227,027640	1544,777	0,441165	22,490000	54,550000
3,491693	1244,348897	1547,331	0,448474	22,490000	54,550000
3,508728	1260,464492	1549,884	0,455275	22,480000	54,510000
3,525661	1277,582105	1552,436	0,462499	22,490000	54,525000
3,542698	1294,967001	1554,992	0,469835	22,500000	54,540000
3,559706	1311,833531	1557,548	0,476953	22,500000	54,540000
3,576646	1330,119779	1560,100	0,484669	22,480000	54,535000
3,593689	1346,806965	1562,657	0,491711	22,490000	54,565000
3,610666	1363,995159	1565,212	0,498965	22,480000	54,565000
3,627698	1380,125796	1567,767	0,505772	22,480000	54,525000
3,644684	1397,456309	1570,324	0,513085	22,480000	54,525000
3,661665	1414,205976	1572,876	0,520154	22,490000	54,525000
3,678682	1431,214825	1575,429	0,527332	22,480000	54,535000
3,695710	1449,389996	1577,985	0,535001	22,490000	54,550000
3,712674	1465,732376	1580,537	0,541898	22,480000	54,535000
3,729647	1483,031648	1583,092	0,549198	22,480000	54,565000
3,746721	1500,188602	1585,645	0,556438	22,490000	54,535000
3,763655	1516,828347	1588,200	0,563460	22,490000	54,535000
3,780671	1533,679836	1590,757	0,570572	22,480000	54,510000
3,797652	1550,994150	1593,309	0,577878	22,480000	54,525000
3,814660	1567,963659	1595,866	0,585040	22,480000	54,525000
3,831657	1585,826422	1598,423	0,592578	22,480000	54,550000
3,848642	1602,348147	1600,977	0,599550	22,490000	54,550000
3,865673	1619,992225	1603,531	0,606996	22,500000	54,540000
3,882635	1636,154102	1606,084	0,613816	22,500000	54,540000
3,899612	1653,530898	1608,637	0,621149	22,490000	54,535000
3,916641	1670,727192	1611,196	0,628406	22,490000	54,510000
3,933630	1688,378212	1613,751	0,635854	22,500000	54,515000
3,950641	1704,626870	1616,312	0,642711	22,490000	54,480000
3,967609	1721,823164	1618,866	0,649968	22,490000	54,525000
3,984592	1739,943952	1621,419	0,657615	22,480000	54,550000
4,001643	1755,902186	1623,973	0,664350	22,490000	54,525000
4,018662	1774,055372	1626,530	0,672010	22,490000	54,525000
4,035654	1790,154769	1629,087	0,678804	22,490000	54,535000
4,052629	1808,095055	1631,643	0,686375	22,480000	54,495000
4,069629	1825,010182	1634,196	0,693513	22,480000	54,495000
4,086635	1841,430086	1636,752	0,700442	22,490000	54,535000
4,103587	1858,767541	1639,306	0,707759	22,490000	54,535000
4,120639	1875,713909	1641,865	0,714910	22,490000	54,535000
4,137702	1892,557298	1644,422	0,722018	22,480000	54,525000
4,154626	1910,538081	1646,978	0,729606	22,490000	54,535000
4,171620	1926,495159	1649,531	0,736340	22,490000	54,535000
4,188579	1943,989975	1652,086	0,743723	22,490000	54,535000
4,205661	1960,081272	1654,642	0,750513	22,480000	54,525000
4,222591	1977,418728	1657,194	0,757830	22,480000	54,525000
4,239639	1994,161452	1659,749	0,764895	22,480000	54,525000
4,249531	2005,220675	1662,303	0,769562	22,490000	54,535000
4,232580	1988,823913	1664,861	0,762643	22,490000	54,525000
4,215587	1971,626463	1667,415	0,755385	22,490000	54,525000
4,198632	1953,583198	1669,967	0,747771	22,480000	54,510000
4,181607	1936,669228	1672,519	0,740633	22,490000	54,535000
4,164601	1920,029482	1675,074	0,733611	22,490000	54,510000
4,147680	1903,169894	1677,628	0,726497	22,480000	54,525000
4,130569	1885,417052	1680,183	0,719005	22,480000	54,525000
4,113640	1868,086539	1682,739	0,711691	22,480000	54,535000
4,096637	1851,047606	1685,293	0,704501	22,480000	54,510000
4,079592	1834,611504	1687,848	0,697565	22,480000	54,535000
4,062609	1816,693202	1690,406	0,690003	22,480000	54,535000
4,045677	1800,790507	1692,964	0,683292	22,490000	54,510000
4,028636	1783,554873	1695,520	0,676019	22,480000	54,535000
4,011679	1765,918894	1698,071	0,668577	22,490000	54,535000
3,994671	1749,279149	1700,623	0,661555	22,490000	54,535000
3,977683	1731,134062	1703,178	0,653897	22,500000	54,570000
3,960632	1714,533657	1705,733	0,646892	22,480000	54,525000
3,943673	1698,066314	1708,289	0,639943	22,480000	54,535000
3,926634	1681,057464	1710,846	0,632765	22,490000	54,565000
3,909665	1663,900511	1713,399	0,625525	22,480000	54,535000
3,892661	1646,084031	1715,953	0,618006	22,480000	54,535000
3,875695	1628,864596	1718,509	0,610740	22,490000	54,550000
3,858681	1612,443535	1721,065	0,603810	22,490000	54,535000
3,841641	1594,439610	1723,620	0,596212	22,490000	54,535000
3,824739	1577,776724	1726,177	0,589181	22,490000	54,550000
3,807648	1560,541090	1728,733	0,581907	22,480000	54,565000
3,790641	1543,484801	1731,291	0,574709	22,480000	54,565000
3,773709	1525,928660	1733,846	0,567301	22,480000	54,550000
3,756698	1508,739309	1736,399	0,560047	22,480000	54,550000
3,739678	1491,667978	1738,954	0,552843	22,490000	54,535000
3,722699	1476,070748	1741,510	0,546261	22,490000	54,535000
3,705702	1457,941860	1744,067	0,538610	22,480000	54,550000
3,688665	1441,481459	1746,622	0,531664	22,480000	54,525000
3,671667	1423,932261	1749,178	0,524258	22,490000	54,575000
3,654761	1406,602905	1751,732	0,516945	22,470000	54,525000
3,637653	1389,390412	1754,286	0,509682	22,490000	54,535000
3,620706	1373,385895	1756,837	0,502928	22,480000	54,550000
3,603692	1355,820498	1759,391	0,495515	22,480000	54,550000
3,586726	1338,028316	1761,948	0,488007	22,480000	54,550000
3,569738	1321,434853	1764,507	0,481004	22,490000	54,510000
3,552688	1304,254758	1767,064	0,473754	22,490000	54,510000
3,535715	1287,027223	1769,618	0,466484	22,490000	54,510000
3,518685	1269,775391	1772,171	0,459204	22,490000	54,535000
3,501717	1252,938944	1774,728	0,452099	22,480000	54,510000
3,484727	1235,900011	1777,286	0,444909	22,480000	54,510000
3,467808	1219,549532	1779,840	0,438009	22,490000	54,525000
3,450773	1202,353238	1782,392	0,430752	22,490000	54,550000
3,433681	1185,877795	1784,947	0,423799	22,500000	54,540000
3,416737	1167,262941	1787,502	0,415944	22,490000	54,550000
3,399742	1151,367187	1790,056	0,409236	22,480000	54,495000
3,382798	1134,343296	1792,612	0,402052	22,490000	54,525000
3,365720	1117,562389	1795,167	0,394970	22,480000	54,525000
3,348749	1100,545440	1797,721	0,387789	22,480000	54,525000
3,331795	1083,294765	1800,274	0,380509	22,480000	54,525000
3,314773	1065,964251	1802,825	0,373196	22,490000	54,535000
3,297765	1049,010941	1805,381	0,366042	22,490000	54,525000
3,280753	1031,007016	1807,935	0,358444	22,490000	54,525000
3,263771	1013,818822	1810,491	0,351190	22,500000	54,500000
3,246782	996,786832	1813,045	0,344003	22,480000	54,525000
3,229776	981,032240	1815,598	0,337354	22,480000	54,525000
3,212792	963,483042	1818,156	0,329949	22,480000	54,525000
3,195785	946,278649	1820,711	0,322688	22,480000	54,535000
3,178858	929,277899	1823,269	0,315514	22,490000	54,535000
3,161792	911,352655	1825,822	0,307950	22,490000	54,535000
3,144788	894,062639	1828,376	0,300653	22,470000	54,535000
3,127783	877,383553	1830,931	0,293615	22,490000	54,510000
3,110800	860,993733	1833,485	0,286698	22,470000	54,525000
3,093787	844,165386	1836,039	0,279597	22,490000	54,525000
3,076838	826,702968	1838,594	0,272228	22,490000	54,525000
3,059828	808,769624	1841,149	0,264660	22,480000	54,550000
3,042773	791,886895	1843,702	0,257535	22,480000	54,535000
3,025828	775,756257	1846,254	0,250728	22,480000	54,535000
3,008859	759,092213	1848,809	0,243696	22,490000	54,535000
2,991818	740,774724	1851,363	0,235966	22,480000	54,525000
2,974852	724,887070	1853,918	0,229261	22,480000	54,525000
2,957875	707,815740	1856,470	0,222057	22,480000	54,525000
2,940857	691,066073	1859,025	0,214989	22,480000	54,525000
2,923829	673,799198	1861,578	0,207702	22,480000	54,525000
2,906837	657,065731	1864,134	0,200641	22,490000	54,535000
2,889860	639,585956	1866,688	0,193264	22,490000	54,550000
2,872789	622,954310	1869,243	0,186246	22,490000	54,550000
2,855848	605,506933	1871,795	0,178883	22,480000	54,510000
2,838842	588,819748	1874,350	0,171841	22,480000	54,510000
2,821842	571,427910	1876,904	0,164501	22,480000	54,525000
2,804870	554,771966	1879,459	0,157473	22,480000	54,525000
2,787819	537,967917	1882,013	0,150381	22,480000	54,510000
2,770856	521,084031	1884,570	0,143256	22,480000	54,550000
2,753866	503,700293	1887,125	0,135920	22,480000	54,550000
2,736883	486,330439	1889,681	0,128590	22,490000	54,525000
2,719829	468,538257	1892,236	0,121082	22,480000	54,535000
2,702882	452,455060	1894,794	0,114295	22,500000	54,540000
2,685896	435,446210	1897,348	0,107117	22,500000	54,540000
2,668863	418,359838	1899,902	0,099907	22,500000	54,530000
2,651895	400,881220	1902,456	0,092531	22,500000	54,530000
2,634844	383,801790	1905,009	0,085323	22,490000	54,510000
2,617854	367,585530	1907,561	0,078480	22,480000	54,550000
2,600877	350,491058	1910,116	0,071266	22,480000	54,550000
2,583893	333,263524	1912,669	0,063996	22,490000	54,550000
2,566801	315,878629	1915,223	0,056660	22,480000	54,525000
2,549864	298,815397	1917,777	0,049459	22,480000	54,550000
2,532844	282,692860	1920,334	0,042655	22,480000	54,510000
2,515844	265,692110	1922,889	0,035481	22,490000	54,525000
2,498828	247,781907	1925,444	0,027923	22,490000	54,565000
2,481869	231,526307	1928,000	0,021063	22,490000	54,550000
2,464857	214,932844	1930,554	0,014061	22,490000	54,550000
2,447877	197,720351	1933,110	0,006797	22,480000	54,535000
2,430815	179,889986	1935,664	-0,000728	22,470000	54,535000
2,413819	162,904278	1938,221	-0,007896	22,480000	54,525000
2,396785	146,797939	1940,774	-0,014692	22,490000	54,510000
2,379837	128,692193	1943,326	-0,022333	22,490000	54,510000
2,362842	112,514116	1945,882	-0,029160	22,490000	54,550000
2,345878	95,976192	1948,434	-0,036139	22,480000	54,550000
2,328837	78,011608	1950,985	-0,043720	22,490000	54,550000
2,311947	61,802290	1953,539	-0,050561	22,480000	54,565000
2,294814	44,034406	1956,093	-0,058059	22,480000	54,535000
2,277837	27,621445	1958,645	-0,064985	22,480000	54,535000
2,260863	9,993567	1961,199	-0,072424	22,480000	54,575000
2,243853	-5,885987	1963,753	-0,079125	22,480000	54,525000
2,226876	-23,686269	1966,307	-0,086637	22,480000	54,525000
2,209857	-41,188028	1968,860	-0,094022	22,480000	54,510000
2,192880	-58,055715	1971,416	-0,101141	22,480000	54,535000
2,175850	-75,142088	1973,971	-0,108351	22,480000	54,535000
2,158838	-92,072256	1976,528	-0,115496	22,490000	54,565000
2,141865	-108,437778	1979,084	-0,122402	22,490000	54,535000
2,124853	-124,842639	1981,636	-0,129325	22,480000	54,525000
2,107875	-142,007692	1984,189	-0,136568	22,490000	54,535000
2,090827	-158,829097	1986,741	-0,143667	22,480000	54,535000
2,073858	-175,726868	1989,293	-0,150798	22,490000	54,525000
2,056829	-192,821340	1991,849	-0,158012	22,490000	54,550000
2,039855	-209,751509	1994,403	-0,165156	22,490000	54,550000
2,022899	-226,697877	1996,955	-0,172308	22,490000	54,525000
2,005864	-243,768050	1999,508	-0,179511	22,490000	54,550000
1,988833	-261,051124	2002,063	-0,186805	22,490000	54,565000
1,971826	-277,895670	2004,619	-0,193913	22,490000	54,525000
1,954828	-295,405528	2007,176	-0,201302	22,480000	54,525000
1,937839	-311,370705	2009,730	-0,208040	22,490000	54,525000
1,920876	-328,967343	2012,284	-0,215465	22,490000	54,525000
1,903822	-346,398521	2014,836	-0,222821	22,480000	54,550000
1,886856	-363,023225	2017,387	-0,229837	22,490000	54,525000
1,869877	-379,639829	2019,943	-0,236849	22,490000	54,525000
1,852876	-395,826005	2022,495	-0,243680	22,480000	54,525000
1,835892	-413,116021	2025,050	-0,250976	22,490000	54,550000
1,818837	-430,320414	2027,608	-0,258236	22,490000	54,550000
1,801837	-447,782833	2030,164	-0,265605	22,480000	54,550000
1,784891	-463,466843	2032,718	-0,272224	22,500000	54,570000
1,767816	-481,674411	2035,274	-0,279908	22,490000	54,525000
1,750899	-497,420903	2037,825	-0,286553	22,490000	54,550000
1,733842	-515,103164	2040,379	-0,294015	22,490000	54,550000
1,716841	-532,182594	2042,936	-0,301222	22,480000	54,550000
1,699872	-549,025983	2045,487	-0,308330	22,480000	54,550000
1,682880	-566,192193	2048,043	-0,315574	22,480000	54,535000
1,665877	-582,016208	2050,597	-0,322252	22,480000	54,535000
1,648904	-599,573506	2053,152	-0,329661	22,490000	54,525000
1,631884	-617,209484	2055,707	-0,337104	22,490000	54,550000
1,614878	-634,412720	2058,262	-0,344363	22,480000	54,525000
1,597910	-650,613938	2060,815	-0,351200	22,480000	54,535000
1,580873	-666,854497	2063,369	-0,358054	22,490000	54,525000
1,563872	-684,278732	2065,921	-0,365407	22,480000	54,510000
1,546949	-700,621112	2068,472	-0,372303	22,480000	54,510000
1,529862	-718,475776	2071,027	-0,379838	22,480000	54,525000
1,512874	-734,582115	2073,578	-0,386635	22,480000	54,550000
1,495903	-752,163711	2076,131	-0,394054	22,480000	54,550000
1,478841	-768,348730	2078,686	-0,400884	22,490000	54,525000
1,461890	-784,871612	2081,239	-0,407857	22,490000	54,550000
1,444932	-801,848064	2083,789	-0,415021	22,480000	54,525000
1,427897	-819,554623	2086,344	-0,422493	22,490000	54,535000
1,410905	-836,547273	2088,897	-0,429664	22,480000	54,535000
1,393939	-853,837289	2091,453	-0,436960	22,480000	54,535000
1,376958	-870,603155	2094,007	-0,444036	22,480000	54,535000
1,359859	-886,294107	2096,561	-0,450657	22,480000	54,565000
1,342901	-903,906944	2099,115	-0,458090	22,490000	54,565000
1,325900	-921,212002	2101,669	-0,465393	22,490000	54,565000
1,308865	-936,864772	2104,225	-0,471998	22,480000	54,535000
1,291921	-954,336447	2106,781	-0,479371	22,480000	54,535000
1,274958	-970,490225	2109,336	-0,486188	22,480000	54,575000
1,257830	-987,725859	2111,891	-0,493461	22,480000	54,525000
1,251943	-993,212659	2112,792	-0,495777	22,480000	54,525000