File: Nanoindentation Datenauswertung/data/Saphir/PM-Sa-150ms, 3um, 7nms ,3cycles-2
Quasi static measurement routine
Tip parameters (shape,radius, material...)
08.09.2022

Piezo position[nm]	MEMS displ.[nm]	Time[ms]	Cap [pf]	Temp [°C]	Rh [%]
eoh
1,288085	-0,085623	0,170	-0,076638	22,490000	54,385000
1,298167	0,031241	1,673	-0,076588	22,490000	54,385000
1,308128	-0,124963	3,177	-0,076654	22,490000	54,385000
1,318077	-0,015042	4,680	-0,076608	22,500000	54,420000
1,328144	0,031241	6,183	-0,076588	22,480000	54,415000
1,338142	-0,133062	7,684	-0,076658	22,480000	54,415000
1,348152	-0,108764	9,186	-0,076647	22,500000	54,435000
1,358102	-0,258025	10,688	-0,076710	22,500000	54,435000
1,368107	0,063639	12,192	-0,076575	22,490000	54,430000
1,378150	-0,116864	13,694	-0,076651	22,490000	54,430000
1,388112	-0,039340	15,196	-0,076618	22,490000	54,360000
1,398111	-0,031241	16,701	-0,076615	22,490000	54,375000
1,408124	-0,101822	18,205	-0,076645	22,480000	54,385000
1,418097	-0,054382	19,707	-0,076625	22,480000	54,385000
1,428048	-0,101822	21,209	-0,076645	22,480000	54,385000
1,438114	-0,031241	22,713	-0,076615	22,490000	54,385000
1,448153	-0,046283	24,215	-0,076621	22,490000	54,385000
1,458129	-0,031241	25,718	-0,076615	22,490000	54,385000
1,468118	0,141162	27,224	-0,076542	22,490000	54,400000
1,478137	-0,031241	28,726	-0,076615	22,480000	54,360000
1,488056	0,031241	30,228	-0,076588	22,480000	54,360000
1,498092	-0,234884	31,733	-0,076701	22,480000	54,360000
1,508085	-0,069424	33,237	-0,076631	22,480000	54,400000
1,518110	-0,218685	34,739	-0,076694	22,480000	54,400000
1,528088	-0,039340	36,243	-0,076618	22,490000	54,385000
1,538123	-0,031241	37,750	-0,076615	22,490000	54,385000
1,548060	-0,172403	39,253	-0,076674	22,490000	54,385000
1,558164	-0,187444	40,754	-0,076681	22,490000	54,415000
1,568162	-0,195544	42,256	-0,076684	22,490000	54,415000
1,578138	-0,077523	43,760	-0,076634	22,490000	54,415000
1,588164	-0,093722	45,262	-0,076641	22,500000	54,420000
1,598099	-0,195544	46,765	-0,076684	22,500000	54,420000
1,608120	-0,226785	48,267	-0,076697	22,480000	54,360000
1,618143	-0,093722	49,772	-0,076641	22,480000	54,360000
1,628070	-0,297366	51,277	-0,076727	22,490000	54,455000
1,638119	-0,218685	52,779	-0,076694	22,500000	54,420000
1,648115	-0,251083	54,282	-0,076708	22,490000	54,400000
1,658138	-0,242984	55,783	-0,076704	22,490000	54,400000
1,668141	-0,376046	57,283	-0,076760	22,480000	54,400000
1,678161	-0,069424	58,786	-0,076631	22,480000	54,400000
1,688183	-0,172403	60,290	-0,076674	22,490000	54,400000
1,698137	-0,124963	61,793	-0,076654	22,490000	54,400000
1,708077	-0,336706	63,297	-0,076744	22,480000	54,415000
1,718081	-0,328606	64,799	-0,076740	22,480000	54,415000
1,728079	-0,251083	66,302	-0,076708	22,480000	54,400000
1,738091	-0,336706	67,806	-0,076744	22,480000	54,400000
1,748090	-0,367947	69,306	-0,076757	22,490000	54,415000
1,758125	-0,367947	70,812	-0,076757	22,500000	54,420000
1,768133	-0,344805	72,315	-0,076747	22,490000	54,430000
1,778144	-0,133062	73,816	-0,076658	22,490000	54,430000
1,788092	-0,297366	75,318	-0,076727	22,490000	54,430000
1,798047	-0,328606	76,823	-0,076740	22,490000	54,430000
1,808121	-0,399187	78,326	-0,076770	22,480000	54,375000
1,818102	-0,242984	79,830	-0,076704	22,480000	54,375000
1,828105	-0,344805	81,332	-0,076747	22,500000	54,405000
1,838092	-0,391088	82,836	-0,076767	22,500000	54,405000
1,848122	-0,517208	84,338	-0,076820	22,500000	54,420000
1,858087	-0,312407	85,840	-0,076733	22,500000	54,420000
1,868098	-0,351748	87,342	-0,076750	22,500000	54,420000
1,878102	-0,484810	88,844	-0,076806	22,500000	54,405000
1,888062	-0,164303	90,347	-0,076671	22,500000	54,405000
1,898098	-0,251083	91,850	-0,076708	22,500000	54,405000
1,908076	-0,305465	93,353	-0,076730	22,490000	54,430000
1,918113	-0,509108	94,856	-0,076816	22,490000	54,385000
1,928082	-0,407287	96,359	-0,076773	22,490000	54,430000
1,938092	-0,658370	97,864	-0,076879	22,490000	54,430000
1,948119	-0,556548	99,366	-0,076836	22,480000	54,415000
1,958067	-0,634071	100,870	-0,076869	22,480000	54,415000
1,968028	-0,634071	102,373	-0,076869	22,480000	54,375000
1,978034	-0,587789	103,874	-0,076850	22,480000	54,375000
1,988036	-0,454726	105,375	-0,076793	22,490000	54,400000
1,998071	-0,594731	106,879	-0,076853	22,480000	54,415000
2,008094	-0,602831	108,379	-0,076856	22,480000	54,400000
2,018095	-0,454726	109,884	-0,076793	22,480000	54,400000
2,028010	-0,556548	111,387	-0,076836	22,490000	54,385000
2,038117	-0,634071	112,889	-0,076869	22,490000	54,385000
2,048062	-0,681511	114,391	-0,076889	22,490000	54,400000
2,058060	-0,893254	115,894	-0,076979	22,490000	54,400000
2,068110	-0,838872	117,401	-0,076956	22,490000	54,430000
2,078083	-0,838872	118,903	-0,076956	22,480000	54,385000
2,088090	-0,484810	120,403	-0,076806	22,490000	54,430000
2,098078	-0,689610	121,905	-0,076893	22,490000	54,430000
2,108093	-1,151279	123,408	-0,077087	22,490000	54,430000
2,118046	-1,167478	124,912	-0,077094	22,490000	54,430000
2,128080	-1,018217	126,414	-0,077031	22,480000	54,385000
2,138117	-1,221860	127,918	-0,077117	22,480000	54,385000
2,148079	-1,221860	129,419	-0,077117	22,500000	54,405000
2,158060	-1,379221	130,921	-0,077184	22,490000	54,440000
2,168072	-1,472943	132,423	-0,077223	22,490000	54,440000
2,178073	-1,676587	133,926	-0,077309	22,490000	54,440000
2,188123	-2,068831	135,427	-0,077475	22,480000	54,430000
2,198000	-1,990151	136,929	-0,077441	22,490000	54,430000
2,208119	-2,359255	138,431	-0,077597	22,500000	54,390000
2,218023	-2,750342	139,934	-0,077762	22,500000	54,390000
2,228081	-3,298791	141,436	-0,077994	22,500000	54,405000
2,238104	-4,271882	142,940	-0,078404	22,480000	54,400000
2,248059	-5,595564	144,443	-0,078963	22,490000	54,385000
2,258038	-8,856172	145,945	-0,080339	22,490000	54,385000
2,268034	-15,534749	147,449	-0,083157	22,490000	54,400000
2,278109	-5,383821	148,951	-0,078874	22,500000	54,390000
2,288052	4,186260	150,455	-0,074835	22,470000	54,400000
2,298095	14,892578	151,959	-0,070317	22,470000	54,400000
2,308050	23,600646	153,463	-0,066642	22,480000	54,400000
2,318092	34,487467	154,966	-0,062048	22,480000	54,400000
2,328092	43,665303	156,469	-0,058175	22,490000	54,430000
2,338070	53,299023	157,973	-0,054109	22,490000	54,430000
2,348073	63,997242	159,479	-0,049595	22,490000	54,415000
2,358108	73,795264	160,982	-0,045460	22,490000	54,415000
2,368040	83,702051	162,487	-0,041279	22,480000	54,375000
2,378085	93,710660	163,989	-0,037056	22,490000	54,415000
2,388050	103,774807	165,492	-0,032809	22,490000	54,415000
2,398065	113,549689	166,998	-0,028684	22,490000	54,415000
2,408062	124,193526	168,502	-0,024192	22,490000	54,385000
2,418076	133,699969	170,004	-0,020180	22,490000	54,430000
2,428059	143,780315	171,508	-0,015926	22,490000	54,430000
2,438100	153,562139	173,012	-0,011798	22,490000	54,430000
2,448088	163,971092	174,517	-0,007406	22,500000	54,420000
2,458161	174,035240	176,019	-0,003159	22,500000	54,420000
2,468076	183,981367	177,523	0,001039	22,500000	54,420000
2,478075	194,570822	179,028	0,005507	22,490000	54,415000
2,488068	203,584355	180,532	0,009311	22,490000	54,415000
2,498097	214,243233	182,035	0,013809	22,490000	54,415000
2,508052	225,123112	183,540	0,018400	22,490000	54,415000
2,518088	234,896836	185,041	0,022525	22,480000	54,415000
2,528051	244,356996	186,547	0,026517	22,490000	54,375000
2,538056	253,903936	188,049	0,030546	22,490000	54,375000
2,548047	263,685760	189,552	0,034674	22,490000	54,375000
2,558049	274,070414	191,056	0,039056	22,490000	54,440000
2,568093	284,534906	192,558	0,043472	22,480000	54,430000
2,578030	294,167469	194,062	0,047537	22,480000	54,415000
2,588040	303,918052	195,566	0,051652	22,480000	54,415000
2,598031	313,731117	197,068	0,055793	22,490000	54,430000
2,608015	323,770966	198,569	0,060030	22,490000	54,430000
2,618086	334,854488	200,072	0,064707	22,490000	54,430000
2,628127	343,539414	201,575	0,068372	22,490000	54,430000
2,638117	353,915969	203,078	0,072751	22,490000	54,430000
2,648048	363,948876	204,579	0,076985	22,490000	54,415000
2,658038	374,060464	206,085	0,081252	22,490000	54,415000
2,668088	383,849230	207,587	0,085383	22,490000	54,415000
2,678084	393,772216	209,091	0,089570	22,480000	54,430000
2,688051	403,358496	210,598	0,093616	22,480000	54,400000
2,698091	413,563805	212,100	0,097922	22,490000	54,385000
2,708043	423,705476	213,605	0,102202	22,490000	54,385000
2,718088	434,232450	215,107	0,106645	22,490000	54,385000
2,728084	444,014274	216,608	0,110772	22,490000	54,430000
2,738073	453,874778	218,111	0,114934	22,490000	54,400000
2,748030	463,734125	219,613	0,119094	22,490000	54,400000
2,758062	473,829513	221,115	0,123354	22,490000	54,400000
2,768040	483,798782	222,617	0,127562	22,480000	54,415000
2,778050	494,780482	224,117	0,132196	22,490000	54,385000
2,788074	504,045098	225,619	0,136105	22,490000	54,385000
2,798055	514,078005	227,121	0,140339	22,480000	54,385000
2,808108	523,741808	228,625	0,144417	22,480000	54,385000
2,818083	534,871612	230,130	0,149114	22,490000	54,385000
2,828068	544,323673	231,634	0,153103	22,490000	54,385000
2,838096	554,796264	233,137	0,157522	22,490000	54,385000
2,848053	563,880378	234,639	0,161356	22,490000	54,385000
2,858084	573,677244	236,140	0,165490	22,510000	54,390000
2,868082	583,780732	237,642	0,169754	22,510000	54,390000
2,878038	593,891162	239,147	0,174021	22,480000	54,385000
2,888094	603,806048	240,649	0,178205	22,490000	54,400000
2,898068	613,932677	242,153	0,182478	22,490000	54,430000
2,908053	623,770040	243,655	0,186629	22,490000	54,430000
2,918113	633,630545	245,156	0,190791	22,490000	54,430000
2,928058	643,717834	246,658	0,195047	22,480000	54,375000
2,938056	654,416053	248,162	0,199562	22,480000	54,375000
2,948041	663,954893	249,666	0,203587	22,480000	54,375000
2,955131	671,840288	251,169	0,206915	22,490000	54,385000
2,949052	665,499574	252,669	0,204239	22,490000	54,415000
2,939057	656,704726	254,173	0,200528	22,490000	54,415000
2,929117	645,356237	255,676	0,195739	22,490000	54,415000
2,919054	635,761858	257,178	0,191690	22,500000	54,390000
2,909020	625,830772	258,681	0,187499	22,490000	54,415000
2,899061	615,751583	260,184	0,183246	22,500000	54,420000
2,889021	605,570572	261,687	0,178949	22,500000	54,420000
2,879055	595,718167	263,191	0,174792	22,490000	54,385000
2,869041	584,783907	264,693	0,170177	22,500000	54,405000
2,859073	575,197627	266,193	0,166132	22,500000	54,405000
2,848993	564,788674	267,695	0,161739	22,500000	54,405000
2,839028	555,148012	269,199	0,157671	22,490000	54,385000
2,829055	544,065647	270,703	0,152994	22,480000	54,385000
2,819049	534,057039	272,205	0,148771	22,490000	54,430000
2,809051	524,815564	273,705	0,144871	22,490000	54,430000
2,799084	514,743317	275,209	0,140620	22,490000	54,430000
2,789100	504,460484	276,711	0,136281	22,480000	54,430000
2,779084	493,401261	278,213	0,131614	22,480000	54,400000
2,769075	483,611337	279,717	0,127482	22,480000	54,400000
2,759100	474,299282	281,218	0,123553	22,480000	54,400000
2,749097	463,584864	282,721	0,119031	22,490000	54,415000
2,739075	453,991641	284,226	0,114983	22,490000	54,375000
2,729117	444,350979	285,729	0,110915	22,490000	54,375000
2,719120	433,134395	287,231	0,106181	22,490000	54,415000
2,709047	423,275048	288,734	0,102021	22,490000	54,415000
2,699033	413,359005	290,238	0,097836	22,470000	54,385000
2,689040	403,844463	291,738	0,093821	22,470000	54,385000
2,679059	393,497991	293,242	0,089455	22,470000	54,385000
2,669058	382,446868	294,748	0,084791	22,480000	54,415000
2,659043	372,515782	296,251	0,080600	22,480000	54,415000
2,649094	363,423569	297,754	0,076763	22,480000	54,415000
2,639033	352,866512	299,254	0,072308	22,480000	54,385000
2,629109	342,958568	300,756	0,068127	22,480000	54,440000
2,619088	332,056705	302,260	0,063526	22,490000	54,400000
2,609070	322,117521	303,763	0,059332	22,490000	54,400000
2,599055	312,022132	305,264	0,055072	22,490000	54,400000
2,589117	302,499491	306,765	0,051053	22,490000	54,385000
2,579122	292,294181	308,267	0,046747	22,490000	54,385000
2,569086	282,300615	309,771	0,042529	22,490000	54,385000
2,559135	272,354488	311,273	0,038332	22,480000	54,415000
2,549082	261,349646	312,777	0,033688	22,480000	54,415000
2,539043	251,968167	314,280	0,029729	22,490000	54,375000
2,546116	257,728034	315,664	0,032160	22,490000	54,375000
2,556116	267,401094	317,167	0,036242	22,490000	54,415000
2,566162	277,700126	318,670	0,040588	22,500000	54,420000
2,576115	288,790590	320,173	0,045268	22,500000	54,390000
2,586032	298,383812	321,676	0,049316	22,500000	54,390000
2,596064	308,056872	323,179	0,053398	22,480000	54,385000
2,606087	318,911295	324,683	0,057979	22,480000	54,385000
2,616096	328,027807	326,185	0,061826	22,480000	54,415000
2,626082	338,098897	327,686	0,066076	22,480000	54,415000
2,636090	349,128036	329,190	0,070730	22,490000	54,385000
2,646068	358,148512	330,691	0,074537	22,480000	54,430000
2,656128	368,345722	332,196	0,078840	22,480000	54,430000
2,666056	378,299948	333,698	0,083041	22,480000	54,430000
2,676095	389,359171	335,198	0,087708	22,500000	54,405000
2,686136	399,047273	336,699	0,091796	22,480000	54,385000
2,696055	408,719176	338,202	0,095878	22,480000	54,385000
2,706070	419,363013	339,703	0,100370	22,480000	54,385000
2,716029	429,364679	341,208	0,104590	22,500000	54,445000
2,726061	439,773632	342,713	0,108983	22,500000	54,475000
2,736070	448,764024	344,225	0,112777	22,490000	54,360000
2,746085	458,953134	345,728	0,117077	22,490000	54,360000
2,756064	468,899261	347,233	0,121274	22,500000	54,390000
2,766064	478,915969	348,734	0,125501	22,480000	54,440000
2,776082	488,948876	350,237	0,129735	22,480000	54,440000
2,786085	499,193526	351,739	0,134058	22,480000	54,440000
2,796074	510,252749	353,241	0,138725	22,480000	54,400000
2,806018	519,320664	354,744	0,142552	22,490000	54,375000
2,816059	529,369770	356,245	0,146792	22,490000	54,375000
2,826063	539,966167	357,748	0,151264	22,490000	54,375000
2,836063	550,117095	359,251	0,155548	22,490000	54,360000
2,846085	559,569155	360,754	0,159537	22,490000	54,360000
2,856124	570,322914	362,255	0,164075	22,490000	54,385000
2,866099	579,203384	363,758	0,167822	22,490000	54,385000
2,876050	590,561130	365,261	0,172615	22,480000	54,385000
2,886061	600,341797	366,763	0,176743	22,480000	54,385000
2,896104	610,162961	368,266	0,180887	22,490000	54,430000
2,906003	620,548773	369,769	0,185270	22,490000	54,430000
2,916076	630,166293	371,273	0,189329	22,490000	54,430000
2,926037	640,841371	372,774	0,193833	22,480000	54,400000
2,936006	651,179743	374,276	0,198196	22,480000	54,385000
2,946002	660,616762	375,778	0,202179	22,480000	54,385000
2,956029	670,303706	377,279	0,206267	22,480000	54,385000
2,966032	680,658277	378,780	0,210636	22,490000	54,375000
2,976084	690,533823	380,282	0,214804	22,490000	54,415000
2,986042	701,632387	381,787	0,219487	22,490000	54,415000
2,996041	710,269874	383,291	0,223132	22,490000	54,415000
3,006034	720,733209	384,792	0,227548	22,490000	54,430000
3,016057	731,580689	386,296	0,232125	22,490000	54,400000
3,026051	740,861504	387,799	0,236042	22,490000	54,400000
3,036036	750,603988	389,302	0,240153	22,490000	54,360000
3,046068	761,052281	390,803	0,244563	22,490000	54,400000
3,055991	770,927827	392,307	0,248730	22,490000	54,415000
3,066042	780,757090	393,808	0,252878	22,490000	54,415000
3,076009	790,578255	395,311	0,257022	22,490000	54,375000
3,086013	801,496316	396,815	0,261630	22,490000	54,375000
3,096057	811,473684	398,317	0,265840	22,480000	54,400000
3,106037	821,436010	399,820	0,270044	22,480000	54,400000
3,116045	830,935510	401,323	0,274053	22,490000	54,400000
3,126107	840,607413	402,823	0,278135	22,490000	54,415000
3,136065	851,415553	404,327	0,282696	22,490000	54,440000
3,146013	860,013700	405,829	0,286324	22,490000	54,440000
3,156024	871,575089	407,333	0,291203	22,480000	54,430000
3,166015	880,769124	408,835	0,295083	22,480000	54,430000
3,176025	891,240558	410,336	0,299502	22,480000	54,415000
3,186014	901,516449	411,839	0,303838	22,480000	54,415000
3,195963	910,561223	413,341	0,307655	22,500000	54,435000
3,205981	921,299939	414,845	0,312187	22,490000	54,400000
3,216026	931,480950	416,347	0,316483	22,490000	54,400000
3,226027	941,489559	417,849	0,320707	22,490000	54,400000
3,235975	950,401270	419,353	0,324468	22,490000	54,440000
3,245993	961,414211	420,856	0,329115	22,490000	54,400000
3,256007	971,517698	422,358	0,333379	22,480000	54,415000
3,266012	980,107746	423,860	0,337004	22,480000	54,415000
3,276003	990,344296	425,363	0,341324	22,490000	54,415000
3,285982	1001,638403	426,867	0,346090	22,490000	54,415000
3,296013	1011,545190	428,368	0,350271	22,500000	54,405000
3,305993	1020,614262	429,868	0,354098	22,500000	54,405000
3,316036	1031,729025	431,372	0,358788	22,500000	54,390000
3,325976	1041,816314	432,874	0,363045	22,500000	54,390000
3,335956	1050,398262	434,374	0,366667	22,490000	54,400000
3,345950	1060,815314	435,879	0,371063	22,490000	54,400000
3,355976	1070,299772	437,384	0,375065	22,480000	54,400000
3,365991	1080,065397	438,885	0,379186	22,500000	54,390000
3,375966	1089,925902	440,386	0,383347	22,500000	54,390000
3,386049	1100,200635	441,889	0,387683	22,500000	54,390000
3,396026	1111,323497	443,392	0,392377	22,490000	54,385000
3,405976	1120,289590	444,895	0,396161	22,490000	54,385000
3,415993	1131,498075	446,399	0,400891	22,480000	54,400000
3,425943	1141,437259	447,902	0,405085	22,480000	54,400000
3,435891	1151,429669	449,403	0,409302	22,490000	54,385000
3,445997	1160,232616	450,904	0,413017	22,490000	54,385000
3,455974	1171,040756	452,406	0,417578	22,490000	54,415000
3,465900	1180,532157	453,908	0,421583	22,490000	54,415000
3,475872	1190,070997	455,411	0,425608	22,500000	54,390000
3,485945	1201,233199	456,912	0,430319	22,480000	54,400000
3,495943	1209,987550	458,414	0,434013	22,480000	54,400000
3,505923	1221,447118	459,916	0,438849	22,480000	54,400000
3,515926	1231,447627	461,418	0,443069	22,480000	54,400000
3,525933	1240,219333	462,921	0,446771	22,500000	54,420000
3,535909	1250,141162	464,425	0,450958	22,490000	54,400000
3,545917	1261,185343	465,928	0,455619	22,490000	54,400000
3,555959	1270,254415	467,429	0,459446	22,500000	54,390000
3,565911	1280,309307	468,933	0,463689	22,490000	54,400000
3,575921	1290,930002	470,436	0,468171	22,490000	54,430000
3,585926	1300,304539	471,936	0,472127	22,490000	54,430000
3,595948	1310,258766	473,442	0,476328	22,490000	54,430000
3,605968	1320,605237	474,945	0,480694	22,490000	54,415000
3,615927	1331,272216	476,449	0,485195	22,490000	54,415000
3,621913	1337,253082	477,951	0,487719	22,490000	54,415000
3,614944	1330,966751	479,455	0,485066	22,500000	54,405000
3,604942	1319,922569	480,957	0,480406	22,490000	54,415000
3,594956	1310,909036	482,457	0,476602	22,490000	54,400000
3,584985	1300,829847	483,959	0,472349	22,490000	54,400000
3,574923	1289,816906	485,461	0,467701	22,500000	54,420000
3,564976	1279,926318	486,963	0,463527	22,500000	54,420000
3,554958	1270,449959	488,466	0,459528	22,490000	54,400000
3,544928	1260,699376	489,967	0,455414	22,490000	54,400000
3,534965	1250,431585	491,470	0,451081	22,490000	54,385000
3,524926	1239,497325	492,972	0,446466	22,490000	54,385000
3,514956	1230,288248	494,473	0,442580	22,490000	54,400000
3,504964	1219,534490	495,974	0,438042	22,490000	54,400000
3,494963	1210,284916	497,476	0,434139	22,480000	54,385000
3,484995	1199,892162	498,980	0,429753	22,480000	54,385000
3,474941	1188,824839	500,483	0,425083	22,490000	54,400000
3,464961	1178,824330	501,985	0,420862	22,490000	54,400000
3,454935	1168,619020	503,489	0,416556	22,490000	54,385000
3,445039	1159,667969	504,996	0,412778	22,490000	54,400000
3,435012	1148,608746	506,498	0,408111	22,500000	54,420000
3,424993	1139,595213	508,002	0,404308	22,500000	54,420000
3,414979	1128,723434	509,505	0,399720	22,500000	54,420000
3,404961	1118,980950	511,006	0,395608	22,480000	54,440000
3,394982	1108,509516	512,508	0,391189	22,480000	54,440000
3,384980	1099,041256	514,009	0,387194	22,480000	54,440000
3,375008	1088,773465	515,512	0,382861	22,490000	54,415000
3,364969	1078,897919	517,015	0,378693	22,490000	54,415000
3,354965	1068,119863	518,517	0,374145	22,490000	54,440000
3,345006	1058,628462	520,019	0,370140	22,490000	54,440000
3,334969	1048,526131	521,521	0,365876	22,490000	54,430000
3,324954	1038,775548	523,024	0,361762	22,500000	54,405000
3,314989	1027,919968	524,525	0,357181	22,500000	54,405000
3,304974	1018,537332	526,026	0,353221	22,500000	54,405000
3,295007	1008,606246	527,528	0,349030	22,480000	54,385000
3,285023	998,433335	529,033	0,344737	22,500000	54,435000
3,274968	988,180585	530,535	0,340411	22,500000	54,435000
3,264999	977,835271	532,036	0,336045	22,500000	54,405000
3,254972	968,201551	533,537	0,331979	22,500000	54,405000
3,245060	957,127286	535,043	0,327306	22,480000	54,400000
3,235073	947,321164	536,545	0,323168	22,490000	54,400000
3,225059	937,453717	538,048	0,319004	22,490000	54,400000
3,215053	927,499491	539,550	0,314803	22,490000	54,400000
3,205047	917,905111	541,053	0,310754	22,480000	54,415000
3,195060	907,214992	542,555	0,306243	22,480000	54,415000
3,185052	896,241391	544,056	0,301612	22,490000	54,430000
3,175035	886,444526	545,559	0,297478	22,490000	54,430000
3,165040	877,273632	547,060	0,293608	22,490000	54,385000
3,155030	867,288165	548,563	0,289394	22,490000	54,400000
3,145077	856,667469	550,067	0,284912	22,490000	54,400000
3,135081	846,219176	551,572	0,280503	22,490000	54,400000
3,125036	836,422310	553,075	0,276369	22,490000	54,400000
3,115035	825,974017	554,579	0,271959	22,500000	54,420000
3,105097	816,560140	556,084	0,267987	22,500000	54,420000
3,095041	806,598971	557,589	0,263783	22,500000	54,420000
3,085064	795,907694	559,093	0,259271	22,480000	54,400000
3,075044	786,933501	560,596	0,255484	22,500000	54,405000
3,065096	775,873121	562,100	0,250817	22,490000	54,375000
3,055065	766,342380	563,603	0,246795	22,490000	54,375000
3,045063	755,416219	565,106	0,242184	22,490000	54,415000
3,040091	749,648252	566,490	0,239750	22,480000	54,415000
3,050064	759,766782	567,993	0,244020	22,480000	54,415000
3,060038	769,775391	569,495	0,248244	22,500000	54,405000
3,070076	780,254924	570,996	0,252666	22,500000	54,405000
3,080000	790,875620	572,499	0,257148	22,490000	54,415000
3,090014	800,570664	574,003	0,261239	22,490000	54,415000
3,100022	811,215658	575,507	0,265731	22,480000	54,385000
3,110079	821,247408	577,010	0,269965	22,480000	54,385000
3,120016	831,232875	578,511	0,274179	22,480000	54,385000
3,130006	841,155861	580,016	0,278366	22,480000	54,385000
3,140012	850,318656	581,518	0,282233	22,480000	54,415000
3,150034	860,719509	583,023	0,286622	22,490000	54,400000
3,159984	870,603155	584,523	0,290793	22,490000	54,400000
3,169982	881,992141	586,026	0,295599	22,490000	54,400000
3,180001	891,672143	587,529	0,299684	22,490000	54,415000
3,190048	901,923736	589,033	0,304010	22,490000	54,415000
3,200081	911,964742	590,538	0,308248	22,490000	54,400000
3,210021	921,306881	592,039	0,312190	22,490000	54,415000
3,219982	931,927577	593,541	0,316672	22,490000	54,415000
3,230061	942,226609	595,046	0,321018	22,490000	54,400000
3,239992	952,573080	596,548	0,325384	22,490000	54,400000
3,250007	962,762191	598,051	0,329684	22,500000	54,435000
3,260016	972,936260	599,553	0,333978	22,500000	54,435000
3,269977	983,195951	601,056	0,338307	22,500000	54,435000
3,280008	992,954634	602,558	0,342425	22,500000	54,435000
3,289959	1003,253666	604,060	0,346771	22,490000	54,400000
3,300023	1012,180419	605,563	0,350539	22,490000	54,400000
3,310018	1022,182085	607,065	0,354759	22,490000	54,415000
3,320003	1033,218167	608,567	0,359417	22,480000	54,440000
3,330041	1042,419144	610,069	0,363299	22,480000	54,415000
3,340014	1052,804956	611,575	0,367682	22,480000	54,415000
3,349955	1063,095888	613,076	0,372025	22,480000	54,415000
3,359969	1073,050115	614,578	0,376226	22,490000	54,430000
3,369989	1082,808797	616,078	0,380344	22,490000	54,430000
3,379978	1093,539414	617,581	0,384872	22,490000	54,430000
3,390021	1102,669811	619,084	0,388725	22,480000	54,430000
3,399973	1113,651511	620,585	0,393359	22,490000	54,375000
3,409946	1122,774965	622,086	0,397209	22,490000	54,430000
3,420010	1133,512524	623,588	0,401741	22,490000	54,430000
3,429941	1143,090705	625,091	0,405783	22,490000	54,430000
3,439969	1153,358496	626,593	0,410116	22,490000	54,385000
3,449983	1162,567573	628,098	0,414002	22,490000	54,385000
3,459921	1173,940360	629,600	0,418801	22,490000	54,385000
3,469999	1183,283657	631,104	0,422744	22,480000	54,400000
3,479970	1192,517032	632,604	0,426641	22,490000	54,430000
3,489911	1202,839205	634,108	0,430997	22,490000	54,430000
3,500008	1213,875287	635,610	0,435654	22,490000	54,430000
3,509982	1223,006841	637,112	0,439507	22,480000	54,385000
3,519914	1233,015449	638,616	0,443731	22,470000	54,415000
3,529932	1243,871029	640,118	0,448312	22,470000	54,415000
3,539973	1253,088205	641,620	0,452202	22,470000	54,415000
3,549991	1263,387237	643,124	0,456548	22,500000	54,405000
3,559949	1274,345796	644,625	0,461172	22,490000	54,430000
3,569934	1283,226266	646,127	0,464920	22,500000	54,435000
3,579904	1294,387311	647,631	0,469630	22,500000	54,435000
3,589968	1303,463326	649,133	0,473460	22,500000	54,435000
3,599906	1314,131461	650,634	0,477962	22,490000	54,385000
3,609906	1323,905186	652,137	0,482086	22,490000	54,345000
3,619932	1334,831346	653,639	0,486697	22,490000	54,345000
3,629914	1344,040423	655,143	0,490583	22,500000	54,380000
3,639869	1353,830347	656,646	0,494715	22,490000	54,385000
3,649918	1363,917636	658,151	0,498972	22,490000	54,385000
3,659905	1373,958642	659,654	0,503209	22,490000	54,385000
3,669875	1385,260849	661,156	0,507979	22,480000	54,415000
3,679919	1394,266282	662,659	0,511779	22,480000	54,415000
3,689951	1404,369770	664,164	0,516042	22,490000	54,400000
3,699861	1414,230274	665,667	0,520204	22,490000	54,400000
3,709928	1424,184501	667,169	0,524404	22,490000	54,440000
3,719906	1433,950126	668,673	0,528525	22,490000	54,440000
3,729915	1445,197951	670,178	0,533272	22,490000	54,430000
3,739922	1454,579430	671,682	0,537231	22,490000	54,430000
3,749927	1464,188851	673,184	0,541286	22,490000	54,430000
3,759918	1473,900094	674,688	0,545384	22,500000	54,420000
3,769886	1485,077338	676,191	0,550101	22,480000	54,415000
3,779915	1495,117188	677,692	0,554338	22,480000	54,415000
3,789913	1504,593546	679,195	0,558337	22,480000	54,415000
3,799890	1514,014366	680,697	0,562312	22,490000	54,415000
3,809882	1524,979867	682,199	0,566940	22,480000	54,400000
3,819859	1533,970259	683,702	0,570734	22,480000	54,400000
3,829913	1544,394254	685,204	0,575133	22,480000	54,400000
3,839917	1555,234792	686,706	0,579708	22,500000	54,380000
3,849856	1564,969176	688,210	0,583815	22,490000	54,385000
3,859903	1575,151344	689,713	0,588112	22,490000	54,385000
3,869912	1585,301114	691,215	0,592396	22,500000	54,445000
3,879923	1594,307705	692,718	0,596196	22,480000	54,415000
3,889867	1604,802281	694,219	0,600625	22,480000	54,415000
3,899898	1614,866428	695,723	0,604872	22,480000	54,415000
3,909896	1625,055539	697,228	0,609172	22,490000	54,415000
3,919895	1635,159027	698,731	0,613436	22,480000	54,415000
3,929935	1645,136395	700,234	0,617646	22,490000	54,385000
3,939925	1655,145003	701,737	0,621870	22,490000	54,385000
3,949946	1664,691943	703,238	0,625898	22,480000	54,385000
3,959958	1675,156435	704,739	0,630314	22,480000	54,415000
3,969881	1684,521716	706,243	0,634267	22,470000	54,385000
3,979905	1695,237291	707,744	0,638789	22,470000	54,385000
3,989888	1704,155945	709,247	0,642552	22,470000	54,385000
3,999917	1714,172653	710,748	0,646779	22,490000	54,385000
4,009837	1723,860754	712,251	0,650868	22,500000	54,405000
4,019815	1734,599471	713,754	0,655399	22,500000	54,405000
4,029857	1744,498158	715,257	0,659577	22,490000	54,415000
4,039896	1755,189435	716,761	0,664088	22,490000	54,415000
4,049860	1764,493391	718,264	0,668015	22,490000	54,415000
4,059850	1774,337696	719,767	0,672169	22,490000	54,415000
4,069875	1784,331263	721,268	0,676386	22,480000	54,415000
4,079876	1794,269291	722,771	0,680580	22,480000	54,430000
4,089902	1804,184177	724,275	0,684764	22,480000	54,430000
4,099889	1814,092121	725,778	0,688945	22,480000	54,430000
4,109852	1823,990808	727,280	0,693123	22,490000	54,415000
4,119894	1834,266699	728,784	0,697459	22,480000	54,400000
4,129917	1843,961743	730,289	0,701550	22,480000	54,415000
4,139879	1854,754841	731,793	0,706105	22,480000	54,415000
4,149900	1864,928910	733,293	0,710398	22,480000	54,415000
4,159839	1874,137987	734,796	0,714285	22,480000	54,440000
4,169859	1884,037831	736,298	0,718462	22,480000	54,415000
4,179879	1894,077681	737,798	0,722699	22,480000	54,415000
4,189899	1904,158027	739,299	0,726953	22,480000	54,415000
4,199865	1915,067989	740,802	0,731557	22,500000	54,420000
4,209882	1924,230783	742,304	0,735424	22,490000	54,385000
4,219858	1934,953301	743,806	0,739949	22,490000	54,385000
4,229846	1943,833771	745,310	0,743696	22,500000	54,405000
4,239892	1954,352646	746,812	0,748135	22,500000	54,405000
4,249808	1964,408694	748,313	0,752379	22,490000	54,400000
4,259895	1975,264274	749,817	0,756960	22,490000	54,400000
4,269893	1985,124778	751,321	0,761121	22,470000	54,385000
4,279851	1995,007266	752,824	0,765292	22,500000	54,420000
4,288848	2004,030056	754,326	0,769099	22,500000	54,420000
4,284847	2000,063639	755,826	0,767425	22,500000	54,420000
4,274829	1990,352396	757,327	0,763327	22,500000	54,435000
4,264861	1981,040340	758,828	0,759397	22,500000	54,435000
4,254854	1970,921810	760,331	0,755127	22,490000	54,440000
4,244839	1960,677160	761,836	0,750804	22,490000	54,440000
4,234815	1950,323747	763,338	0,746435	22,490000	54,385000
4,224855	1940,376463	764,840	0,742237	22,490000	54,400000
4,214822	1930,525215	766,341	0,738080	22,490000	54,415000
4,204821	1919,528473	767,846	0,733439	22,490000	54,415000
4,194861	1909,667969	769,347	0,729278	22,490000	54,415000
4,184862	1899,400178	770,847	0,724945	22,490000	54,415000
4,174861	1890,135562	772,349	0,721036	22,490000	54,415000
4,164900	1879,311223	773,849	0,716468	22,490000	54,415000
4,154909	1869,404436	775,355	0,712287	22,490000	54,400000
4,144824	1859,778816	776,858	0,708225	22,500000	54,405000
4,134890	1850,208734	778,361	0,704187	22,500000	54,420000
4,124888	1839,321914	779,863	0,699592	22,500000	54,420000
4,114887	1829,822414	781,364	0,695583	22,490000	54,415000
4,104941	1819,625204	782,866	0,691280	22,480000	54,415000
4,094927	1809,749658	784,369	0,687113	22,490000	54,415000
4,084896	1798,956559	785,869	0,682558	22,490000	54,415000
4,074834	1788,829930	787,370	0,678285	22,490000	54,415000
4,064865	1778,530898	788,872	0,673938	22,490000	54,415000
4,054898	1769,697867	790,374	0,670211	22,480000	54,440000
4,044927	1759,484458	791,877	0,665901	22,480000	54,440000
4,034883	1748,981783	793,379	0,661469	22,480000	54,385000
4,024914	1739,301781	794,881	0,657384	22,480000	54,385000
4,014899	1729,480617	796,384	0,653239	22,490000	54,415000
4,004900	1719,447710	797,885	0,649005	22,490000	54,415000
3,994903	1708,780732	799,392	0,644504	22,490000	54,415000
3,984903	1698,191277	800,895	0,640035	22,490000	54,415000
3,974943	1688,041506	802,398	0,635752	22,490000	54,415000
3,964884	1678,831272	803,899	0,631865	22,490000	54,415000
3,954883	1668,697701	805,401	0,627589	22,480000	54,385000
3,944904	1657,716001	806,903	0,622955	22,480000	54,440000
3,934907	1647,605571	808,405	0,618688	22,480000	54,440000
3,924905	1637,917469	809,906	0,614600	22,480000	54,440000
3,914848	1628,237467	811,407	0,610515	22,480000	54,400000
3,904867	1618,534323	812,911	0,606420	22,480000	54,375000
3,894859	1608,227192	814,413	0,602070	22,490000	54,400000
3,884866	1598,272965	815,916	0,597870	22,490000	54,400000
3,874934	1587,433584	817,417	0,593295	22,490000	54,415000
3,864912	1577,228275	818,917	0,588989	22,490000	54,415000
3,854873	1567,955559	820,419	0,585076	22,480000	54,415000
3,844879	1556,715834	821,921	0,580333	22,480000	54,415000
3,834908	1547,804123	823,425	0,576572	22,480000	54,415000
3,824920	1536,510016	824,925	0,571806	22,480000	54,415000
3,814918	1526,806872	826,429	0,567711	22,490000	54,385000
3,804883	1517,133812	827,934	0,563629	22,490000	54,385000
3,794880	1507,461909	829,435	0,559547	22,480000	54,430000
3,784874	1497,225359	830,939	0,555228	22,500000	54,420000
3,774889	1487,507174	832,441	0,551126	22,480000	54,430000
3,764888	1476,533573	833,944	0,546496	22,480000	54,430000
3,754974	1466,234542	835,447	0,542149	22,490000	54,400000
3,744907	1456,508257	836,948	0,538045	22,490000	54,400000
3,734889	1446,905778	838,450	0,533993	22,490000	54,440000
3,724898	1437,038331	839,953	0,529829	22,490000	54,440000
3,714936	1426,072830	841,457	0,525201	22,480000	54,415000
3,704826	1416,886895	842,962	0,521325	22,490000	54,385000
3,694916	1406,987050	844,464	0,517147	22,480000	54,400000
3,684944	1397,229525	845,966	0,513029	22,480000	54,400000
3,674904	1386,741891	847,470	0,508604	22,480000	54,415000
3,664911	1376,630304	848,973	0,504336	22,490000	54,415000
3,654962	1365,932085	850,476	0,499822	22,490000	54,415000
3,644955	1355,805456	851,977	0,495548	22,490000	54,415000
3,634935	1345,490225	853,479	0,491195	22,500000	54,420000
3,624854	1335,427235	854,983	0,486949	22,490000	54,440000
3,614946	1326,522466	856,485	0,483191	22,490000	54,440000
3,604895	1316,545098	857,987	0,478980	22,490000	54,440000
3,594916	1305,548356	859,488	0,474340	22,480000	54,415000
3,584924	1295,405528	860,988	0,470060	22,500000	54,445000
3,574975	1285,295098	862,491	0,465793	22,480000	54,415000
3,564949	1275,834938	863,991	0,461801	22,480000	54,415000
3,554935	1265,166802	865,491	0,457299	22,480000	54,415000
3,544947	1256,419394	866,993	0,453607	22,480000	54,415000
3,534944	1244,882303	868,496	0,448739	22,490000	54,430000
3,524960	1234,873695	869,997	0,444515	22,490000	54,430000
3,515010	1224,965751	871,501	0,440334	22,490000	54,430000
3,505014	1215,999658	873,003	0,436550	22,490000	54,415000
3,494956	1205,536323	874,507	0,432135	22,490000	54,415000
3,484892	1195,769541	876,008	0,428013	22,490000	54,415000
3,474922	1184,600396	877,510	0,423300	22,490000	54,385000
3,464975	1175,846046	879,013	0,419605	22,490000	54,400000
3,454962	1164,809964	880,514	0,414948	22,510000	54,420000
3,444990	1154,910119	882,017	0,410771	22,510000	54,420000
3,434966	1144,587946	883,520	0,406415	22,510000	54,420000
3,424947	1135,456393	885,022	0,402561	22,490000	54,400000
3,415002	1125,479025	886,525	0,398351	22,490000	54,385000
3,404898	1114,223101	888,029	0,393601	22,490000	54,385000
3,394946	1105,053364	889,531	0,389731	22,490000	54,385000
3,384956	1094,683751	891,033	0,385355	22,500000	54,405000
3,374914	1084,274798	892,536	0,380962	22,500000	54,405000
3,365016	1075,064564	894,039	0,377076	22,500000	54,405000
3,354942	1064,107163	895,539	0,372452	22,500000	54,435000
3,344954	1054,059214	897,043	0,368211	22,490000	54,400000
3,335006	1044,504175	898,547	0,364179	22,490000	54,400000
3,325002	1034,832272	900,049	0,360098	22,490000	54,400000
3,314998	1024,987967	901,552	0,355943	22,480000	54,400000
3,304971	1014,900678	903,057	0,351687	22,480000	54,400000
3,295001	1003,958318	904,562	0,347069	22,490000	54,415000
3,285005	994,733042	906,066	0,343176	22,490000	54,415000
3,275009	984,716334	907,570	0,338949	22,500000	54,420000
3,264988	973,468509	909,072	0,334202	22,500000	54,420000
3,254952	963,679743	910,576	0,330071	22,480000	54,430000
3,245004	953,474434	912,079	0,325765	22,480000	54,415000
3,235008	943,355904	913,582	0,321495	22,480000	54,415000
3,224984	934,561056	915,083	0,317783	22,480000	54,415000
3,215007	924,496908	916,586	0,313536	22,480000	54,415000
3,205059	913,414544	918,089	0,308859	22,480000	54,415000
3,195023	903,319155	919,589	0,304599	22,480000	54,415000
3,185043	893,717834	921,091	0,300547	22,480000	54,415000
3,175064	884,249574	922,593	0,296552	22,490000	54,430000
3,165068	873,103571	924,096	0,291848	22,490000	54,415000
3,155053	864,349221	925,597	0,288154	22,490000	54,415000
3,145069	854,152011	927,098	0,283851	22,480000	54,430000
3,135045	843,907361	928,599	0,279527	22,500000	54,420000
3,125066	834,721425	930,101	0,275651	22,500000	54,420000
3,115084	824,092630	931,605	0,271166	22,500000	54,420000
3,105043	814,445026	933,108	0,267094	22,500000	54,420000
3,095072	804,239716	934,611	0,262788	22,480000	54,430000
3,085019	793,384136	936,116	0,258207	22,490000	54,430000
3,075096	783,594213	937,618	0,254075	22,490000	54,430000
3,065042	773,820488	939,120	0,249951	22,500000	54,405000
3,055048	763,968084	940,623	0,245793	22,500000	54,405000
3,045054	753,920135	942,126	0,241553	22,490000	54,400000
3,035017	742,946534	943,629	0,236922	22,490000	54,400000
3,025045	733,948043	945,133	0,233125	22,490000	54,415000
3,015112	724,307381	946,638	0,229056	22,490000	54,400000
3,005078	713,624204	948,141	0,224548	22,500000	54,390000
2,995033	703,270790	949,645	0,220179	22,500000	54,390000
2,985039	693,011099	951,148	0,215849	22,480000	54,430000
2,974985	683,103155	952,653	0,211668	22,480000	54,430000
2,965002	673,572414	954,155	0,207646	22,500000	54,390000
2,955006	663,578847	955,658	0,203429	22,500000	54,390000
2,944963	653,475359	957,159	0,199165	22,500000	54,390000
2,935053	642,384895	958,664	0,194485	22,490000	54,415000
2,925072	633,363263	960,167	0,190678	22,490000	54,415000
2,915101	623,307215	961,671	0,186434	22,490000	54,415000
2,905098	612,279232	963,174	0,181780	22,490000	54,400000
2,895050	602,098221	964,677	0,177484	22,490000	54,400000
2,885095	593,272132	966,179	0,173759	22,490000	54,385000
2,875066	582,706976	967,683	0,169301	22,490000	54,385000
2,865014	572,094379	969,186	0,164822	22,490000	54,430000
2,855056	562,970925	970,689	0,160972	22,480000	54,430000
2,845034	552,350230	972,193	0,156490	22,490000	54,385000
2,835081	542,067397	973,696	0,152151	22,490000	54,385000
2,825106	531,995150	975,199	0,147900	22,500000	54,405000
2,815080	522,182085	976,704	0,143759	22,480000	54,430000
2,805038	511,608829	978,208	0,139297	22,490000	54,415000
2,795056	502,446035	979,710	0,135431	22,490000	54,415000
2,785055	492,130804	981,216	0,131078	22,490000	54,430000
2,775066	481,808631	982,723	0,126722	22,480000	54,400000
2,765058	472,896919	984,225	0,122961	22,480000	54,400000
2,755103	462,354904	985,728	0,118512	22,480000	54,400000
2,745040	453,168968	987,231	0,114636	22,500000	54,435000
2,735104	442,022965	988,736	0,109932	22,490000	54,430000
2,725111	433,879545	990,239	0,106496	22,480000	54,385000
2,715044	422,733542	991,743	0,101792	22,480000	54,385000
2,705064	412,168385	993,245	0,097333	22,480000	54,385000
2,695126	402,182918	994,751	0,093120	22,480000	54,415000
2,685039	392,040090	996,255	0,088839	22,480000	54,415000
2,675005	382,940934	997,755	0,085000	22,480000	54,415000
2,665066	373,589538	999,258	0,081053	22,490000	54,400000
2,655091	363,548532	1000,762	0,076816	22,480000	54,430000
2,645063	352,835271	1002,265	0,072295	22,490000	54,415000
2,635081	342,002832	1003,767	0,067724	22,490000	54,415000
2,625131	332,252249	1005,273	0,063609	22,490000	54,400000
2,615127	322,838372	1006,777	0,059636	22,480000	54,415000
2,605102	312,892245	1008,278	0,055439	22,480000	54,415000
2,595086	302,655695	1009,779	0,051119	22,480000	54,415000
2,585078	292,011858	1011,283	0,046627	22,500000	54,420000
2,575093	281,947710	1012,785	0,042380	22,490000	54,385000
2,565080	272,597471	1014,289	0,038435	22,500000	54,390000
2,555110	262,431502	1015,790	0,034145	22,500000	54,390000
2,545114	253,284906	1017,294	0,030285	22,490000	54,400000
2,535121	243,102738	1018,795	0,025988	22,490000	54,400000
2,525094	233,086030	1020,297	0,021761	22,490000	54,400000
2,515099	223,123704	1021,800	0,017557	22,490000	54,400000
2,505139	212,479867	1023,305	0,013065	22,480000	54,415000
2,495155	202,753582	1024,807	0,008960	22,490000	54,415000
2,485132	193,182344	1026,308	0,004921	22,490000	54,400000
2,475108	182,515366	1027,811	0,000420	22,490000	54,400000
2,465141	172,201292	1029,315	-0,003933	22,500000	54,405000
2,455024	161,736800	1030,816	-0,008349	22,490000	54,400000
2,445098	152,715168	1032,321	-0,012156	22,480000	54,415000
2,435090	142,918302	1033,823	-0,016290	22,480000	54,415000
2,425140	132,924735	1035,326	-0,020507	22,480000	54,430000
2,415049	122,154778	1036,830	-0,025052	22,490000	54,415000
2,405107	112,475933	1038,333	-0,029137	22,490000	54,400000
2,395107	102,802873	1039,836	-0,033219	22,490000	54,400000
2,385068	92,127795	1041,340	-0,037724	22,500000	54,405000
2,375134	81,922486	1042,843	-0,042030	22,500000	54,405000
2,365087	71,560973	1044,345	-0,046403	22,490000	54,430000
2,355096	62,751083	1045,848	-0,050121	22,490000	54,430000
2,345080	53,031741	1047,353	-0,054222	22,500000	54,435000
2,335099	41,988716	1048,856	-0,058882	22,500000	54,435000
2,325070	31,658444	1050,361	-0,063242	22,490000	54,415000
2,315146	22,589372	1051,865	-0,067069	22,490000	54,415000
2,305034	12,517125	1053,368	-0,071319	22,490000	54,400000
2,295046	1,968167	1054,871	-0,075771	22,480000	54,375000
2,285094	-6,975942	1056,375	-0,079545	22,480000	54,385000
2,275071	-17,626722	1057,877	-0,084040	22,480000	54,385000
2,265145	-27,275483	1059,383	-0,088112	22,490000	54,440000
2,255050	-37,017967	1060,886	-0,092223	22,490000	54,440000
2,245085	-46,784749	1062,390	-0,096345	22,490000	54,400000
2,235064	-57,036341	1063,894	-0,100671	22,490000	54,400000
2,225107	-67,374713	1065,398	-0,105034	22,490000	54,400000
2,215093	-77,728127	1066,901	-0,109403	22,480000	54,415000
2,205053	-86,774058	1068,404	-0,113220	22,480000	54,415000
2,195119	-98,036924	1069,907	-0,117973	22,480000	54,415000
2,185161	-106,541349	1071,409	-0,121562	22,490000	54,415000
2,175161	-116,464335	1072,913	-0,125750	22,490000	54,415000
2,165138	-126,433603	1074,413	-0,129957	22,490000	54,385000
2,155113	-137,415303	1075,914	-0,134591	22,490000	54,385000
2,145130	-147,447053	1077,418	-0,138824	22,490000	54,415000
2,135100	-156,430502	1078,921	-0,142615	22,490000	54,415000
2,125082	-166,800115	1080,421	-0,146991	22,490000	54,375000
2,115096	-177,435852	1081,923	-0,151479	22,490000	54,375000
2,105090	-186,653029	1083,427	-0,155369	22,490000	54,415000
2,095117	-197,155704	1084,931	-0,159801	22,500000	54,435000
2,085104	-206,467760	1086,433	-0,163731	22,500000	54,435000
2,075101	-216,264625	1087,936	-0,167865	22,500000	54,435000
2,065074	-226,970944	1089,440	-0,172383	22,490000	54,400000
2,055058	-236,659045	1090,941	-0,176472	22,490000	54,400000
2,045086	-246,330948	1092,444	-0,180553	22,500000	54,420000
2,035150	-255,917228	1093,946	-0,184599	22,500000	54,420000
2,025116	-266,286841	1095,449	-0,188975	22,500000	54,420000
2,015114	-275,723860	1096,950	-0,192957	22,480000	54,430000
2,005137	-287,339631	1098,454	-0,197859	22,490000	54,415000
1,995136	-297,215177	1099,956	-0,202026	22,490000	54,415000
1,985074	-307,161304	1101,457	-0,206224	22,480000	54,400000
1,975084	-317,257850	1102,958	-0,210484	22,490000	54,430000
1,965097	-326,114022	1104,461	-0,214222	22,490000	54,415000
1,955106	-336,695377	1105,963	-0,218687	22,490000	54,415000
1,945120	-346,437861	1107,468	-0,222798	22,500000	54,405000
1,935092	-356,109764	1108,971	-0,226880	22,490000	54,385000
1,925112	-366,832281	1110,477	-0,231405	22,490000	54,385000
1,915047	-376,919570	1111,979	-0,235662	22,490000	54,385000
1,905154	-386,208485	1113,486	-0,239582	22,490000	54,415000
1,895101	-395,714927	1114,988	-0,243593	22,500000	54,445000
1,885152	-406,013959	1116,492	-0,247939	22,500000	54,445000
1,875124	-416,344231	1117,996	-0,252299	22,500000	54,445000
1,865110	-426,620122	1119,499	-0,256635	22,500000	54,365000
1,855164	-436,252684	1121,001	-0,260700	22,490000	54,385000
1,845156	-445,807724	1122,503	-0,264732	22,490000	54,415000
1,835094	-455,989892	1124,006	-0,269029	22,490000	54,415000
1,825103	-466,696210	1125,510	-0,273547	22,490000	54,400000
1,815182	-476,023308	1127,013	-0,277483	22,500000	54,420000
1,805121	-485,788933	1128,514	-0,281604	22,500000	54,435000
1,795149	-495,641338	1130,017	-0,285762	22,500000	54,435000
1,785090	-505,792265	1131,519	-0,290046	22,500000	54,435000
1,775138	-515,346147	1133,023	-0,294078	22,500000	54,405000
1,765122	-526,562731	1134,525	-0,298811	22,480000	54,415000
1,755147	-535,568165	1136,028	-0,302611	22,480000	54,415000
1,745154	-545,420570	1137,531	-0,306769	22,500000	54,405000
1,735146	-555,171153	1139,036	-0,310884	22,500000	54,405000
1,725160	-566,410878	1140,541	-0,315627	22,490000	54,415000
1,715101	-575,267051	1142,043	-0,319364	22,490000	54,415000
1,705168	-585,339298	1143,546	-0,323615	22,480000	54,400000
1,695146	-595,214844	1145,048	-0,327782	22,490000	54,415000
1,685088	-605,372714	1146,552	-0,332069	22,490000	54,400000
1,675111	-615,193878	1148,060	-0,336213	22,490000	54,400000
1,665110	-625,109921	1149,564	-0,340398	22,480000	54,400000
1,655109	-634,891745	1151,066	-0,344526	22,490000	54,400000
1,645170	-645,197719	1152,569	-0,348875	22,500000	54,445000
1,635118	-655,904038	1154,073	-0,353393	22,500000	54,445000
1,625121	-665,693961	1155,574	-0,357524	22,500000	54,445000
1,615192	-674,746834	1157,078	-0,361345	22,490000	54,385000
1,605121	-684,544857	1158,579	-0,365479	22,490000	54,385000
1,595129	-695,525400	1160,083	-0,370113	22,490000	54,385000
1,585197	-704,202227	1161,587	-0,373775	22,500000	54,420000
1,575132	-714,932844	1163,090	-0,378303	22,490000	54,400000
1,565135	-724,274983	1164,591	-0,382246	22,490000	54,415000
1,555141	-735,217343	1166,095	-0,386863	22,490000	54,415000
1,545114	-744,615021	1167,597	-0,390829	22,490000	54,400000
1,535159	-754,561149	1169,103	-0,395026	22,490000	54,430000
1,525135	-763,833864	1170,605	-0,398939	22,500000	54,405000
1,515171	-773,834373	1172,112	-0,403160	22,490000	54,400000
1,505148	-783,898521	1173,616	-0,407407	22,490000	54,400000
1,495166	-794,433594	1175,117	-0,411853	22,500000	54,405000
1,485101	-803,673911	1176,620	-0,415752	22,480000	54,430000
1,475145	-813,526316	1178,127	-0,419910	22,480000	54,430000
1,465163	-824,045190	1179,632	-0,424349	22,480000	54,430000
1,455141	-833,019383	1181,135	-0,428136	22,480000	54,415000
1,445134	-843,027992	1182,637	-0,432359	22,500000	54,420000
1,435166	-853,436945	1184,139	-0,436752	22,490000	54,415000
1,425129	-863,069507	1185,642	-0,440817	22,490000	54,415000
1,415131	-873,345398	1187,143	-0,445153	22,490000	54,415000
1,405111	-883,621288	1188,646	-0,449490	22,480000	54,415000
1,395151	-892,485560	1190,148	-0,453230	22,480000	54,415000
1,385143	-902,503425	1191,653	-0,457458	22,480000	54,415000
1,375187	-912,833697	1193,157	-0,461817	22,490000	54,375000
1,365149	-921,697969	1194,659	-0,465558	22,490000	54,415000
1,355102	-931,887080	1196,164	-0,469858	22,490000	54,400000
1,345155	-942,296033	1197,670	-0,474250	22,490000	54,400000
1,335131	-951,184603	1199,174	-0,478001	22,490000	54,400000
1,325142	-961,084447	1200,676	-0,482179	22,490000	54,375000
1,315137	-0,492910	1202,180	-0,076810	22,480000	54,415000
1,305124	-0,579689	1203,683	-0,076846	22,480000	54,415000
1,295133	-0,305465	1205,185	-0,076730	22,480000	54,430000
1,288144	-0,179345	1206,237	-0,076677	22,480000	54,415000