File: Nanoindentation Datenauswertung/data/PDMS/12.09/EM-PDMS-150-10-150, 20nms,3um-4
Quasi static measurement routine
Tip parameters (shape,radius, material...)
12.09.2022

Piezo position[nm]	MEMS displ.[nm]	Time[ms]	Cap [pf]	Temp [°C]	Rh [%]
eoh
0,652144	-0,124963	0,211	-0,075953	22,310000	51,375000
0,661119	0,024298	0,662	-0,075890	22,310000	51,375000
0,670141	-0,038183	1,114	-0,075917	22,300000	51,405000
0,679123	-0,116864	1,564	-0,075950	22,300000	51,405000
0,688104	0,298523	2,015	-0,075774	22,300000	51,405000
0,697155	-0,030084	2,467	-0,075913	22,300000	51,405000
0,706118	-0,023141	2,918	-0,075910	22,310000	51,405000
0,715135	0,267282	3,368	-0,075788	22,310000	51,405000
0,724167	-0,062481	3,818	-0,075927	22,310000	51,405000
0,733082	-0,038183	4,268	-0,075917	22,310000	51,405000
0,742084	0,086780	4,719	-0,075864	22,310000	51,405000
0,751122	0,251083	5,172	-0,075794	22,300000	51,365000
0,760167	0,086780	5,622	-0,075864	22,300000	51,365000
0,769110	-0,226785	6,072	-0,075996	22,300000	51,365000
0,778188	-0,023141	6,522	-0,075910	22,300000	51,365000
0,787139	-0,266125	6,972	-0,076013	22,310000	51,375000
0,796124	-0,164303	7,423	-0,075970	22,310000	51,375000
0,805090	0,039340	7,874	-0,075884	22,310000	51,375000
0,814107	-0,124963	8,326	-0,075953	22,310000	51,375000
0,823100	-0,297366	8,776	-0,076026	22,310000	51,375000
0,832106	0,070581	9,226	-0,075871	22,310000	51,390000
0,841103	-0,266125	9,677	-0,076013	22,310000	51,390000
0,850075	-0,077523	10,127	-0,075933	22,310000	51,390000
0,859137	-0,077523	10,579	-0,075933	22,310000	51,390000
0,868150	-0,101822	11,031	-0,075943	22,310000	51,390000
0,877100	-0,172403	11,482	-0,075973	22,310000	51,390000
0,886138	0,063639	11,932	-0,075874	22,310000	51,390000
0,895105	-0,054382	12,383	-0,075923	22,310000	51,390000
0,904129	-0,156204	12,834	-0,075966	22,310000	51,390000
0,913114	-0,116864	13,285	-0,075950	22,310000	51,390000
0,922120	-0,140005	13,736	-0,075959	22,310000	51,390000
0,931080	-0,234884	14,187	-0,076000	22,310000	51,390000
0,940086	-0,234884	14,638	-0,076000	22,310000	51,390000
0,949099	-0,054382	15,088	-0,075923	22,310000	51,390000
0,958141	-0,101822	15,541	-0,075943	22,310000	51,390000
0,967072	-0,015042	15,992	-0,075907	22,310000	51,390000
0,976121	-0,305465	16,442	-0,076029	22,310000	51,390000
0,985106	-0,187444	16,893	-0,075979	22,310000	51,350000
0,994046	-0,133062	17,346	-0,075957	22,310000	51,350000
1,003128	-0,116864	17,796	-0,075950	22,310000	51,350000
1,012151	-0,124963	18,246	-0,075953	22,310000	51,350000
1,021135	-0,054382	18,696	-0,075923	22,310000	51,350000
1,030169	-0,023141	19,146	-0,075910	22,310000	51,350000
1,039114	-0,211743	19,596	-0,075990	22,310000	51,350000
1,048101	-0,249926	20,047	-0,076006	22,310000	51,350000
1,057138	0,039340	20,497	-0,075884	22,310000	51,350000
1,066122	-0,305465	20,948	-0,076029	22,300000	51,405000
1,075141	-0,266125	21,399	-0,076013	22,300000	51,405000
1,084086	-0,305465	21,852	-0,076029	22,300000	51,405000
1,093156	-0,241826	22,302	-0,076002	22,300000	51,405000
1,102146	-0,116864	22,752	-0,075950	22,300000	51,405000
1,111129	-0,351748	23,202	-0,076049	22,300000	51,405000
1,120127	-0,548449	23,654	-0,076132	22,300000	51,405000
1,129139	-0,062481	24,106	-0,075927	22,300000	51,405000
1,138114	-0,172403	24,556	-0,075973	22,300000	51,405000
1,147139	-0,108764	25,008	-0,075946	22,300000	51,405000
1,156132	-0,187444	25,460	-0,075979	22,300000	51,405000
1,165133	-0,195544	25,910	-0,075983	22,300000	51,405000
1,174156	-0,312407	26,360	-0,076032	22,300000	51,405000
1,183175	0,031241	26,811	-0,075887	22,300000	51,405000
1,192129	-0,156204	27,262	-0,075966	22,300000	51,405000
1,201133	-0,101822	27,712	-0,075943	22,300000	51,405000
1,210129	-0,249926	28,162	-0,076006	22,300000	51,405000
1,219090	-0,320507	28,614	-0,076036	22,300000	51,405000
1,228129	-0,289266	29,064	-0,076022	22,300000	51,390000
1,237175	-0,101822	29,516	-0,075943	22,300000	51,390000
1,246078	-0,124963	29,966	-0,075953	22,300000	51,390000
1,255089	-0,258025	30,416	-0,076009	22,300000	51,390000
1,264087	0,039340	30,867	-0,075884	22,300000	51,390000
1,273122	-0,203643	31,318	-0,075986	22,310000	51,405000
1,282086	-0,101822	31,768	-0,075943	22,310000	51,405000
1,291110	-0,289266	32,219	-0,076022	22,310000	51,405000
1,300086	-0,156204	32,670	-0,075966	22,310000	51,405000
1,309090	-0,320507	33,121	-0,076036	22,310000	51,375000
1,318165	-0,148104	33,574	-0,075963	22,310000	51,375000
1,327120	-0,320507	34,026	-0,076036	22,310000	51,375000
1,336148	-0,415386	34,478	-0,076076	22,310000	51,375000
1,345154	-0,179345	34,928	-0,075976	22,310000	51,375000
1,354110	-0,258025	35,378	-0,076009	22,310000	51,375000
1,363103	-0,234884	35,828	-0,076000	22,310000	51,375000
1,372081	-0,226785	36,278	-0,075996	22,310000	51,375000
1,381067	-0,266125	36,729	-0,076013	22,310000	51,375000
1,390088	-0,344805	37,179	-0,076046	22,300000	51,390000
1,399080	-0,407287	37,629	-0,076072	22,300000	51,390000
1,408074	-0,328606	38,079	-0,076039	22,300000	51,390000
1,417089	-0,344805	38,530	-0,076046	22,300000	51,390000
1,426079	-0,156204	38,981	-0,075966	22,300000	51,390000
1,435114	-0,384145	39,431	-0,076063	22,300000	51,390000
1,444134	-0,367947	39,882	-0,076056	22,300000	51,390000
1,453110	-0,101822	40,335	-0,075943	22,300000	51,390000
1,462061	-0,289266	40,786	-0,076022	22,300000	51,390000
1,471066	-0,399187	41,237	-0,076069	22,300000	51,405000
1,480117	-0,328606	41,688	-0,076039	22,300000	51,405000
1,489130	-0,312407	42,138	-0,076032	22,300000	51,405000
1,498101	-0,297366	42,588	-0,076026	22,300000	51,405000
1,507100	-0,305465	43,040	-0,076029	22,310000	51,405000
1,516074	-0,367947	43,493	-0,076056	22,310000	51,405000
1,525091	-0,422329	43,944	-0,076079	22,310000	51,405000
1,534088	-0,344805	44,395	-0,076046	22,310000	51,405000
1,543087	-0,399187	44,847	-0,076069	22,310000	51,405000
1,552078	-0,407287	45,298	-0,076072	22,310000	51,390000
1,561027	-0,249926	45,749	-0,076006	22,310000	51,390000
1,570137	-0,006942	46,199	-0,075903	22,310000	51,390000
1,579075	-0,203643	46,649	-0,075986	22,310000	51,390000
1,588139	-0,407287	47,100	-0,076072	22,310000	51,390000
1,597107	-0,484810	47,550	-0,076105	22,310000	51,390000
1,606126	-0,453569	48,000	-0,076092	22,310000	51,390000
1,615063	-0,399187	48,450	-0,076069	22,310000	51,390000
1,624078	-0,540349	48,901	-0,076128	22,300000	51,390000
1,633124	-0,344805	49,352	-0,076046	22,300000	51,390000
1,642119	-0,461669	49,803	-0,076095	22,300000	51,390000
1,651075	-0,093722	50,254	-0,075940	22,300000	51,390000
1,660083	-0,367947	50,704	-0,076056	22,300000	51,390000
1,669076	-0,297366	51,155	-0,076026	22,310000	51,365000
1,678145	-0,336706	51,606	-0,076042	22,310000	51,365000
1,687042	-0,320507	52,056	-0,076036	22,310000	51,365000
1,696147	-0,445470	52,506	-0,076088	22,310000	51,365000
1,705065	-0,548449	52,957	-0,076132	22,310000	51,375000
1,714136	-0,359847	53,410	-0,076052	22,310000	51,375000
1,723067	-0,548449	53,862	-0,076132	22,310000	51,375000
1,732088	-0,453569	54,313	-0,076092	22,310000	51,375000
1,741016	-0,367947	54,764	-0,076056	22,310000	51,375000
1,750067	-0,266125	55,214	-0,076013	22,310000	51,375000
1,759093	-0,492910	55,664	-0,076108	22,310000	51,375000
1,768110	-0,587789	56,114	-0,076148	22,310000	51,375000
1,777108	-0,689610	56,564	-0,076191	22,310000	51,375000
1,786049	-0,320507	57,016	-0,076036	22,300000	51,390000
1,795085	-0,532250	57,466	-0,076125	22,300000	51,390000
1,804082	-0,908296	57,916	-0,076284	22,300000	51,390000
1,813108	-0,469768	58,366	-0,076099	22,300000	51,390000
1,822129	-0,650270	58,817	-0,076175	22,300000	51,390000
1,831136	-0,743993	59,267	-0,076214	22,310000	51,390000
1,840053	-0,563490	59,718	-0,076138	22,310000	51,390000
1,849065	-0,775233	60,168	-0,076228	22,310000	51,390000
1,858069	-0,627129	60,618	-0,076165	22,310000	51,390000
1,867075	-0,484810	61,069	-0,076105	22,310000	51,405000
1,876078	-2,256276	61,521	-0,076853	22,310000	51,405000
1,885137	-156,970851	61,972	-0,142142	22,310000	51,405000
1,894086	-159,305808	62,424	-0,143127	22,310000	51,405000
1,902995	-156,155121	62,874	-0,141798	22,310000	51,405000
1,912078	-149,908129	63,325	-0,139162	22,310000	51,405000
1,921076	-147,886737	63,776	-0,138309	22,310000	51,405000
1,930034	-143,308233	64,226	-0,136376	22,310000	51,405000
1,939053	-138,323599	64,676	-0,134273	22,310000	51,405000
1,948015	-131,363855	65,127	-0,131336	22,300000	51,390000
1,957093	-128,346231	65,577	-0,130062	22,300000	51,390000
1,966046	-121,943035	66,028	-0,127360	22,300000	51,390000
1,975049	-117,874796	66,478	-0,125644	22,300000	51,390000
1,984031	-112,967686	66,929	-0,123573	22,310000	51,405000
1,993033	-107,426503	67,379	-0,121234	22,310000	51,405000
2,002104	-101,893420	67,830	-0,118899	22,310000	51,405000
2,011071	-96,493400	68,280	-0,116621	22,310000	51,405000
2,020042	-89,117113	68,731	-0,113508	22,310000	51,405000
2,029066	-82,705819	69,183	-0,110802	22,310000	51,405000
2,038088	-78,896762	69,633	-0,109195	22,310000	51,405000
2,047071	-71,215010	70,083	-0,105953	22,310000	51,405000
2,056044	-67,923162	70,534	-0,104564	22,310000	51,405000
2,065027	-61,786091	70,987	-0,101974	22,310000	51,340000
2,074112	-53,509608	71,439	-0,098481	22,310000	51,340000
2,083039	-49,393930	71,890	-0,096745	22,310000	51,340000
2,092056	-41,979460	72,342	-0,093616	22,310000	51,340000
2,101060	-38,139162	72,794	-0,091995	22,310000	51,340000
2,110082	-30,779075	73,245	-0,088889	22,300000	51,405000
2,119111	-26,452810	73,696	-0,087063	22,300000	51,405000
2,128068	-18,176327	74,147	-0,083571	22,300000	51,405000
2,137017	-14,326774	74,597	-0,081946	22,300000	51,405000
2,146041	-7,468852	75,048	-0,079052	22,300000	51,405000
2,155102	-2,594139	75,499	-0,076995	22,300000	51,405000
2,164049	3,332346	75,952	-0,074494	22,300000	51,405000
2,173060	10,981700	76,403	-0,071266	22,300000	51,405000
2,182062	15,245483	76,855	-0,069467	22,300000	51,405000
2,191083	22,589372	77,306	-0,066368	22,310000	51,405000
2,200029	29,174226	77,757	-0,063589	22,310000	51,405000
2,209029	33,837196	78,207	-0,061621	22,310000	51,405000
2,218046	41,322247	78,658	-0,058462	22,310000	51,405000
2,227038	45,022540	79,110	-0,056901	22,310000	51,405000
2,236022	53,000500	79,562	-0,053534	22,310000	51,405000
2,245045	59,278732	80,013	-0,050885	22,310000	51,405000
2,254035	63,456892	80,464	-0,049122	22,310000	51,405000
2,263073	71,357329	80,915	-0,045788	22,300000	51,390000
2,272090	76,601146	81,366	-0,043575	22,300000	51,390000
2,281036	83,396586	81,817	-0,040707	22,300000	51,390000
2,290050	86,985801	82,269	-0,039192	22,300000	51,390000
2,299071	94,777473	82,720	-0,035904	22,300000	51,390000
2,308058	98,986874	83,170	-0,034128	22,300000	51,390000
2,317103	106,957892	83,622	-0,030764	22,300000	51,390000
2,326039	113,408527	84,072	-0,028042	22,300000	51,390000
2,335033	118,127036	84,522	-0,026051	22,300000	51,390000
2,344106	123,409036	84,972	-0,023822	22,300000	51,390000
2,352987	129,656028	85,425	-0,021186	22,300000	51,390000
2,362020	136,137904	85,876	-0,018450	22,300000	51,390000
2,370949	144,023299	86,328	-0,015123	22,300000	51,390000
2,380059	147,786073	86,778	-0,013535	22,300000	51,390000
2,389055	156,149335	87,229	-0,010005	22,300000	51,405000
2,398045	160,138894	87,680	-0,008322	22,300000	51,405000
2,407017	168,485958	88,130	-0,004799	22,300000	51,405000
2,416043	171,651687	88,581	-0,003463	22,300000	51,405000
2,425034	180,124870	89,033	0,000112	22,300000	51,405000
2,434015	184,208151	89,484	0,001835	22,300000	51,405000
2,442994	190,322080	89,934	0,004416	22,300000	51,405000
2,452057	196,616512	90,385	0,007072	22,300000	51,405000
2,461012	204,704393	90,837	0,010485	22,300000	51,405000
2,470066	208,702051	91,288	0,012172	22,300000	51,390000
2,479009	214,988383	91,739	0,014825	22,300000	51,390000
2,488052	222,560214	92,190	0,018020	22,300000	51,390000
2,497066	227,113263	92,641	0,019941	22,300000	51,390000
2,506039	233,415793	93,093	0,022601	22,310000	51,405000
2,515093	239,341121	93,543	0,025102	22,310000	51,405000
2,524006	245,666793	93,994	0,027771	22,310000	51,405000
2,533035	251,733283	94,446	0,030331	22,310000	51,405000
2,542040	258,105237	94,898	0,033020	22,310000	51,405000
2,551037	265,237383	95,351	0,036030	22,310000	51,405000
2,560099	270,246316	95,802	0,038144	22,310000	51,405000
2,569080	276,383386	96,255	0,040733	22,310000	51,405000
2,578008	282,614179	96,708	0,043363	22,310000	51,405000
2,586996	288,829930	97,158	0,045986	22,290000	51,390000
2,596071	296,856487	97,608	0,049373	22,290000	51,390000
2,605077	301,292673	98,058	0,051245	22,290000	51,390000
2,613998	307,201801	98,510	0,053739	22,290000	51,390000
2,623001	313,417552	98,960	0,056362	22,300000	51,415000
2,632049	320,135469	99,410	0,059197	22,300000	51,415000
2,641020	325,832855	99,862	0,061601	22,300000	51,415000
2,649984	333,036739	100,312	0,064641	22,300000	51,415000
2,659067	340,905935	100,762	0,067962	22,300000	51,415000
2,668043	347,317230	101,212	0,070667	22,300000	51,375000
2,677025	351,134386	101,663	0,072278	22,300000	51,375000
2,686008	359,543931	102,115	0,075827	22,300000	51,375000
2,695060	365,531741	102,565	0,078354	22,300000	51,375000
2,704081	369,772382	103,016	0,080144	22,300000	51,365000
2,713044	377,429836	103,468	0,083375	22,300000	51,365000
2,722036	384,641819	103,918	0,086418	22,300000	51,365000
2,731024	389,273549	104,369	0,088373	22,300000	51,365000
2,740024	394,721009	104,820	0,090672	22,300000	51,365000
2,749061	400,991142	105,272	0,093318	22,300000	51,405000
2,758040	409,644827	105,723	0,096970	22,300000	51,405000
2,767014	413,445785	106,175	0,098574	22,300000	51,405000
2,776047	421,071997	106,626	0,101792	22,300000	51,405000
2,785073	426,371353	107,076	0,104028	22,300000	51,405000
2,794047	433,644661	107,526	0,107098	22,300000	51,405000
2,803035	438,841038	107,976	0,109291	22,300000	51,405000
2,812017	444,930669	108,426	0,111860	22,300000	51,405000
2,821026	453,897919	108,876	0,115645	22,300000	51,405000
2,830042	458,560889	109,326	0,117612	22,310000	51,415000
2,839012	466,391902	109,778	0,120917	22,310000	51,415000
2,848036	470,836187	110,228	0,122792	22,310000	51,415000
2,857016	478,924069	110,680	0,126206	22,310000	51,415000
2,866020	483,345213	111,130	0,128071	22,310000	51,415000
2,874995	490,422977	111,580	0,131058	22,310000	51,415000
2,884007	498,001749	112,031	0,134256	22,310000	51,415000
2,893003	503,017624	112,482	0,136373	22,310000	51,415000
2,902041	510,832439	112,932	0,139671	22,310000	51,375000
2,911000	516,907028	113,383	0,142234	22,310000	51,375000
2,920016	523,631887	113,835	0,145072	22,310000	51,375000
2,929023	530,098721	114,286	0,147801	22,310000	51,375000
2,937981	535,623704	114,737	0,150133	22,310000	51,375000
2,946973	540,522715	115,188	0,152200	22,310000	51,375000
2,956013	549,473767	115,638	0,155978	22,310000	51,375000
2,964974	555,885062	116,088	0,158683	22,310000	51,375000
2,974068	561,066397	116,538	0,160870	22,310000	51,375000
2,983048	566,459475	116,988	0,163146	22,300000	51,375000
2,992026	574,038248	117,438	0,166344	22,300000	51,375000
3,000979	581,656361	117,889	0,169559	22,300000	51,375000
3,010016	587,965834	118,341	0,172221	22,300000	51,375000
3,019027	593,468833	118,791	0,174543	22,300000	51,375000
3,027976	598,359745	119,241	0,176607	22,300000	51,375000
3,037027	604,887904	119,692	0,179362	22,300000	51,375000
3,045977	611,762024	120,142	0,182263	22,300000	51,375000
3,055083	618,534323	120,592	0,185121	22,300000	51,375000
3,063990	624,318489	121,043	0,187562	22,300000	51,405000
3,073016	630,808464	121,494	0,190301	22,300000	51,405000
3,081991	637,196618	121,946	0,192997	22,300000	51,405000
3,091011	646,100230	122,398	0,196754	22,300000	51,405000
3,099959	652,488383	122,848	0,199450	22,300000	51,405000
3,109006	657,339955	123,298	0,201497	22,300000	51,390000
3,117983	665,499574	123,749	0,204940	22,300000	51,390000
3,127007	671,925911	124,199	0,207652	22,300000	51,390000
3,136003	678,589446	124,649	0,210464	22,300000	51,390000
3,145019	682,687768	125,100	0,212194	22,300000	51,405000
3,154020	691,395836	125,551	0,215869	22,300000	51,405000
3,163003	695,636478	126,002	0,217658	22,300000	51,405000
3,172015	703,740558	126,452	0,221078	22,300000	51,405000
3,180946	708,655769	126,903	0,223152	22,300000	51,405000
3,190036	717,503841	127,354	0,226886	22,300000	51,375000
3,198995	723,742734	127,804	0,229519	22,300000	51,375000
3,207999	728,423060	128,257	0,231494	22,300000	51,375000
3,216972	734,614512	128,708	0,234107	22,300000	51,375000
3,225995	743,581763	129,159	0,237891	22,300000	51,375000
3,235012	749,640153	129,609	0,240448	22,300000	51,375000
3,243977	756,842880	130,059	0,243487	22,300000	51,375000
3,253010	762,462743	130,510	0,245859	22,300000	51,375000
3,262006	767,432335	130,961	0,247956	22,310000	51,365000
3,271006	775,019207	131,411	0,251158	22,310000	51,365000
3,279992	780,663368	131,861	0,253540	22,310000	51,365000
3,288960	787,168385	132,311	0,256285	22,310000	51,365000
3,298030	794,833938	132,762	0,259520	22,310000	51,365000
3,306950	800,430659	133,213	0,261881	22,310000	51,365000
3,315936	806,457809	133,664	0,264425	22,310000	51,365000
3,324955	815,588205	134,115	0,268278	22,310000	51,365000
3,333984	822,156861	134,568	0,271050	22,310000	51,365000
3,342952	828,827338	135,018	0,273865	22,310000	51,405000
3,351930	834,243557	135,468	0,276150	22,310000	51,405000
3,360963	839,110171	135,918	0,278204	22,310000	51,405000
3,369964	845,898669	136,369	0,281069	22,310000	51,405000
3,379003	852,325006	136,819	0,283781	22,310000	51,405000
3,387928	859,182927	137,270	0,286675	22,300000	51,405000
3,397010	867,836613	137,720	0,290327	22,300000	51,405000
3,405939	874,515190	138,171	0,293145	22,300000	51,405000
3,414907	878,613513	138,622	0,294875	22,300000	51,405000
3,423999	884,868604	139,073	0,297514	22,300000	51,415000
3,432998	891,758923	139,524	0,300422	22,300000	51,415000
3,441926	898,295181	139,977	0,303180	22,300000	51,415000
3,450905	905,113763	140,428	0,306058	22,300000	51,415000
3,459944	913,861171	140,880	0,309749	22,300000	51,415000
3,468893	920,116262	141,331	0,312389	22,300000	51,390000
3,477913	927,107246	141,781	0,315339	22,300000	51,390000
3,486925	931,237967	142,233	0,317082	22,300000	51,390000
3,495996	938,872279	142,684	0,320304	22,300000	51,390000
3,504958	943,919394	143,134	0,322434	22,310000	51,405000
3,513952	950,652353	143,585	0,325275	22,310000	51,405000
3,522897	959,368520	144,036	0,328953	22,310000	51,405000
3,531930	963,781565	144,486	0,330815	22,310000	51,405000
3,540875	970,325922	144,936	0,333577	22,310000	51,405000
3,549897	979,237633	145,387	0,337338	22,310000	51,405000
3,558989	983,783740	145,838	0,339256	22,310000	51,405000
3,567916	990,203134	146,288	0,341965	22,310000	51,405000
3,576881	997,264699	146,738	0,344945	22,310000	51,405000
3,585909	1005,573580	147,190	0,348452	22,310000	51,375000
3,594899	1010,919218	147,640	0,350708	22,310000	51,375000
3,603899	1016,092454	148,092	0,352891	22,310000	51,375000
3,612896	1022,927235	148,542	0,355775	22,310000	51,375000
3,621907	1031,548523	148,993	0,359413	22,310000	51,375000
3,630943	1036,007850	149,445	0,361295	22,310000	51,375000
3,639903	1044,206809	149,896	0,364755	22,310000	51,375000
3,648883	1049,042182	150,346	0,366795	22,310000	51,375000
3,651894	1052,906778	150,798	0,368426	22,310000	51,375000
3,651954	1052,655695	151,248	0,368320	22,310000	51,365000
3,651919	1052,099147	151,698	0,368085	22,310000	51,365000
3,651873	1051,652520	152,148	0,367897	22,310000	51,365000
3,651862	1051,261432	152,598	0,367732	22,310000	51,365000
3,651925	1050,954810	153,049	0,367603	22,320000	51,390000
3,651856	1050,931668	153,500	0,367593	22,320000	51,390000
3,651923	1050,202718	153,952	0,367285	22,320000	51,390000
3,651888	1050,132137	154,402	0,367255	22,320000	51,390000
3,651854	1049,990975	154,856	0,367196	22,320000	51,390000
3,651907	1049,803530	155,308	0,367117	22,320000	51,390000
3,651883	1049,857912	155,760	0,367140	22,320000	51,390000
3,651904	1049,262024	156,210	0,366888	22,320000	51,390000
3,651941	1049,278223	156,660	0,366895	22,320000	51,390000
3,651893	1049,105820	157,112	0,366822	22,310000	51,375000
3,651858	1048,948460	157,563	0,366756	22,310000	51,375000
3,651893	1048,831596	158,014	0,366707	22,310000	51,375000
3,651886	1048,595555	158,465	0,366607	22,310000	51,375000
3,651900	1048,423152	158,916	0,366534	22,310000	51,375000
3,651920	1048,329430	159,366	0,366495	22,310000	51,375000
3,651939	1048,266949	159,816	0,366468	22,310000	51,375000
3,651858	1048,157028	160,267	0,366422	22,310000	51,375000
3,648929	1047,679160	160,717	0,366220	22,310000	51,375000
3,639854	1040,342213	161,168	0,363124	22,310000	51,375000
3,630884	1030,545348	161,621	0,358990	22,310000	51,375000
3,621889	1024,501999	162,071	0,356439	22,310000	51,375000
3,612849	1018,975859	162,522	0,354107	22,310000	51,375000
3,603883	1011,718750	162,974	0,351045	22,310000	51,375000
3,594896	1004,734708	163,424	0,348098	22,310000	51,375000
3,585926	997,374620	163,874	0,344992	22,310000	51,375000
3,576905	988,196784	164,324	0,341119	22,310000	51,375000
3,567882	983,368354	164,776	0,339081	22,310000	51,375000
3,558923	974,033157	165,226	0,335142	22,310000	51,375000
3,549920	969,268365	165,676	0,333131	22,310000	51,375000
3,540986	961,156185	166,128	0,329708	22,310000	51,375000
3,531918	955,183418	166,578	0,327187	22,310000	51,375000
3,522975	948,120696	167,029	0,324207	22,300000	51,390000
3,513908	938,997242	167,480	0,320356	22,300000	51,390000
3,504919	934,043848	167,930	0,318266	22,300000	51,390000
3,495876	924,787332	168,381	0,314360	22,300000	51,390000
3,486963	918,046273	168,832	0,311515	22,300000	51,390000
3,477924	911,400094	169,282	0,308710	22,300000	51,390000
3,468945	906,517282	169,735	0,306650	22,300000	51,390000
3,459932	898,930410	170,187	0,303448	22,300000	51,390000
3,450913	892,862763	170,638	0,300888	22,300000	51,390000
3,441947	886,075422	171,090	0,298023	22,310000	51,375000
3,432876	876,991308	171,542	0,294190	22,310000	51,375000
3,423996	872,438259	171,992	0,292269	22,310000	51,375000
3,414913	865,477359	172,442	0,289331	22,310000	51,375000
3,405968	858,877462	172,892	0,286546	22,310000	51,375000
3,396984	851,737217	173,343	0,283533	22,300000	51,375000
3,387882	842,567480	173,795	0,279663	22,300000	51,375000
3,378975	835,755841	174,247	0,276789	22,300000	51,375000
3,369951	828,615595	174,697	0,273775	22,300000	51,375000
3,361030	824,782240	175,150	0,272158	22,310000	51,405000
3,351943	815,973508	175,601	0,268440	22,310000	51,405000
3,342981	808,894587	176,052	0,265453	22,310000	51,405000
3,333944	803,353405	176,504	0,263115	22,310000	51,405000
3,324992	795,068822	176,954	0,259619	22,310000	51,405000
3,315936	788,398345	177,404	0,256804	22,310000	51,405000
3,306965	781,469842	177,854	0,253880	22,310000	51,405000
3,297986	777,457142	178,305	0,252187	22,310000	51,405000
3,288983	769,062639	178,755	0,248644	22,310000	51,405000
3,279995	761,608829	179,207	0,245499	22,310000	51,365000
3,271004	757,195785	179,660	0,243636	22,310000	51,365000
3,261985	750,400344	180,111	0,240769	22,310000	51,365000
3,252939	743,432501	180,561	0,237828	22,310000	51,365000
3,244004	734,442110	181,013	0,234034	22,310000	51,405000
3,235005	730,483792	181,464	0,232364	22,310000	51,405000
3,225944	722,583355	181,916	0,229030	22,310000	51,405000
3,216994	714,446877	182,366	0,225596	22,310000	51,405000
3,208020	710,018791	182,818	0,223728	22,310000	51,405000
3,198995	703,717417	183,269	0,221068	22,300000	51,375000
3,189976	694,789507	183,720	0,217301	22,300000	51,375000
3,180982	687,744141	184,171	0,214328	22,300000	51,375000
3,172014	683,487300	184,621	0,212531	22,300000	51,375000
3,163034	674,654269	185,073	0,208804	22,310000	51,405000
3,153975	667,638987	185,523	0,205843	22,310000	51,405000
3,145044	662,403269	185,976	0,203634	22,310000	51,405000
3,135974	654,542173	186,426	0,200316	22,310000	51,405000
3,127005	649,784323	186,876	0,198309	22,310000	51,405000
3,118006	641,099396	187,326	0,194644	22,310000	51,405000
3,108978	636,341547	187,776	0,192636	22,310000	51,405000
3,099992	630,557381	188,226	0,190195	22,310000	51,405000
3,090985	623,275974	188,676	0,187122	22,310000	51,405000
3,082014	617,209484	189,126	0,184562	22,320000	51,390000
3,073041	610,162961	189,577	0,181588	22,320000	51,390000
3,063961	601,454893	190,028	0,177914	22,320000	51,390000
3,055000	594,573830	190,479	0,175010	22,320000	51,390000
3,046001	590,756674	190,931	0,173399	22,300000	51,390000
3,037024	583,803873	191,382	0,170465	22,300000	51,390000
3,028017	574,759099	191,832	0,166648	22,300000	51,390000
3,018985	568,206642	192,282	0,163883	22,300000	51,390000
3,010025	563,158370	192,732	0,161752	22,300000	51,390000
3,001047	555,195451	193,183	0,158392	22,300000	51,390000
2,992011	550,744224	193,634	0,156514	22,300000	51,390000
2,983049	544,763357	194,085	0,153990	22,300000	51,390000
2,973969	537,473850	194,535	0,150914	22,300000	51,390000
2,965053	529,212409	194,986	0,147427	22,300000	51,375000
2,956027	524,643161	195,436	0,145499	22,300000	51,375000
2,947066	516,123695	195,887	0,141904	22,300000	51,375000
2,938073	508,881628	196,338	0,138848	22,300000	51,375000
2,929049	504,161961	196,790	0,136856	22,300000	51,375000
2,920012	498,057289	197,240	0,134280	22,310000	51,415000
2,911090	490,948284	197,690	0,131280	22,310000	51,415000
2,902041	485,014857	198,140	0,128776	22,310000	51,415000
2,893058	476,196868	198,591	0,125055	22,310000	51,415000
2,884035	469,730034	199,042	0,122326	22,320000	51,405000
2,875027	465,419968	199,494	0,120507	22,320000	51,405000
2,866061	457,549615	199,945	0,117186	22,320000	51,405000
2,857044	452,157694	200,397	0,114910	22,320000	51,405000
2,848061	444,751324	200,848	0,111785	22,320000	51,405000
2,839068	436,497982	201,299	0,108302	22,300000	51,405000
2,830020	432,751407	201,750	0,106721	22,300000	51,405000
2,820986	426,112170	202,200	0,103919	22,300000	51,405000
2,812028	416,972517	202,651	0,100062	22,300000	51,405000
2,803028	412,881137	203,101	0,098335	22,310000	51,375000
2,794068	403,624620	203,552	0,094429	22,310000	51,375000
2,785127	398,201459	204,003	0,092141	22,310000	51,375000
2,776034	393,435510	204,454	0,090129	22,310000	51,375000
2,767098	385,495733	204,904	0,086779	22,310000	51,375000
2,758085	377,508516	205,356	0,083408	22,300000	51,415000
2,749068	373,095472	205,806	0,081546	22,300000	51,415000
2,740071	365,665960	206,258	0,078411	22,300000	51,415000
2,731088	360,116678	206,710	0,076069	22,300000	51,415000
2,722046	351,556715	207,161	0,072457	22,310000	51,375000
2,713066	344,628212	207,612	0,069533	22,310000	51,375000
2,704077	337,872112	208,062	0,066682	22,310000	51,375000
2,695030	331,147253	208,512	0,063844	22,310000	51,375000
2,686085	324,900261	208,965	0,061208	22,310000	51,375000
2,677097	319,147336	209,416	0,058780	22,310000	51,375000
2,668076	312,273215	209,867	0,055879	22,310000	51,375000
2,659095	307,664627	210,318	0,053934	22,310000	51,375000
2,650104	301,378295	210,769	0,051281	22,310000	51,375000
2,641068	292,725766	211,221	0,047630	22,300000	51,375000
2,632017	286,227692	211,672	0,044888	22,300000	51,375000
2,623019	281,807705	212,124	0,043022	22,300000	51,375000
2,614125	276,066351	212,575	0,040600	22,300000	51,375000
2,605076	268,937676	213,026	0,037591	22,310000	51,390000
2,596066	261,311463	213,477	0,034373	22,310000	51,390000
2,587051	253,920135	213,928	0,031254	22,310000	51,390000
2,578059	249,733875	214,378	0,029487	22,310000	51,390000
2,569037	243,706726	214,828	0,026944	22,310000	51,390000
2,560045	237,349813	215,278	0,024261	22,300000	51,350000
2,551052	228,423060	215,728	0,020494	22,300000	51,350000
2,542051	224,300439	216,180	0,018754	22,300000	51,350000
2,533079	216,219500	216,631	0,015344	22,300000	51,350000
2,524044	211,186269	217,081	0,013220	22,300000	51,350000
2,515048	205,260941	217,532	0,010720	22,300000	51,350000
2,506095	199,281231	217,984	0,008196	22,300000	51,350000
2,497128	192,540173	218,434	0,005352	22,300000	51,350000
2,488087	186,074496	218,886	0,002623	22,300000	51,350000
2,479025	179,545181	219,336	-0,000132	22,320000	51,405000
2,470066	170,993317	219,786	-0,003741	22,320000	51,405000
2,461097	166,683251	220,236	-0,005560	22,320000	51,405000
2,452139	160,592463	220,687	-0,008130	22,320000	51,405000
2,443047	154,087446	221,137	-0,010875	22,310000	51,390000
2,434051	145,182677	221,588	-0,014633	22,310000	51,390000
2,425123	141,570322	222,038	-0,016158	22,310000	51,390000
2,415985	132,673652	222,488	-0,019912	22,310000	51,390000
2,407052	126,089955	222,940	-0,022690	22,310000	51,390000
2,398062	119,874204	223,390	-0,025313	22,310000	51,390000
2,389126	115,634719	223,841	-0,027103	22,310000	51,390000
2,380140	109,113503	224,292	-0,029854	22,310000	51,390000
2,371014	102,858412	224,744	-0,032494	22,310000	51,390000
2,362006	96,274715	225,195	-0,035272	22,310000	51,390000
2,353090	88,945868	225,646	-0,038365	22,310000	51,390000
2,344067	84,102396	226,096	-0,040409	22,310000	51,390000
2,335072	75,479950	226,547	-0,044048	22,310000	51,390000
2,326111	71,216167	226,997	-0,045847	22,290000	51,390000
2,317125	62,672403	227,448	-0,049453	22,290000	51,390000
2,308110	57,241142	227,898	-0,051745	22,290000	51,390000
2,299067	52,452051	228,349	-0,053766	22,290000	51,390000
2,290043	43,681502	228,800	-0,057467	22,290000	51,390000
2,281120	39,959225	229,252	-0,059038	22,310000	51,390000
2,272071	31,351822	229,703	-0,062670	22,310000	51,390000
2,263013	25,145327	230,155	-0,065289	22,310000	51,390000
2,254149	19,940851	230,606	-0,067485	22,310000	51,390000
2,245043	12,996149	231,058	-0,070416	22,300000	51,405000
2,236104	8,983449	231,509	-0,072109	22,300000	51,405000
2,227005	2,743400	231,960	-0,074743	22,300000	51,405000
2,218056	-5,823506	232,411	-0,078358	22,300000	51,405000
2,209114	-11,693295	232,862	-0,080835	22,300000	51,405000
2,200078	-15,605330	233,313	-0,082486	22,320000	51,375000
2,191138	-22,824256	233,766	-0,085532	22,320000	51,375000
2,182005	-29,940203	234,217	-0,088535	22,320000	51,375000
2,173029	-35,771808	234,667	-0,090996	22,320000	51,375000
2,164096	-41,963261	235,117	-0,093609	22,300000	51,365000
2,155100	-45,726035	235,569	-0,095197	22,300000	51,365000
2,146120	-52,232209	236,020	-0,097942	22,300000	51,365000
2,137048	-60,351331	236,470	-0,101369	22,300000	51,365000
2,128079	-65,501426	236,921	-0,103542	22,300000	51,415000
2,119081	-70,830865	237,372	-0,105791	22,300000	51,415000
2,110029	-77,956069	237,822	-0,108798	22,300000	51,415000
2,101115	-84,963252	238,273	-0,111755	22,300000	51,415000
2,092097	-88,772308	238,724	-0,113362	22,300000	51,415000
2,083087	-97,181854	239,175	-0,116911	22,300000	51,375000
2,074091	-103,131480	239,626	-0,119422	22,300000	51,375000
2,065045	-109,260451	240,077	-0,122008	22,300000	51,375000
2,056074	-112,905204	240,528	-0,123546	22,300000	51,375000
2,047054	-120,570757	240,978	-0,126781	22,300000	51,375000
2,038083	-124,960660	241,428	-0,128634	22,300000	51,375000
2,029033	-130,784166	241,879	-0,131091	22,300000	51,375000
2,020110	-137,023058	242,330	-0,133724	22,300000	51,375000
2,011118	-143,685436	242,781	-0,136536	22,300000	51,375000
2,002041	-148,732551	243,231	-0,138666	22,300000	51,405000
1,993152	-154,963344	243,681	-0,141295	22,300000	51,405000
1,984090	-160,395762	244,133	-0,143587	22,300000	51,405000
1,975052	-166,697136	244,584	-0,146247	22,300000	51,405000
1,966079	-172,435019	245,036	-0,148668	22,310000	51,405000
1,957112	-177,803799	245,486	-0,150934	22,310000	51,405000
1,948098	-185,531833	245,936	-0,154195	22,310000	51,405000
1,939124	-192,162970	246,388	-0,156993	22,310000	51,405000
1,930133	-195,956985	246,840	-0,158594	22,310000	51,405000
1,921051	-204,241567	247,291	-0,162090	22,300000	51,390000
1,912114	-208,035582	247,741	-0,163691	22,300000	51,390000
1,903111	-215,332031	248,192	-0,166771	22,300000	51,390000
1,894099	-221,946969	248,644	-0,169562	22,300000	51,390000
1,885091	-227,386330	249,096	-0,171857	22,310000	51,390000
1,876124	-232,230959	249,548	-0,173902	22,310000	51,390000
1,867015	-236,980709	249,999	-0,175906	22,310000	51,390000
1,858110	-243,753008	250,449	-0,178764	22,310000	51,390000
1,849140	-248,164896	250,900	-0,180626	22,310000	51,390000
1,840051	-253,958318	251,352	-0,183071	22,320000	51,405000
1,831062	-262,509025	251,803	-0,186679	22,320000	51,405000
1,822097	-265,769633	252,254	-0,188055	22,320000	51,405000
1,813050	-272,760617	252,704	-0,191005	22,320000	51,405000
1,804049	-278,020633	253,155	-0,193225	22,320000	51,405000
1,795073	-286,187195	253,606	-0,196671	22,320000	51,405000
1,786124	-289,823848	254,056	-0,198206	22,320000	51,405000
1,777054	-295,279408	254,506	-0,200508	22,320000	51,405000
1,768097	-301,432677	254,958	-0,203105	22,310000	51,390000
1,759104	-306,323589	255,409	-0,205169	22,310000	51,390000
1,750084	-311,989735	255,859	-0,207560	22,310000	51,390000
1,741055	-317,084290	256,310	-0,209710	22,310000	51,390000
1,732135	-323,033916	256,760	-0,212221	22,310000	51,390000
1,723103	-329,538933	257,210	-0,214966	22,310000	51,375000
1,714129	-334,257442	257,660	-0,216957	22,310000	51,375000
1,705064	-340,896679	258,111	-0,219759	22,310000	51,375000
1,696113	-346,101155	258,562	-0,221955	22,310000	51,375000
1,687107	-352,174587	259,012	-0,224518	22,310000	51,390000
1,678126	-358,555798	259,463	-0,227211	22,310000	51,390000
1,669137	-363,893337	259,914	-0,229463	22,310000	51,390000
1,660074	-370,116030	260,364	-0,232089	22,310000	51,390000
1,651115	-375,924495	260,815	-0,234541	22,310000	51,390000
1,642065	-380,306298	261,267	-0,236390	22,310000	51,430000
1,633120	-386,967519	261,718	-0,239201	22,310000	51,430000
1,624139	-390,910795	262,169	-0,240865	22,310000	51,430000
1,615109	-398,239642	262,619	-0,243958	22,310000	51,430000
1,606121	-404,227451	263,069	-0,246484	22,310000	51,430000
1,597111	-408,083947	263,519	-0,248112	22,310000	51,430000
1,588130	-413,452727	263,969	-0,250377	22,310000	51,430000
1,579106	-418,602821	264,420	-0,252551	22,310000	51,430000
1,570115	-424,065323	264,870	-0,254856	22,310000	51,430000
1,561091	-431,197469	265,321	-0,257866	22,310000	51,405000
1,552153	-434,802882	265,773	-0,259387	22,310000	51,405000
1,543114	-442,625796	266,224	-0,262688	22,310000	51,405000
1,534090	-448,166978	266,674	-0,265027	22,310000	51,405000
1,525137	-451,309566	267,124	-0,266353	22,310000	51,405000
1,516116	-457,423495	267,576	-0,268933	22,310000	51,405000
1,507137	-463,184519	268,026	-0,271364	22,310000	51,405000
1,498109	-468,372797	268,476	-0,273554	22,310000	51,405000
1,489136	-473,969518	268,928	-0,275916	22,300000	51,365000
1,480157	-479,668061	269,379	-0,278320	22,300000	51,365000
1,471097	-484,723276	269,830	-0,280454	22,300000	51,365000
1,462095	-492,616771	270,281	-0,283785	22,300000	51,365000
1,453114	-498,016791	270,732	-0,286063	22,300000	51,365000
1,444145	-501,113096	271,183	-0,287370	22,300000	51,365000
1,435090	-505,917228	271,634	-0,289397	22,300000	51,365000
1,426136	-510,885664	272,084	-0,291494	22,300000	51,365000
1,417115	-518,128888	272,536	-0,294551	22,300000	51,365000
1,408116	-520,660545	272,987	-0,295619	22,300000	51,375000
1,399116	-527,165562	273,437	-0,298364	22,300000	51,375000
1,390128	-532,503101	273,888	-0,300617	22,300000	51,375000
1,381110	-535,999750	274,339	-0,302092	22,300000	51,375000
1,372097	-539,823848	274,790	-0,303706	22,300000	51,375000
1,363143	-545,107005	275,241	-0,305936	22,310000	51,430000
1,354170	-551,079773	275,691	-0,308456	22,310000	51,430000
1,345123	-555,029991	276,141	-0,310123	22,310000	51,430000
1,336106	-560,900937	276,593	-0,312601	22,310000	51,430000
1,327157	-566,292858	277,046	-0,314876	22,310000	51,430000
1,318160	-569,686528	277,497	-0,316308	22,310000	51,430000
1,309158	-573,684186	277,947	-0,317995	22,310000	51,430000
1,300140	-579,530833	278,397	-0,320462	22,310000	51,430000
1,291130	-582,728960	278,848	-0,321812	22,310000	51,430000
1,282086	-588,105839	279,298	-0,324081	22,310000	51,390000
1,273114	-594,062407	279,749	-0,326595	22,310000	51,390000
1,264084	-595,928753	280,199	-0,327382	22,310000	51,390000
1,255143	-601,391254	280,649	-0,329688	22,310000	51,390000
1,246179	-603,868530	281,100	-0,330733	22,310000	51,390000
1,237115	-609,668894	281,551	-0,333181	22,310000	51,390000
1,228101	-611,753925	282,002	-0,334061	22,310000	51,390000
1,219090	-616,197053	282,453	-0,335936	22,310000	51,390000
1,210114	-622,805049	282,906	-0,338724	22,310000	51,390000
1,201158	-625,031241	283,358	-0,339664	22,310000	51,405000
1,192145	-631,027149	283,808	-0,342194	22,310000	51,405000
1,183171	-632,633155	284,258	-0,342872	22,310000	51,405000
1,174130	-639,288590	284,710	-0,345680	22,310000	51,405000
1,165128	-640,761534	285,160	-0,346302	22,310000	51,405000
1,156085	-645,213918	285,610	-0,348181	22,310000	51,405000
1,147073	-650,009951	286,060	-0,350205	22,310000	51,405000
1,138093	-652,910712	286,511	-0,351429	22,310000	51,405000
1,129167	-658,005267	286,961	-0,353579	22,300000	51,390000
1,120151	-660,160878	287,413	-0,354488	22,300000	51,390000
1,111045	-664,314740	287,864	-0,356241	22,300000	51,390000
1,102111	-669,220694	288,314	-0,358312	22,300000	51,390000
1,093138	-670,765375	288,765	-0,358963	22,300000	51,390000
1,084067	-676,017291	289,216	-0,361180	22,300000	51,390000
1,075158	-677,357172	289,667	-0,361745	22,300000	51,390000
1,066083	-680,013792	290,118	-0,362866	22,300000	51,390000
1,057109	-683,338039	290,570	-0,364269	22,300000	51,390000
1,048138	-685,523734	291,022	-0,365191	22,310000	51,375000
1,039078	-687,703643	291,474	-0,366111	22,310000	51,375000
1,030135	-690,501426	291,926	-0,367292	22,310000	51,375000
1,021103	-693,134904	292,378	-0,368403	22,310000	51,375000
1,012108	-696,308733	292,828	-0,369743	22,310000	51,375000
1,003197	-698,347480	293,280	-0,370603	22,300000	51,415000
0,994152	-700,580615	293,731	-0,371545	22,300000	51,415000
0,985180	-700,933520	294,182	-0,371694	22,300000	51,415000
0,976105	-701,568748	294,632	-0,371962	22,300000	51,415000
0,967088	-700,471851	295,084	-0,371500	22,300000	51,415000
0,958085	-701,583790	295,536	-0,371969	22,300000	51,415000
0,949090	-700,925420	295,987	-0,371691	22,300000	51,415000
0,940106	-704,108505	296,438	-0,373034	22,300000	51,415000
0,931160	-701,976035	296,890	-0,372134	22,300000	51,415000
0,922158	-700,925420	297,341	-0,371691	22,300000	51,390000
0,913154	-702,289599	297,791	-0,372267	22,300000	51,390000
0,904130	-697,657870	298,242	-0,370312	22,300000	51,390000
0,895117	-685,907879	298,694	-0,365354	22,300000	51,390000
0,886103	-671,682927	299,145	-0,359351	22,310000	51,375000
0,877105	-588,826690	299,598	-0,324385	22,310000	51,375000
0,868089	-0,532250	300,048	-0,076125	22,310000	51,375000
0,859108	-0,015042	300,500	-0,075907	22,310000	51,375000
0,850264	-0,211743	300,951	-0,075990	22,300000	51,390000
0,841127	-0,179345	301,402	-0,075976	22,300000	51,390000
0,832166	0,008099	301,852	-0,075897	22,300000	51,390000
0,823112	0,016199	302,303	-0,075894	22,300000	51,390000
0,814131	0,039340	302,754	-0,075884	22,300000	51,390000
0,805132	-0,093722	303,206	-0,075940	22,310000	51,415000
0,796137	-0,187444	303,657	-0,075979	22,310000	51,415000
0,787147	-0,023141	304,108	-0,075910	22,310000	51,415000
0,778160	-0,015042	304,559	-0,075907	22,310000	51,415000
0,769092	-0,046283	305,011	-0,075920	22,310000	51,415000
0,760092	-0,006942	305,461	-0,075903	22,310000	51,415000
0,751141	0,102979	305,911	-0,075857	22,310000	51,415000
0,742146	0,039340	306,361	-0,075884	22,310000	51,415000
0,733160	0,385303	306,811	-0,075738	22,310000	51,415000
0,724101	-0,101822	307,262	-0,075943	22,310000	51,390000
0,715193	0,086780	307,712	-0,075864	22,310000	51,390000
0,706101	0,134219	308,163	-0,075844	22,310000	51,390000
0,697104	0,047440	308,615	-0,075880	22,310000	51,390000
0,688072	0,063639	309,066	-0,075874	22,310000	51,390000
0,679142	0,369104	309,516	-0,075745	22,310000	51,390000
0,670146	0,203643	309,966	-0,075814	22,310000	51,390000
0,661146	0,282324	310,417	-0,075781	22,310000	51,390000
0,652102	0,227942	310,867	-0,075804	22,310000	51,390000