File: Nanoindentation Datenauswertung/data/PDMS/12.09/EM-PDMS-125-10-125, 20nms,2,5um-3
Quasi static measurement routine
Tip parameters (shape,radius, material...)
12.09.2022

Piezo position[nm]	MEMS displ.[nm]	Time[ms]	Cap [pf]	Temp [°C]	Rh [%]
eoh
0,652159	-0,251083	0,200	-0,076042	22,310000	51,375000
0,658098	0,078680	0,501	-0,075903	22,310000	51,375000
0,664180	-0,070581	0,802	-0,075966	22,310000	51,375000
0,670097	-0,109921	1,102	-0,075983	22,310000	51,390000
0,676136	-0,164303	1,403	-0,076006	22,310000	51,390000
0,682152	-0,016199	1,703	-0,075943	22,310000	51,390000
0,688166	-0,195544	2,003	-0,076019	22,310000	51,390000
0,694124	-0,203643	2,303	-0,076022	22,310000	51,390000
0,700168	-0,054382	2,603	-0,075959	22,310000	51,390000
0,706143	-0,180502	2,903	-0,076013	22,310000	51,390000
0,712109	-0,195544	3,203	-0,076019	22,310000	51,390000
0,718141	-0,674569	3,504	-0,076221	22,310000	51,390000
0,724087	-0,211743	3,804	-0,076026	22,310000	51,390000
0,730133	-0,101822	4,105	-0,075979	22,310000	51,390000
0,736110	-0,211743	4,406	-0,076026	22,310000	51,390000
0,742079	-0,016199	4,707	-0,075943	22,310000	51,390000
0,748126	-0,109921	5,008	-0,075983	22,310000	51,405000
0,754120	-0,251083	5,308	-0,076042	22,310000	51,405000
0,760123	-0,259182	5,608	-0,076046	22,310000	51,405000
0,766075	-0,242984	5,909	-0,076039	22,310000	51,405000
0,772152	-0,101822	6,210	-0,075979	22,310000	51,405000
0,778128	-0,133062	6,510	-0,075993	22,310000	51,405000
0,784142	-0,093722	6,810	-0,075976	22,300000	51,390000
0,790168	-0,093722	7,110	-0,075976	22,300000	51,390000
0,796138	-0,203643	7,410	-0,076022	22,300000	51,390000
0,802098	-0,321664	7,712	-0,076072	22,300000	51,390000
0,808122	-0,242984	8,012	-0,076039	22,300000	51,390000
0,814132	-0,078680	8,312	-0,075970	22,300000	51,390000
0,820166	-0,548449	8,612	-0,076168	22,300000	51,390000
0,826146	-0,298523	8,912	-0,076063	22,300000	51,390000
0,832133	-0,133062	9,213	-0,075993	22,300000	51,390000
0,838193	-0,172403	9,513	-0,076009	22,300000	51,390000
0,844108	-0,477868	9,813	-0,076138	22,300000	51,390000
0,850110	-0,039340	10,114	-0,075953	22,300000	51,390000
0,856088	0,039340	10,416	-0,075920	22,300000	51,390000
0,862123	-0,203643	10,716	-0,076022	22,300000	51,390000
0,868109	-0,502166	11,018	-0,076148	22,300000	51,390000
0,874170	-0,298523	11,318	-0,076063	22,300000	51,390000
0,880125	-0,149261	11,619	-0,076000	22,300000	51,390000
0,886183	-0,078680	11,919	-0,075970	22,300000	51,390000
0,892084	-0,008099	12,220	-0,075940	22,300000	51,390000
0,898101	-0,251083	12,521	-0,076042	22,300000	51,390000
0,904176	-0,415386	12,821	-0,076112	22,300000	51,390000
0,910146	-0,109921	13,123	-0,075983	22,300000	51,390000
0,916151	-0,266125	13,423	-0,076049	22,300000	51,390000
0,922114	-0,384145	13,724	-0,076099	22,300000	51,390000
0,928084	-0,172403	14,024	-0,076009	22,300000	51,390000
0,934125	-0,070581	14,325	-0,075966	22,300000	51,390000
0,940110	-0,180502	14,625	-0,076013	22,300000	51,390000
0,946092	-0,274224	14,926	-0,076052	22,320000	51,390000
0,952145	-0,367947	15,226	-0,076092	22,320000	51,390000
0,958134	-0,219842	15,526	-0,076029	22,320000	51,390000
0,964131	-0,180502	15,826	-0,076013	22,320000	51,390000
0,970142	-0,164303	16,126	-0,076006	22,320000	51,390000
0,976141	-0,359847	16,426	-0,076088	22,320000	51,390000
0,982125	-0,039340	16,726	-0,075953	22,320000	51,390000
0,988177	-0,141162	17,027	-0,075996	22,300000	51,390000
0,994138	-0,313564	17,328	-0,076069	22,300000	51,390000
1,000114	-0,431585	17,628	-0,076119	22,300000	51,390000
1,006081	-0,195544	17,928	-0,076019	22,300000	51,390000
1,012114	-0,149261	18,228	-0,076000	22,300000	51,390000
1,018138	-0,195544	18,528	-0,076019	22,300000	51,390000
1,024086	-0,290423	18,829	-0,076059	22,310000	51,375000
1,030093	-0,431585	19,129	-0,076119	22,310000	51,375000
1,036130	-0,290423	19,429	-0,076059	22,310000	51,375000
1,042125	-0,242984	19,729	-0,076039	22,310000	51,375000
1,048147	-0,282324	20,029	-0,076056	22,310000	51,375000
1,054170	-0,431585	20,331	-0,076119	22,310000	51,375000
1,060108	-0,133062	20,631	-0,075993	22,310000	51,375000
1,066105	-0,195544	20,932	-0,076019	22,300000	51,405000
1,072045	-0,485967	21,232	-0,076142	22,300000	51,405000
1,078106	-0,407287	21,532	-0,076108	22,300000	51,405000
1,084119	-0,290423	21,832	-0,076059	22,300000	51,405000
1,090102	-0,344805	22,133	-0,076082	22,300000	51,405000
1,096099	-0,234884	22,433	-0,076036	22,300000	51,405000
1,102138	-0,274224	22,733	-0,076052	22,300000	51,405000
1,108116	-0,251083	23,033	-0,076042	22,310000	51,375000
1,114130	-0,219842	23,334	-0,076029	22,310000	51,375000
1,120108	-0,392245	23,635	-0,076102	22,310000	51,375000
1,126143	-0,469768	23,936	-0,076135	22,310000	51,375000
1,132165	-0,133062	24,236	-0,075993	22,310000	51,375000
1,138092	-0,298523	24,538	-0,076063	22,310000	51,375000
1,144179	-0,141162	24,839	-0,075996	22,320000	51,375000
1,150108	-0,266125	25,139	-0,076049	22,320000	51,375000
1,156100	-0,251083	25,440	-0,076042	22,320000	51,375000
1,162116	-0,164303	25,741	-0,076006	22,320000	51,375000
1,168114	-0,407287	26,042	-0,076108	22,320000	51,375000
1,174105	-0,359847	26,343	-0,076088	22,320000	51,375000
1,180100	-0,415386	26,644	-0,076112	22,320000	51,375000
1,186113	-0,008099	26,945	-0,075940	22,300000	51,405000
1,192089	-0,156204	27,245	-0,076002	22,300000	51,405000
1,198122	-0,313564	27,546	-0,076069	22,300000	51,405000
1,204114	-0,321664	27,846	-0,076072	22,300000	51,405000
1,210107	-0,180502	28,148	-0,076013	22,300000	51,405000
1,216082	-0,329763	28,450	-0,076076	22,300000	51,405000
1,222136	-0,234884	28,750	-0,076036	22,300000	51,405000
1,228113	-0,329763	29,050	-0,076076	22,300000	51,405000
1,234096	-0,392245	29,350	-0,076102	22,300000	51,405000
1,240119	-0,595888	29,650	-0,076188	22,300000	51,405000
1,246190	-0,344805	29,950	-0,076082	22,300000	51,405000
1,252086	-0,305465	30,250	-0,076065	22,300000	51,405000
1,258123	-0,376046	30,551	-0,076095	22,300000	51,405000
1,264115	-0,329763	30,851	-0,076076	22,300000	51,415000
1,270059	-0,438527	31,151	-0,076122	22,300000	51,415000
1,276145	-0,321664	31,452	-0,076072	22,300000	51,415000
1,282137	-0,203643	31,752	-0,076022	22,300000	51,415000
1,288129	-0,203643	32,052	-0,076022	22,300000	51,415000
1,294089	-0,399187	32,352	-0,076105	22,300000	51,415000
1,300110	-0,274224	32,652	-0,076052	22,300000	51,415000
1,306141	-0,203643	32,952	-0,076022	22,300000	51,415000
1,312119	-0,226785	33,253	-0,076032	22,300000	51,415000
1,318136	-0,226785	33,553	-0,076032	22,300000	51,415000
1,324131	-0,384145	33,853	-0,076099	22,300000	51,415000
1,330137	-0,290423	34,153	-0,076059	22,300000	51,415000
1,336028	-0,399187	34,453	-0,076105	22,300000	51,415000
1,342082	-0,336706	34,755	-0,076079	22,300000	51,415000
1,348122	-0,352905	35,055	-0,076085	22,300000	51,375000
1,354108	-0,226785	35,356	-0,076032	22,300000	51,375000
1,360073	-0,477868	35,656	-0,076138	22,300000	51,375000
1,366102	-0,359847	35,958	-0,076088	22,300000	51,375000
1,372105	-0,313564	36,258	-0,076069	22,300000	51,375000
1,378083	-0,093722	36,558	-0,075976	22,300000	51,375000
1,384067	-0,126120	36,860	-0,075990	22,310000	51,375000
1,390082	-0,172403	37,160	-0,076009	22,310000	51,375000
1,396107	-0,329763	37,460	-0,076076	22,310000	51,375000
1,402148	-0,658370	37,761	-0,076214	22,310000	51,375000
1,408132	-0,376046	38,061	-0,076095	22,310000	51,375000
1,414115	-0,502166	38,362	-0,076148	22,310000	51,375000
1,420131	-0,415386	38,662	-0,076112	22,310000	51,375000
1,426104	-0,274224	38,963	-0,076052	22,320000	51,375000
1,432138	-0,454726	39,263	-0,076128	22,320000	51,375000
1,438086	-0,525307	39,563	-0,076158	22,320000	51,375000
1,444154	-0,438527	39,864	-0,076122	22,320000	51,375000
1,450049	-0,533407	40,166	-0,076162	22,320000	51,375000
1,456166	-0,367947	40,466	-0,076092	22,320000	51,375000
1,462114	-0,438527	40,768	-0,076122	22,320000	51,375000
1,468129	-0,548449	41,070	-0,076168	22,320000	51,375000
1,474114	-0,469768	41,370	-0,076135	22,320000	51,375000
1,480056	-0,367947	41,671	-0,076092	22,320000	51,375000
1,486094	-0,392245	41,971	-0,076102	22,320000	51,375000
1,492119	-0,242984	42,273	-0,076039	22,320000	51,375000
1,498102	-0,556548	42,574	-0,076171	22,320000	51,375000
1,504094	-0,313564	42,876	-0,076069	22,310000	51,390000
1,510136	-0,367947	43,178	-0,076092	22,310000	51,390000
1,516117	-0,462826	43,478	-0,076132	22,310000	51,390000
1,522099	-0,446627	43,779	-0,076125	22,310000	51,390000
1,528138	-0,431585	44,079	-0,076119	22,310000	51,390000
1,534075	-0,298523	44,380	-0,076063	22,310000	51,390000
1,540103	-0,093722	44,680	-0,075976	22,310000	51,390000
1,546084	-0,548449	44,980	-0,076168	22,310000	51,375000
1,552052	-0,367947	45,281	-0,076092	22,310000	51,375000
1,558090	-0,336706	45,581	-0,076079	22,310000	51,375000
1,564116	-0,494067	45,882	-0,076145	22,310000	51,375000
1,570130	-0,438527	46,183	-0,076122	22,310000	51,375000
1,576107	-0,431585	46,483	-0,076119	22,310000	51,375000
1,582084	-0,446627	46,785	-0,076125	22,310000	51,375000
1,588087	-0,251083	47,086	-0,076042	22,310000	51,375000
1,594123	-0,517208	47,386	-0,076155	22,310000	51,375000
1,600114	-0,431585	47,686	-0,076119	22,310000	51,375000
1,606128	-0,525307	47,988	-0,076158	22,310000	51,375000
1,612174	-0,359847	48,288	-0,076088	22,310000	51,375000
1,618091	-0,579689	48,589	-0,076181	22,310000	51,375000
1,624131	-0,423486	48,889	-0,076115	22,310000	51,365000
1,630146	-0,454726	49,189	-0,076128	22,310000	51,365000
1,636089	-0,477868	49,489	-0,076138	22,310000	51,365000
1,642107	-0,579689	49,790	-0,076181	22,310000	51,365000
1,648064	-0,822673	50,090	-0,076284	22,310000	51,365000
1,654107	-0,502166	50,391	-0,076148	22,310000	51,365000
1,660117	-0,477868	50,691	-0,076138	22,310000	51,365000
1,666132	-0,494067	50,992	-0,076145	22,310000	51,365000
1,672108	-0,571590	51,292	-0,076178	22,310000	51,365000
1,678095	-0,658370	51,592	-0,076214	22,310000	51,365000
1,684126	-0,666469	51,892	-0,076218	22,310000	51,365000
1,690069	-0,674569	52,192	-0,076221	22,310000	51,365000
1,696098	-0,533407	52,493	-0,076162	22,310000	51,365000
1,702073	-0,627129	52,793	-0,076201	22,310000	51,365000
1,708069	-0,635228	53,093	-0,076205	22,310000	51,375000
1,714071	-0,619030	53,394	-0,076198	22,310000	51,375000
1,720106	-0,016199	53,694	-0,075943	22,310000	51,375000
1,726146	-0,830772	53,995	-0,076287	22,310000	51,375000
1,732091	-0,642171	54,296	-0,076208	22,310000	51,375000
1,738073	-0,720851	54,598	-0,076241	22,310000	51,375000
1,744153	-0,610930	54,898	-0,076194	22,310000	51,375000
1,750130	-0,752092	55,199	-0,076254	22,310000	51,375000
1,756093	-0,705809	55,499	-0,076234	22,310000	51,375000
1,762129	-0,603988	55,799	-0,076191	22,310000	51,375000
1,768123	-0,438527	56,100	-0,076122	22,310000	51,375000
1,774080	-0,242984	56,401	-0,076039	22,310000	51,375000
1,780068	-0,697710	56,701	-0,076231	22,310000	51,375000
1,786072	-0,768291	57,001	-0,076261	22,290000	51,390000
1,792099	-0,603988	57,301	-0,076191	22,290000	51,390000
1,798052	-0,791432	57,601	-0,076271	22,290000	51,390000
1,804111	-0,838872	57,901	-0,076291	22,290000	51,390000
1,810070	-0,830772	58,201	-0,076287	22,290000	51,390000
1,816115	-0,697710	58,501	-0,076231	22,290000	51,390000
1,822080	-0,737050	58,801	-0,076248	22,290000	51,390000
1,828098	-0,768291	59,101	-0,076261	22,290000	51,390000
1,834066	-0,603988	59,403	-0,076191	22,290000	51,390000
1,840105	-0,728951	59,704	-0,076244	22,290000	51,390000
1,846046	-0,980034	60,004	-0,076350	22,290000	51,390000
1,852119	-0,541506	60,304	-0,076165	22,290000	51,390000
1,858094	-0,705809	60,605	-0,076234	22,290000	51,390000
1,864116	-0,587789	60,905	-0,076185	22,290000	51,390000
1,870088	-0,814573	61,205	-0,076280	22,290000	51,390000
1,876119	-0,846971	61,505	-0,076294	22,290000	51,390000
1,882135	-156,116938	61,805	-0,141818	22,290000	51,390000
1,888111	-159,322006	62,105	-0,143170	22,290000	51,390000
1,894044	-158,006424	62,406	-0,142615	22,290000	51,390000
1,900106	-155,622871	62,706	-0,141609	22,290000	51,390000
1,906041	-153,036832	63,006	-0,140518	22,300000	51,375000
1,912065	-149,791266	63,308	-0,139148	22,300000	51,375000
1,918121	-148,474526	63,608	-0,138593	22,300000	51,375000
1,924072	-146,013450	63,908	-0,137554	22,300000	51,375000
1,930049	-142,588539	64,208	-0,136109	22,300000	51,375000
1,936039	-137,783249	64,508	-0,134081	22,300000	51,375000
1,942101	-135,988642	64,808	-0,133324	22,300000	51,375000
1,948126	-130,526140	65,108	-0,131019	22,310000	51,375000
1,954053	-129,585447	65,408	-0,130622	22,310000	51,375000
1,960117	-126,426661	65,708	-0,129289	22,310000	51,375000
1,966070	-122,688185	66,008	-0,127711	22,310000	51,375000
1,972126	-119,176494	66,309	-0,126229	22,310000	51,375000
1,978100	-116,127629	66,610	-0,124942	22,310000	51,375000
1,984124	-110,915053	66,911	-0,122743	22,310000	51,375000
1,990108	-108,720101	67,212	-0,121816	22,310000	51,375000
1,996086	-104,817323	67,513	-0,120169	22,310000	51,375000
2,002076	-98,962576	67,813	-0,117699	22,310000	51,375000
2,008059	-96,657703	68,114	-0,116726	22,310000	51,375000
2,014070	-91,390745	68,415	-0,114503	22,310000	51,375000
2,020064	-90,050865	68,717	-0,113938	22,310000	51,375000
2,026042	-86,499833	69,019	-0,112439	22,310000	51,405000
2,032043	-81,953727	69,320	-0,110521	22,310000	51,405000
2,038045	-77,446960	69,621	-0,108619	22,310000	51,405000
2,044044	-74,296273	69,922	-0,107290	22,310000	51,405000
2,050123	-70,181752	70,222	-0,105553	22,310000	51,405000
2,056045	-67,508933	70,522	-0,104425	22,310000	51,405000
2,062096	-62,719842	70,822	-0,102404	22,310000	51,375000
2,068036	-58,095055	71,122	-0,100453	22,310000	51,375000
2,074092	-52,953060	71,423	-0,098283	22,310000	51,375000
2,080104	-51,839964	71,725	-0,097813	22,310000	51,375000
2,086097	-47,662961	72,025	-0,096050	22,310000	51,375000
2,092086	-41,071164	72,326	-0,093269	22,310000	51,375000
2,098045	-39,926827	72,627	-0,092786	22,310000	51,375000
2,104069	-35,968509	72,928	-0,091115	22,310000	51,375000
2,110075	-29,447293	73,228	-0,088363	22,310000	51,375000
2,116076	-28,169894	73,528	-0,087824	22,310000	51,375000
2,122109	-24,047273	73,828	-0,086084	22,310000	51,375000
2,128036	-19,916553	74,128	-0,084341	22,310000	51,375000
2,134017	-13,858162	74,430	-0,081785	22,310000	51,375000
2,140030	-11,921236	74,730	-0,080967	22,310000	51,375000
2,146072	-6,192610	75,030	-0,078550	22,310000	51,365000
2,152052	-2,695960	75,330	-0,077074	22,310000	51,365000
2,158075	2,288674	75,630	-0,074971	22,310000	51,365000
2,164060	5,854747	75,931	-0,073466	22,310000	51,365000
2,170101	7,642412	76,231	-0,072711	22,310000	51,365000
2,176057	13,850063	76,531	-0,070092	22,310000	51,365000
2,182064	17,258775	76,833	-0,068653	22,300000	51,390000
2,188087	20,739225	77,134	-0,067185	22,300000	51,390000
2,194037	23,819331	77,435	-0,065885	22,300000	51,390000
2,200024	27,620288	77,736	-0,064281	22,300000	51,390000
2,206112	31,962752	78,038	-0,062448	22,300000	51,390000
2,212048	35,788007	78,340	-0,060834	22,300000	51,390000
2,218051	41,910036	78,640	-0,058250	22,300000	51,390000
2,224061	43,501000	78,941	-0,057579	22,300000	51,390000
2,230064	48,516875	79,241	-0,055462	22,300000	51,390000
2,236009	51,910545	79,541	-0,054030	22,300000	51,390000
2,242083	55,547199	79,841	-0,052496	22,300000	51,390000
2,248027	59,929003	80,142	-0,050646	22,300000	51,390000
2,254055	63,683677	80,443	-0,049062	22,300000	51,390000
2,260016	70,008192	80,743	-0,046393	22,300000	51,390000
2,266123	73,810306	81,044	-0,044789	22,290000	51,390000
2,272074	75,432511	81,345	-0,044104	22,290000	51,390000
2,278051	79,876796	81,645	-0,042229	22,290000	51,390000
2,284089	85,912045	81,947	-0,039682	22,290000	51,390000
2,290004	89,955985	82,247	-0,037975	22,290000	51,390000
2,296114	92,997908	82,548	-0,036691	22,290000	51,390000
2,302102	97,692119	82,848	-0,034710	22,310000	51,390000
2,308052	101,235051	83,150	-0,033215	22,310000	51,390000
2,314025	104,229534	83,450	-0,031952	22,310000	51,390000
2,320034	109,378471	83,751	-0,029779	22,310000	51,390000
2,326044	112,709660	84,051	-0,028373	22,310000	51,390000
2,332025	116,761700	84,352	-0,026663	22,310000	51,390000
2,338067	122,194118	84,653	-0,024371	22,310000	51,390000
2,344095	124,262950	84,953	-0,023498	22,310000	51,365000
2,350038	128,244409	85,253	-0,021817	22,310000	51,365000
2,356060	132,438768	85,554	-0,020047	22,310000	51,365000
2,362056	135,573256	85,855	-0,018725	22,310000	51,365000
2,368025	140,032583	86,156	-0,016843	22,310000	51,365000
2,374082	146,350156	86,457	-0,014177	22,310000	51,365000
2,380070	147,957318	86,757	-0,013499	22,310000	51,365000
2,386099	152,166719	87,058	-0,011722	22,300000	51,405000
2,392064	158,970259	87,359	-0,008851	22,300000	51,405000
2,398073	162,896179	87,660	-0,007194	22,300000	51,405000
2,404059	164,424661	87,961	-0,006549	22,300000	51,405000
2,410052	171,134479	88,261	-0,003718	22,300000	51,405000
2,416008	174,959734	88,561	-0,002104	22,300000	51,405000
2,422054	178,972434	88,862	-0,000410	22,310000	51,430000
2,428088	180,476618	89,162	0,000225	22,310000	51,430000
2,434028	184,741558	89,462	0,002024	22,310000	51,430000
2,440039	189,639412	89,763	0,004091	22,310000	51,430000
2,446074	193,707651	90,064	0,005808	22,310000	51,430000
2,452084	199,617937	90,364	0,008302	22,310000	51,430000
2,458040	202,430761	90,664	0,009489	22,310000	51,430000
2,464055	206,256017	90,964	0,011104	22,310000	51,415000
2,470047	210,386737	91,264	0,012847	22,310000	51,415000
2,476008	214,854164	91,564	0,014732	22,310000	51,415000
2,482068	217,903029	91,866	0,016019	22,310000	51,415000
2,488055	222,488476	92,166	0,017954	22,310000	51,415000
2,494045	225,725942	92,467	0,019320	22,310000	51,415000
2,500016	229,761784	92,768	0,021023	22,310000	51,415000
2,506051	234,558973	93,068	0,023047	22,310000	51,415000
2,512084	237,937602	93,368	0,024473	22,310000	51,415000
2,518094	242,388829	93,668	0,026352	22,310000	51,415000
2,524016	246,089122	93,968	0,027913	22,310000	51,415000
2,530005	250,226785	94,268	0,029659	22,310000	51,415000
2,536055	254,695368	94,568	0,031545	22,310000	51,415000
2,542061	258,590047	94,868	0,033188	22,310000	51,390000
2,548005	262,274141	95,168	0,034743	22,310000	51,390000
2,554129	266,843389	95,468	0,036671	22,310000	51,390000
2,560039	273,262783	95,769	0,039380	22,310000	51,390000
2,566083	275,019207	96,069	0,040122	22,310000	51,390000
2,572057	280,842713	96,370	0,042579	22,310000	51,390000
2,578002	283,154528	96,670	0,043555	22,310000	51,390000
2,584026	287,112846	96,970	0,045225	22,300000	51,405000
2,590038	291,705235	97,270	0,047163	22,300000	51,405000
2,596080	298,078347	97,571	0,049853	22,300000	51,405000
2,602046	299,677410	97,871	0,050527	22,300000	51,405000
2,608046	303,870612	98,172	0,052297	22,300000	51,405000
2,614019	310,188185	98,472	0,054963	22,300000	51,405000
2,620069	312,163294	98,772	0,055796	22,300000	51,405000
2,626061	316,583281	99,073	0,057662	22,300000	51,405000
2,632069	323,050115	99,375	0,060391	22,300000	51,405000
2,638070	327,407620	99,675	0,062229	22,300000	51,405000
2,644037	330,755008	99,976	0,063642	22,300000	51,405000
2,650069	335,112513	100,276	0,065481	22,300000	51,405000
2,656038	337,644170	100,577	0,066549	22,300000	51,405000
2,662050	341,625629	100,878	0,068229	22,310000	51,405000
2,668042	346,470259	101,178	0,070274	22,310000	51,405000
2,674053	350,811565	101,479	0,072106	22,310000	51,405000
2,680064	354,150853	101,780	0,073515	22,310000	51,405000
2,686010	358,163553	102,080	0,075208	22,310000	51,405000
2,692008	363,000083	102,380	0,077250	22,310000	51,405000
2,698046	366,715418	102,680	0,078817	22,310000	51,405000
2,704014	371,041682	102,980	0,080643	22,310000	51,405000
2,710047	374,725776	103,281	0,082198	22,310000	51,405000
2,716064	379,201301	103,581	0,084086	22,310000	51,405000
2,722026	382,555632	103,881	0,085502	22,310000	51,405000
2,728060	387,375963	104,181	0,087536	22,310000	51,405000
2,734031	391,436102	104,481	0,089250	22,310000	51,405000
2,740035	397,768717	104,782	0,091922	22,320000	51,405000
2,746046	399,618863	105,082	0,092703	22,320000	51,405000
2,752089	403,772725	105,382	0,094456	22,320000	51,405000
2,758020	408,374371	105,682	0,096397	22,320000	51,405000
2,764066	411,689361	105,983	0,097796	22,320000	51,405000
2,770026	416,181085	106,283	0,099692	22,320000	51,405000
2,776013	422,787924	106,584	0,102480	22,320000	51,405000
2,782040	424,410128	106,884	0,103165	22,310000	51,390000
2,788035	428,831272	107,184	0,105030	22,310000	51,390000
2,794016	435,305049	107,485	0,107762	22,310000	51,390000
2,800036	437,092713	107,786	0,108517	22,310000	51,390000
2,806028	443,809473	108,086	0,111351	22,310000	51,390000
2,812039	447,932094	108,386	0,113091	22,310000	51,390000
2,818070	450,009025	108,687	0,113967	22,310000	51,390000
2,824095	456,177336	108,987	0,116570	22,300000	51,405000
2,829988	460,660962	109,288	0,118462	22,300000	51,405000
2,836002	462,573589	109,589	0,119270	22,300000	51,405000
2,842062	469,111004	109,889	0,122028	22,300000	51,405000
2,848024	472,990642	110,190	0,123666	22,300000	51,405000
2,854032	477,669811	110,490	0,125640	22,300000	51,405000
2,860027	480,490734	110,790	0,126831	22,310000	51,405000
2,866035	485,162961	111,090	0,128802	22,310000	51,405000
2,872071	489,599147	111,390	0,130674	22,310000	51,405000
2,878004	494,168395	111,690	0,132603	22,310000	51,405000
2,884029	497,875629	111,990	0,134167	22,310000	51,405000
2,890042	500,462826	112,290	0,135259	22,310000	51,405000
2,896001	506,066490	112,590	0,137624	22,310000	51,405000
2,902015	511,513950	112,891	0,139922	22,310000	51,405000
2,908088	513,261117	113,191	0,140660	22,310000	51,405000
2,914009	518,740975	113,491	0,142972	22,310000	51,405000
2,920053	521,914803	113,791	0,144312	22,310000	51,405000
2,926009	528,593380	114,091	0,147130	22,310000	51,405000
2,932027	530,035082	114,392	0,147738	22,310000	51,405000
2,938005	535,623704	114,692	0,150097	22,310000	51,405000
2,944013	539,197877	114,993	0,151605	22,310000	51,350000
2,950006	543,382979	115,293	0,153371	22,310000	51,350000
2,956024	547,568082	115,594	0,155137	22,310000	51,350000
2,961973	551,558797	115,894	0,156821	22,310000	51,350000
2,967991	556,182427	116,194	0,158772	22,310000	51,350000
2,974015	562,828606	116,496	0,161577	22,310000	51,350000
2,980046	564,600072	116,797	0,162325	22,310000	51,350000
2,986059	569,452801	117,098	0,164373	22,310000	51,350000
2,992016	573,058214	117,398	0,165894	22,310000	51,350000
2,997990	579,681252	117,698	0,168689	22,310000	51,350000
3,003982	581,303456	117,998	0,169374	22,310000	51,350000
3,010061	586,099489	118,299	0,171397	22,310000	51,350000
3,016012	590,003425	118,602	0,173045	22,310000	51,350000
3,022053	596,304799	118,903	0,175704	22,310000	51,350000
3,028024	601,016366	119,203	0,177692	22,310000	51,350000
3,034052	605,145929	119,503	0,179435	22,310000	51,350000
3,040024	607,278399	119,803	0,180335	22,310000	51,350000
3,046000	611,706485	120,103	0,182204	22,310000	51,350000
3,052023	617,757933	120,405	0,184757	22,310000	51,350000
3,058029	620,586956	120,706	0,185951	22,310000	51,350000
3,063990	624,184269	121,006	0,187469	22,300000	51,365000
3,070005	631,207651	121,306	0,190433	22,300000	51,365000
3,076040	634,453218	121,607	0,191803	22,300000	51,365000
3,082005	638,034332	121,908	0,193314	22,300000	51,365000
3,088025	642,173152	122,208	0,195061	22,300000	51,365000
3,094028	648,177160	122,509	0,197594	22,300000	51,365000
3,099980	650,402196	122,810	0,198533	22,310000	51,365000
3,105976	654,525974	123,110	0,200273	22,310000	51,365000
3,112033	658,679836	123,410	0,202026	22,310000	51,365000
3,117982	665,608338	123,711	0,204950	22,310000	51,365000
3,124028	667,709568	124,011	0,205837	22,310000	51,365000
3,130053	674,347647	124,312	0,208638	22,310000	51,365000
3,135989	675,977951	124,612	0,209326	22,310000	51,365000
3,142007	682,758349	124,913	0,212188	22,320000	51,390000
3,147973	687,406278	125,214	0,214149	22,320000	51,390000
3,151004	689,302707	125,514	0,214949	22,320000	51,390000
3,151052	688,816739	125,815	0,214744	22,320000	51,390000
3,150932	688,275233	126,117	0,214516	22,320000	51,390000
3,150992	688,002166	126,417	0,214400	22,320000	51,390000
3,150982	687,782324	126,718	0,214308	22,320000	51,390000
3,151005	687,742984	127,019	0,214291	22,300000	51,405000
3,151007	687,406278	127,320	0,214149	22,300000	51,405000
3,151035	687,375037	127,620	0,214136	22,300000	51,405000
3,151001	686,974693	127,920	0,213967	22,300000	51,405000
3,151057	686,810390	128,221	0,213897	22,300000	51,405000
3,150933	686,504924	128,521	0,213769	22,300000	51,405000
3,150966	686,575505	128,821	0,213798	22,300000	51,405000
3,151043	686,158962	129,123	0,213623	22,300000	51,405000
3,151011	686,222601	129,423	0,213649	22,300000	51,405000
3,151020	685,885895	129,723	0,213507	22,300000	51,405000
3,151060	685,917136	130,023	0,213521	22,300000	51,405000
3,151012	685,885895	130,323	0,213507	22,300000	51,405000
3,150982	685,587372	130,624	0,213381	22,300000	51,405000
3,150991	685,406870	130,925	0,213305	22,310000	51,390000
3,151039	685,273808	131,225	0,213249	22,310000	51,390000
3,151012	685,124546	131,525	0,213186	22,310000	51,390000
3,150995	685,117604	131,825	0,213183	22,310000	51,390000
3,150994	684,795940	132,126	0,213047	22,310000	51,390000
3,151005	684,999583	132,426	0,213133	22,310000	51,390000
3,150996	684,505517	132,726	0,212925	22,310000	51,390000
3,150953	684,607339	133,028	0,212968	22,310000	51,390000
3,150997	684,670977	133,328	0,212995	22,310000	51,390000
3,150996	684,388653	133,628	0,212875	22,310000	51,390000
3,151049	684,505517	133,928	0,212925	22,310000	51,390000
3,151015	684,075089	134,228	0,212743	22,310000	51,390000
3,150984	684,145670	134,528	0,212773	22,310000	51,390000
3,150981	683,973267	134,828	0,212700	22,310000	51,390000
3,151013	684,176911	135,129	0,212786	22,310000	51,390000
3,150984	684,004508	135,430	0,212713	22,310000	51,390000
3,145072	681,622112	135,731	0,211708	22,310000	51,390000
3,139014	676,526400	136,033	0,209558	22,310000	51,390000
3,132976	670,671653	136,333	0,207087	22,310000	51,390000
3,127018	666,494650	136,634	0,205324	22,310000	51,390000
3,120959	662,300291	136,934	0,203554	22,300000	51,405000
3,115042	656,100739	137,235	0,200938	22,300000	51,405000
3,109037	652,206059	137,536	0,199294	22,300000	51,405000
3,103025	647,909879	137,837	0,197481	22,300000	51,405000
3,097016	643,404269	138,139	0,195580	22,300000	51,405000
3,091010	638,426577	138,440	0,193479	22,300000	51,405000
3,085048	634,123454	138,740	0,191664	22,300000	51,405000
3,079003	629,271882	139,040	0,189616	22,310000	51,375000
3,072976	622,241558	139,340	0,186649	22,310000	51,375000
3,066965	619,889246	139,640	0,185657	22,310000	51,375000
3,061047	615,367437	139,940	0,183749	22,310000	51,375000
3,055058	611,040016	140,241	0,181922	22,310000	51,375000
3,048969	603,830347	140,541	0,178880	22,310000	51,375000
3,042989	601,509275	140,841	0,177900	22,310000	51,390000
3,036991	597,183011	141,141	0,176075	22,310000	51,390000
3,030990	592,370779	141,442	0,174044	22,310000	51,390000
3,025051	585,324256	141,742	0,171070	22,310000	51,390000
3,019035	583,199885	142,042	0,170174	22,310000	51,390000
3,013053	576,067739	142,342	0,167164	22,310000	51,390000
3,007025	571,451052	142,644	0,165216	22,310000	51,390000
3,000928	569,397262	142,944	0,164349	22,310000	51,390000
2,995012	565,039757	143,245	0,162510	22,310000	51,390000
2,989003	558,001333	143,545	0,159540	22,310000	51,390000
2,983039	555,900104	143,847	0,158653	22,310000	51,390000
2,977034	549,120862	144,148	0,155792	22,310000	51,390000
2,970992	544,456735	144,448	0,153824	22,310000	51,390000
2,964999	541,094305	144,749	0,152405	22,290000	51,405000
2,958981	537,528232	145,050	0,150900	22,290000	51,405000
2,953001	532,354997	145,350	0,148717	22,290000	51,405000
2,947031	527,339122	145,650	0,146601	22,290000	51,405000
2,941040	523,247741	145,951	0,144874	22,290000	51,405000
2,935018	519,085780	146,252	0,143118	22,290000	51,405000
2,929068	515,017541	146,552	0,141401	22,290000	51,405000
2,923083	510,189111	146,852	0,139363	22,320000	51,405000
2,917044	506,137070	147,153	0,137653	22,320000	51,405000
2,910983	501,669644	147,453	0,135768	22,320000	51,405000
2,905038	494,521299	147,753	0,132751	22,320000	51,405000
2,899061	492,757933	148,054	0,132007	22,320000	51,405000
2,893013	485,765792	148,354	0,129057	22,320000	51,405000
2,887054	483,696960	148,654	0,128184	22,320000	51,405000
2,881047	479,057131	148,955	0,126226	22,310000	51,375000
2,875021	472,230450	149,255	0,123345	22,310000	51,375000
2,869014	470,263440	149,555	0,122515	22,310000	51,375000
2,863027	463,161378	149,855	0,119518	22,310000	51,375000
2,857058	461,468593	150,155	0,118803	22,310000	51,375000
2,851032	454,312148	150,456	0,115783	22,310000	51,375000
2,845084	449,703560	150,756	0,113838	22,310000	51,405000
2,839015	447,587289	151,057	0,112945	22,310000	51,405000
2,833028	441,512700	151,357	0,110382	22,310000	51,405000
2,827071	436,332522	151,658	0,108196	22,310000	51,405000
2,820972	434,819081	151,958	0,107557	22,310000	51,405000
2,815027	427,749417	152,258	0,104574	22,310000	51,405000
2,809032	425,327681	152,558	0,103552	22,310000	51,405000
2,803025	418,602821	152,858	0,100714	22,310000	51,405000
2,797089	416,760775	153,158	0,099937	22,310000	51,405000
2,791013	409,807974	153,459	0,097002	22,310000	51,405000
2,785013	407,911545	153,760	0,096202	22,310000	51,405000
2,779042	401,485208	154,060	0,093490	22,310000	51,405000
2,773058	397,134645	154,361	0,091654	22,310000	51,405000
2,767017	392,870862	154,661	0,089855	22,310000	51,405000
2,761042	390,432927	154,962	0,088826	22,310000	51,365000
2,755019	385,095388	155,263	0,086574	22,310000	51,365000
2,749031	380,040173	155,563	0,084440	22,310000	51,365000
2,743027	376,316739	155,864	0,082869	22,310000	51,365000
2,737096	372,092297	156,165	0,081086	22,310000	51,365000
2,731025	368,385062	156,466	0,079522	22,310000	51,365000
2,725004	363,783416	156,767	0,077580	22,310000	51,365000
2,718988	359,527733	157,068	0,075784	22,310000	51,365000
2,713065	352,802873	157,369	0,072946	22,310000	51,365000
2,707066	350,906444	157,670	0,072146	22,310000	51,365000
2,701087	346,595222	157,970	0,070327	22,310000	51,365000
2,695054	342,300198	158,271	0,068514	22,310000	51,365000
2,689068	335,903945	158,572	0,065815	22,310000	51,365000
2,683087	330,801290	158,872	0,063662	22,320000	51,350000
2,677088	329,037924	159,173	0,062917	22,320000	51,350000
2,671064	322,258683	159,473	0,060057	22,320000	51,350000
2,665070	317,829439	159,774	0,058188	22,320000	51,350000
2,659122	315,949209	160,074	0,057394	22,320000	51,350000
2,653068	310,682252	160,374	0,055171	22,320000	51,350000
2,647050	305,116771	160,675	0,052823	22,320000	51,350000
2,641040	303,133562	160,975	0,051986	22,310000	51,365000
2,635080	296,196960	161,275	0,049059	22,310000	51,365000
2,629095	292,466584	161,576	0,047484	22,310000	51,365000
2,623014	288,460826	161,877	0,045794	22,310000	51,365000
2,617085	285,771808	162,178	0,044659	22,310000	51,365000
2,611102	281,163220	162,479	0,042714	22,310000	51,365000
2,605091	276,720092	162,780	0,040839	22,310000	51,365000
2,599072	271,867363	163,080	0,038792	22,310000	51,365000
2,593068	267,345555	163,380	0,036883	22,310000	51,365000
2,587029	263,254175	163,680	0,035157	22,310000	51,365000
2,581019	259,868604	163,980	0,033728	22,310000	51,365000
2,575035	254,538007	164,280	0,031479	22,310000	51,365000
2,569047	251,324839	164,581	0,030123	22,310000	51,365000
2,563064	244,505100	164,882	0,027245	22,320000	51,375000
2,557078	242,984717	165,182	0,026603	22,320000	51,375000
2,551072	238,234967	165,482	0,024599	22,320000	51,375000
2,545088	231,620029	165,782	0,021807	22,320000	51,375000
2,539112	229,997825	166,082	0,021123	22,320000	51,375000
2,533068	223,272965	166,382	0,018285	22,320000	51,375000
2,527098	221,344139	166,682	0,017471	22,320000	51,375000
2,521090	217,041016	166,983	0,015655	22,310000	51,405000
2,515139	212,769133	167,283	0,013852	22,310000	51,405000
2,509105	208,419727	167,583	0,012017	22,310000	51,405000
2,503077	201,875370	167,883	0,009255	22,310000	51,405000
2,497063	197,532907	168,183	0,007422	22,310000	51,405000
2,491119	192,916219	168,483	0,005474	22,310000	51,405000
2,485063	191,230376	168,783	0,004763	22,300000	51,375000
2,479058	187,076514	169,085	0,003010	22,300000	51,375000
2,473100	180,484717	169,386	0,000228	22,300000	51,375000
2,467054	178,815073	169,688	-0,000477	22,300000	51,375000
2,461033	174,442526	169,988	-0,002322	22,300000	51,375000
2,455091	167,936352	170,289	-0,005067	22,300000	51,375000
2,449114	163,899354	170,589	-0,006771	22,300000	51,375000
2,443070	161,979784	170,889	-0,007581	22,310000	51,375000
2,437009	157,488059	171,190	-0,009477	22,310000	51,375000
2,431092	151,029325	171,490	-0,012202	22,310000	51,375000
2,425101	147,416969	171,791	-0,013727	22,310000	51,375000
2,419086	144,493067	172,092	-0,014960	22,310000	51,375000
2,413081	138,896346	172,392	-0,017322	22,310000	51,375000
2,407109	135,620696	172,693	-0,018705	22,310000	51,375000
2,401023	130,416219	172,994	-0,020901	22,310000	51,375000
2,395085	127,336113	173,295	-0,022201	22,310000	51,375000
2,389109	123,275974	173,595	-0,023914	22,310000	51,375000
2,383054	119,160295	173,896	-0,025651	22,310000	51,375000
2,377058	114,607246	174,196	-0,027572	22,310000	51,375000
2,371095	110,194202	174,496	-0,029435	22,310000	51,375000
2,365044	106,188444	174,796	-0,031125	22,310000	51,375000
2,359067	102,073923	175,096	-0,032861	22,310000	51,375000
2,353073	98,202384	175,396	-0,034495	22,310000	51,375000
2,347042	93,695618	175,696	-0,036397	22,310000	51,375000
2,341060	90,057807	175,996	-0,037932	22,310000	51,375000
2,335099	85,308057	176,297	-0,039937	22,310000	51,375000
2,329106	81,961826	176,598	-0,041349	22,310000	51,375000
2,323105	74,836622	176,900	-0,044355	22,300000	51,350000
2,317103	72,917052	177,200	-0,045166	22,300000	51,350000
2,311146	66,215334	177,500	-0,047994	22,300000	51,350000
2,305122	64,537591	177,801	-0,048702	22,300000	51,350000
2,299095	58,213076	178,102	-0,051371	22,300000	51,350000
2,293086	56,597814	178,404	-0,052052	22,300000	51,350000
2,287098	51,158453	178,705	-0,054348	22,300000	51,350000
2,281059	48,148928	179,006	-0,055618	22,310000	51,390000
2,275102	44,205652	179,306	-0,057282	22,310000	51,390000
2,269033	39,464001	179,606	-0,059283	22,310000	51,390000
2,263097	34,330106	179,907	-0,061449	22,310000	51,390000
2,257084	30,944535	180,208	-0,062878	22,310000	51,390000
2,251048	26,672653	180,509	-0,064681	22,310000	51,390000
2,245088	22,628712	180,810	-0,066387	22,310000	51,365000
2,239126	18,865938	181,110	-0,067975	22,310000	51,365000
2,233089	12,399104	181,410	-0,070704	22,310000	51,365000
2,227029	9,993567	181,710	-0,071719	22,310000	51,365000
2,221066	6,215751	182,010	-0,073313	22,310000	51,365000
2,215074	-0,188602	182,310	-0,076016	22,310000	51,365000
2,209093	-1,920727	182,610	-0,076747	22,310000	51,365000
2,203111	-5,784166	182,911	-0,078377	22,300000	51,365000
2,197093	-9,868604	183,211	-0,080101	22,300000	51,365000
2,191069	-14,061806	183,512	-0,081871	22,300000	51,365000
2,185068	-18,074506	183,812	-0,083564	22,300000	51,365000
2,179083	-22,400770	184,114	-0,085390	22,300000	51,365000
2,173116	-28,733385	184,414	-0,088062	22,300000	51,365000
2,167113	-30,998917	184,715	-0,089018	22,300000	51,365000
2,161086	-34,683011	185,017	-0,090573	22,310000	51,365000
2,155066	-40,765699	185,318	-0,093140	22,310000	51,365000
2,149096	-44,880221	185,618	-0,094876	22,310000	51,365000
2,143082	-46,776650	185,919	-0,095676	22,310000	51,365000
2,137051	-52,568915	186,220	-0,098121	22,310000	51,365000
2,131141	-55,249833	186,522	-0,099252	22,310000	51,365000
2,125088	-60,791016	186,823	-0,101590	22,310000	51,390000
2,119102	-63,071590	187,124	-0,102553	22,310000	51,390000
2,113090	-69,632146	187,426	-0,105321	22,310000	51,390000
2,107083	-71,513533	187,726	-0,106115	22,310000	51,390000
2,101113	-75,698636	188,026	-0,107881	22,310000	51,390000
2,095086	-79,320248	188,328	-0,109410	22,310000	51,390000
2,089080	-83,224184	188,629	-0,111057	22,310000	51,390000
2,083063	-89,862263	188,929	-0,113858	22,310000	51,365000
2,077090	-93,405195	189,229	-0,115354	22,310000	51,365000
2,071117	-95,583947	189,529	-0,116273	22,310000	51,365000
2,065096	-99,409203	189,830	-0,117887	22,310000	51,365000
2,059140	-103,720425	190,131	-0,119707	22,310000	51,365000
2,053144	-110,507766	190,433	-0,122571	22,310000	51,365000
2,047127	-111,895087	190,733	-0,123156	22,310000	51,365000
2,041077	-118,636145	191,033	-0,126001	22,310000	51,365000
2,035108	-122,852488	191,333	-0,127780	22,310000	51,365000
2,029087	-126,630304	191,634	-0,129375	22,310000	51,365000
2,023074	-128,409869	191,934	-0,130125	22,310000	51,365000
2,017086	-134,946127	192,234	-0,132884	22,310000	51,365000
2,011088	-139,570914	192,534	-0,134835	22,310000	51,365000
2,005081	-141,444202	192,834	-0,135626	22,310000	51,365000
1,999092	-147,259608	193,134	-0,138080	22,310000	51,365000
1,993075	-151,068665	193,434	-0,139687	22,310000	51,365000
1,987090	-154,854580	193,735	-0,141285	22,310000	51,365000
1,981097	-159,173902	194,036	-0,143108	22,310000	51,365000
1,975083	-162,621955	194,337	-0,144563	22,310000	51,365000
1,969107	-165,302873	194,637	-0,145694	22,310000	51,365000
1,963071	-171,353164	194,937	-0,148248	22,310000	51,390000
1,957080	-175,233958	195,239	-0,149885	22,310000	51,390000
1,951103	-177,420811	195,540	-0,150808	22,310000	51,390000
1,945120	-183,283657	195,843	-0,153282	22,310000	51,390000
1,939120	-187,233875	196,143	-0,154949	22,310000	51,390000
1,933181	-189,044681	196,443	-0,155713	22,310000	51,390000
1,927189	-192,617697	196,744	-0,157221	22,310000	51,390000
1,921124	-197,273724	197,045	-0,159186	22,310000	51,350000
1,915144	-203,325172	197,346	-0,161740	22,310000	51,350000
1,909120	-205,354663	197,646	-0,162596	22,310000	51,350000
1,903122	-209,132479	197,946	-0,164190	22,310000	51,350000
1,897117	-212,973934	198,246	-0,165812	22,310000	51,350000
1,891116	-218,969842	198,548	-0,168342	22,310000	51,350000
1,885083	-222,880721	198,849	-0,169992	22,320000	51,390000
1,879100	-226,885321	199,150	-0,171682	22,320000	51,390000
1,873067	-231,017199	199,450	-0,173426	22,320000	51,390000
1,867103	-234,652695	199,751	-0,174960	22,320000	51,390000
1,861123	-237,271133	200,051	-0,176065	22,320000	51,390000
1,855117	-240,367437	200,352	-0,177372	22,320000	51,390000
1,849093	-246,135404	200,652	-0,179806	22,320000	51,390000
1,843096	-250,682668	200,953	-0,181725	22,310000	51,405000
1,837079	-253,331189	201,256	-0,182842	22,310000	51,405000
1,831097	-258,284582	201,558	-0,184933	22,310000	51,405000
1,825163	-260,165969	201,858	-0,185727	22,310000	51,405000
1,819105	-266,624704	202,158	-0,188452	22,310000	51,405000
1,813139	-270,448802	202,459	-0,190066	22,310000	51,405000
1,807075	-272,392671	202,760	-0,190886	22,310000	51,405000
1,801055	-275,818739	203,061	-0,192332	22,310000	51,405000
1,795161	-281,735967	203,363	-0,194829	22,310000	51,405000
1,789145	-284,777890	203,663	-0,196113	22,310000	51,405000
1,783145	-289,291599	203,963	-0,198018	22,310000	51,405000
1,777043	-290,851322	204,264	-0,198676	22,310000	51,405000
1,771056	-294,496075	204,564	-0,200214	22,310000	51,405000
1,765126	-300,358921	204,865	-0,202688	22,310000	51,375000
1,759148	-302,122288	205,166	-0,203432	22,310000	51,375000
1,753106	-308,213076	205,466	-0,206002	22,310000	51,375000
1,747081	-311,927253	205,767	-0,207570	22,310000	51,375000
1,741112	-315,478284	206,069	-0,209068	22,310000	51,375000
1,735148	-319,060556	206,370	-0,210580	22,310000	51,375000
1,729107	-323,802207	206,670	-0,212581	22,310000	51,375000
1,723084	-328,497575	206,970	-0,214563	22,310000	51,405000
1,717070	-329,830513	207,270	-0,215125	22,310000	51,405000
1,711079	-334,414803	207,570	-0,217060	22,310000	51,405000
1,705117	-337,291266	207,871	-0,218273	22,310000	51,405000
1,699082	-341,461326	208,172	-0,220033	22,310000	51,405000
1,693090	-345,623288	208,473	-0,221790	22,310000	51,405000
1,687125	-349,542265	208,774	-0,223443	22,310000	51,375000
1,681156	-352,858412	209,075	-0,224843	22,310000	51,375000
1,675150	-358,470176	209,376	-0,227211	22,310000	51,375000
1,669090	-359,793857	209,676	-0,227770	22,310000	51,375000
1,663083	-363,760275	209,976	-0,229443	22,310000	51,375000
1,657101	-369,795524	210,277	-0,231990	22,310000	51,375000
1,651094	-371,543848	210,578	-0,232728	22,310000	51,375000
1,645077	-375,156204	210,879	-0,234252	22,310000	51,390000
1,639096	-379,757850	211,179	-0,236194	22,310000	51,390000
1,633124	-385,425152	211,479	-0,238586	22,310000	51,390000
1,627123	-387,791349	211,779	-0,239584	22,310000	51,390000
1,621142	-390,574089	212,080	-0,240759	22,310000	51,390000
1,615162	-394,586789	212,380	-0,242452	22,310000	51,390000
1,609129	-400,873121	212,680	-0,245105	22,310000	51,390000
1,603127	-405,003841	212,981	-0,246848	22,300000	51,375000
1,597106	-407,755341	213,281	-0,248009	22,300000	51,375000
1,591136	-410,052114	213,583	-0,248979	22,300000	51,375000
1,585081	-415,177910	213,883	-0,251142	22,300000	51,375000
1,579129	-416,854497	214,183	-0,251849	22,300000	51,375000
1,573127	-421,604247	214,483	-0,253854	22,300000	51,375000
1,567168	-424,363846	214,784	-0,255018	22,320000	51,415000
1,561069	-429,184177	215,085	-0,257052	22,320000	51,415000
1,555178	-431,487892	215,386	-0,258024	22,320000	51,415000
1,549182	-437,312556	215,687	-0,260482	22,320000	51,415000
1,543077	-438,495076	215,987	-0,260981	22,320000	51,415000
1,537166	-441,606422	216,287	-0,262294	22,320000	51,415000
1,531162	-447,046940	216,588	-0,264590	22,320000	51,415000
1,525166	-448,825348	216,889	-0,265341	22,310000	51,365000
1,519184	-454,453310	217,190	-0,267716	22,310000	51,365000
1,513127	-455,778149	217,490	-0,268275	22,310000	51,365000
1,507152	-460,928243	217,791	-0,270448	22,310000	51,365000
1,501163	-465,050865	218,091	-0,272188	22,310000	51,365000
1,495132	-468,405195	218,392	-0,273604	22,310000	51,365000
1,489096	-469,424569	218,692	-0,274034	22,310000	51,365000
1,483157	-475,051374	218,992	-0,276408	22,300000	51,365000
1,477144	-478,241401	219,293	-0,277754	22,300000	51,365000
1,471077	-479,691203	219,593	-0,278366	22,300000	51,365000
1,465145	-483,312815	219,893	-0,279895	22,300000	51,365000
1,459121	-486,698386	220,193	-0,281323	22,300000	51,365000
1,453126	-491,676077	220,494	-0,283424	22,300000	51,365000
1,447120	-495,015366	220,795	-0,284833	22,310000	51,405000
1,441168	-496,448969	221,096	-0,285438	22,310000	51,405000
1,435152	-501,904528	221,397	-0,287740	22,310000	51,405000
1,429158	-503,190027	221,697	-0,288283	22,310000	51,405000
1,423129	-508,865429	221,998	-0,290678	22,310000	51,405000
1,417176	-511,388987	222,298	-0,291743	22,310000	51,405000
1,411118	-514,390412	222,598	-0,293009	22,310000	51,405000
1,405097	-517,823423	222,898	-0,294458	22,310000	51,405000
1,399187	-520,159536	223,198	-0,295444	22,310000	51,405000
1,393158	-523,004758	223,498	-0,296645	22,310000	51,405000
1,387170	-528,122454	223,798	-0,298804	22,310000	51,405000
1,381080	-530,747834	224,098	-0,299912	22,310000	51,405000
1,375145	-534,338205	224,398	-0,301427	22,310000	51,405000
1,369138	-535,991651	224,698	-0,302125	22,310000	51,405000
1,363176	-539,276557	225,000	-0,303511	22,300000	51,340000
1,357114	-544,597897	225,301	-0,305757	22,300000	51,340000
1,351096	-547,365595	225,602	-0,306925	22,300000	51,340000
1,345129	-548,273891	225,902	-0,307308	22,300000	51,340000
1,339075	-551,048532	226,202	-0,308479	22,300000	51,340000
1,333121	-554,215418	226,502	-0,309815	22,300000	51,340000
1,327153	-557,679669	226,802	-0,311277	22,310000	51,375000
1,321138	-560,728534	227,102	-0,312564	22,310000	51,375000
1,315152	-565,463242	227,402	-0,314562	22,310000	51,375000
1,309108	-566,543941	227,702	-0,315018	22,310000	51,375000
1,303112	-569,484042	228,003	-0,316259	22,310000	51,375000
1,297106	-572,454227	228,304	-0,317512	22,310000	51,375000
1,291115	-576,459984	228,605	-0,319203	22,310000	51,375000
1,285133	-578,302031	228,906	-0,319980	22,310000	51,375000
1,279100	-580,636987	229,206	-0,320965	22,310000	51,375000
1,273115	-584,038757	229,507	-0,322401	22,310000	51,375000
1,267192	-588,765366	229,808	-0,324396	22,310000	51,375000
1,261090	-592,590621	230,110	-0,326010	22,310000	51,375000
1,255119	-595,858172	230,410	-0,327389	22,310000	51,375000
1,249080	-596,744483	230,710	-0,327763	22,300000	51,390000
1,243128	-600,474859	231,011	-0,329337	22,300000	51,390000
1,237166	-605,037165	231,312	-0,331262	22,300000	51,390000
1,231133	-608,297773	231,612	-0,332638	22,300000	51,390000
1,225134	-611,519041	231,912	-0,333998	22,300000	51,390000
1,219142	-612,976942	232,212	-0,334613	22,300000	51,390000
1,213149	-617,546190	232,513	-0,336541	22,300000	51,390000
1,207168	-619,936685	232,814	-0,337550	22,320000	51,390000
1,201160	-622,492641	233,115	-0,338628	22,320000	51,390000
1,195099	-625,070581	233,415	-0,339716	22,320000	51,390000
1,189132	-627,938944	233,718	-0,340927	22,320000	51,390000
1,183131	-629,843472	234,019	-0,341730	22,320000	51,390000
1,177161	-633,543765	234,320	-0,343292	22,320000	51,390000
1,171149	-633,214001	234,620	-0,343153	22,320000	51,390000
1,165138	-638,073673	234,920	-0,345204	22,300000	51,375000
1,159166	-640,206143	235,220	-0,346104	22,300000	51,375000
1,153165	-640,825172	235,522	-0,346365	22,300000	51,375000
1,147130	-643,128888	235,822	-0,347337	22,300000	51,375000
1,141121	-647,354488	236,122	-0,349120	22,300000	51,375000
1,135146	-646,688018	236,422	-0,348839	22,300000	51,375000
1,129172	-649,054215	236,722	-0,349837	22,300000	51,390000
1,123121	-651,516449	237,022	-0,350876	22,300000	51,390000
1,117167	-654,063148	237,323	-0,351951	22,300000	51,390000
1,111158	-659,024641	237,623	-0,354045	22,300000	51,390000
1,105221	-659,080180	237,923	-0,354068	22,300000	51,390000
1,099105	-661,525057	238,223	-0,355100	22,300000	51,390000
1,093166	-663,610088	238,524	-0,355980	22,300000	51,390000
1,087124	-667,748908	238,826	-0,357727	22,310000	51,365000
1,081139	-667,748908	239,126	-0,357727	22,310000	51,365000
1,075081	-670,177586	239,426	-0,358751	22,310000	51,365000
1,069113	-672,497501	239,726	-0,359730	22,310000	51,365000
1,063102	-674,771133	240,026	-0,360690	22,310000	51,365000
1,057095	-674,999074	240,327	-0,360786	22,310000	51,365000
1,051105	-677,342130	240,628	-0,361775	22,310000	51,365000
1,045184	-678,290923	240,928	-0,362175	22,310000	51,365000
1,039093	-680,602738	241,228	-0,363151	22,310000	51,365000
1,033147	-682,891412	241,529	-0,364117	22,310000	51,365000
1,027144	-683,824006	241,830	-0,364510	22,310000	51,365000
1,021200	-685,383729	242,131	-0,365168	22,310000	51,365000
1,015067	-686,168219	242,432	-0,365500	22,310000	51,365000
1,009126	-689,075922	242,732	-0,366727	22,310000	51,390000
1,003106	-687,500000	243,033	-0,366062	22,310000	51,390000
0,997106	-691,051031	243,334	-0,367560	22,310000	51,390000
0,991122	-691,834364	243,634	-0,367891	22,310000	51,390000
0,985113	-690,470185	243,936	-0,367315	22,310000	51,390000
0,979109	-693,080522	244,237	-0,368417	22,310000	51,390000
0,973130	-693,778232	244,538	-0,368711	22,310000	51,390000
0,967147	-692,477692	244,839	-0,368162	22,310000	51,390000
0,961068	-694,178577	245,140	-0,368880	22,310000	51,390000
0,955136	-694,507183	245,440	-0,369019	22,310000	51,390000
0,949135	-695,103071	245,740	-0,369270	22,310000	51,390000
0,943115	-695,354154	246,040	-0,369376	22,310000	51,390000
0,937137	-695,855163	246,340	-0,369587	22,310000	51,390000
0,931122	-692,305289	246,640	-0,368089	22,310000	51,390000
0,925128	-693,057381	246,941	-0,368407	22,310000	51,405000
0,919123	-692,696377	247,244	-0,368254	22,310000	51,405000
0,913177	-692,970601	247,545	-0,368370	22,310000	51,405000
0,907202	-691,622621	247,846	-0,367801	22,310000	51,405000
0,901123	-690,235301	248,146	-0,367216	22,310000	51,405000
0,895141	-687,649261	248,447	-0,366125	22,310000	51,405000
0,889191	-679,763866	248,748	-0,362797	22,320000	51,390000
0,883209	-667,419144	249,048	-0,357587	22,320000	51,390000
0,877103	-643,882137	249,349	-0,347655	22,320000	51,390000
0,871148	-0,705809	249,650	-0,076234	22,320000	51,390000
0,865159	-0,689610	249,951	-0,076228	22,320000	51,390000
0,859146	-0,367947	250,252	-0,076092	22,320000	51,390000
0,853132	-0,642171	250,553	-0,076208	22,320000	51,390000
0,847168	-0,635228	250,854	-0,076205	22,310000	51,375000
0,841153	-0,658370	251,154	-0,076214	22,310000	51,375000
0,835088	-0,415386	251,455	-0,076112	22,310000	51,375000
0,829118	-0,462826	251,755	-0,076132	22,310000	51,375000
0,823137	-0,423486	252,055	-0,076115	22,310000	51,375000
0,817157	-0,548449	252,355	-0,076168	22,310000	51,375000
0,811159	-0,477868	252,655	-0,076138	22,310000	51,375000
0,805146	-0,509108	252,956	-0,076151	22,310000	51,375000
0,799141	-0,446627	253,257	-0,076125	22,310000	51,375000
0,793090	-0,313564	253,558	-0,076069	22,310000	51,375000
0,787176	0,047440	253,859	-0,075917	22,310000	51,375000
0,781104	-0,290423	254,160	-0,076059	22,310000	51,375000
0,775145	-0,195544	254,460	-0,076019	22,310000	51,375000
0,769184	-0,352905	254,761	-0,076085	22,310000	51,390000
0,763153	-0,587789	255,062	-0,076185	22,310000	51,390000
0,757131	-0,329763	255,362	-0,076076	22,310000	51,390000
0,751125	-0,321664	255,664	-0,076072	22,310000	51,390000
0,745137	-0,188602	255,965	-0,076016	22,310000	51,390000
0,739131	-0,352905	256,266	-0,076085	22,310000	51,390000
0,733162	-0,266125	256,566	-0,076049	22,310000	51,390000
0,727168	-0,156204	256,866	-0,076002	22,310000	51,350000
0,721130	-0,234884	257,166	-0,076036	22,310000	51,350000
0,715111	-0,305465	257,468	-0,076065	22,310000	51,350000
0,709124	-0,016199	257,768	-0,075943	22,310000	51,350000
0,703129	-0,126120	258,070	-0,075990	22,310000	51,350000
0,697099	-0,188602	258,370	-0,076016	22,310000	51,350000
0,691145	-0,321664	258,670	-0,076072	22,310000	51,350000
0,685140	-0,352905	258,970	-0,076085	22,310000	51,405000
0,679136	-0,305465	259,271	-0,076065	22,310000	51,405000
0,673144	-0,251083	259,572	-0,076042	22,310000	51,405000
0,667157	-0,282324	259,872	-0,076056	22,310000	51,405000
0,661151	-0,274224	260,173	-0,076052	22,310000	51,405000
0,655135	-0,195544	260,473	-0,076019	22,310000	51,405000
0,652184	-0,047440	260,623	-0,075957	22,310000	51,405000