File: Nanoindentation Datenauswertung/data/PDMS/12.09/PM-PDMS-150ms,3um,20nms,9cycles,1,5um offset
Quasi static measurement routine
Tip parameters (shape,radius, material...)
12.09.2022

Piezo position[nm]	MEMS displ.[nm]	Time[ms]	Cap [pf]	Temp [°C]	Rh [%]
eoh
0,650123	-0,070581	0,195	-0,075811	22,310000	51,625000
0,665133	0,109921	0,946	-0,075735	22,310000	51,625000
0,680172	0,094879	1,697	-0,075741	22,310000	51,640000
0,695155	-0,164303	2,448	-0,075851	22,310000	51,640000
0,710141	-0,031241	3,199	-0,075794	22,310000	51,640000
0,725156	-0,062481	3,949	-0,075808	22,310000	51,600000
0,740104	0,063639	4,702	-0,075754	22,310000	51,600000
0,755166	0,000000	5,452	-0,075781	22,300000	51,600000
0,770177	-0,172403	6,204	-0,075854	22,300000	51,600000
0,785143	0,031241	6,956	-0,075768	22,300000	51,600000
0,800120	-0,164303	7,708	-0,075851	22,300000	51,625000
0,815121	0,102979	8,459	-0,075738	22,300000	51,625000
0,830138	-0,148104	9,210	-0,075844	22,300000	51,625000
0,845083	-0,234884	9,961	-0,075880	22,300000	51,625000
0,860105	-0,179345	10,752	-0,075857	22,300000	51,625000
0,875120	0,039340	11,503	-0,075765	22,300000	51,625000
0,890113	-0,297366	12,253	-0,075907	22,300000	51,625000
0,905145	-0,015042	13,004	-0,075788	22,300000	51,625000
0,920081	-0,422329	13,754	-0,075959	22,300000	51,590000
0,935091	-0,258025	14,505	-0,075890	22,300000	51,590000
0,950108	-0,548449	15,255	-0,076013	22,300000	51,590000
0,965099	-0,116864	16,006	-0,075831	22,300000	51,590000
0,980180	-0,164303	16,756	-0,075851	22,300000	51,590000
0,995130	0,016199	17,507	-0,075774	22,300000	51,590000
1,010099	-0,282324	18,257	-0,075900	22,300000	51,590000
1,025174	-0,133062	19,007	-0,075837	22,300000	51,590000
1,040122	-0,006942	19,759	-0,075784	22,300000	51,590000
1,055076	-0,015042	20,511	-0,075788	22,300000	51,590000
1,070178	-0,195544	21,262	-0,075864	22,300000	51,590000
1,085150	-0,140005	22,014	-0,075840	22,310000	51,600000
1,100147	-0,251083	22,764	-0,075887	22,310000	51,600000
1,115134	-0,312407	23,515	-0,075913	22,310000	51,600000
1,130071	-0,211743	24,266	-0,075871	22,310000	51,600000
1,145126	-0,289266	25,016	-0,075903	22,310000	51,600000
1,160131	-0,289266	25,766	-0,075903	22,300000	51,600000
1,175144	-0,359847	26,516	-0,075933	22,300000	51,600000
1,190094	-0,211743	27,266	-0,075871	22,300000	51,600000
1,205154	-0,124963	28,018	-0,075834	22,300000	51,615000
1,220096	-0,540349	28,770	-0,076009	22,300000	51,615000
1,235130	-0,226785	29,521	-0,075877	22,300000	51,615000
1,250149	-0,297366	30,272	-0,075907	22,300000	51,615000
1,265107	-0,320507	31,022	-0,075917	22,300000	51,615000
1,280118	-0,384145	31,773	-0,075943	22,300000	51,650000
1,295121	-0,226785	32,523	-0,075877	22,300000	51,650000
1,310038	-0,407287	33,276	-0,075953	22,300000	51,650000
1,325165	-0,351748	34,027	-0,075930	22,300000	51,600000
1,340166	-0,359847	34,778	-0,075933	22,300000	51,600000
1,355068	-0,211743	35,531	-0,075871	22,310000	51,590000
1,370133	-0,289266	36,281	-0,075903	22,310000	51,590000
1,385076	-0,359847	37,033	-0,075933	22,310000	51,590000
1,400139	-0,376046	37,783	-0,075940	22,310000	51,640000
1,415127	-0,947636	38,536	-0,076181	22,310000	51,640000
1,430048	-0,532250	39,289	-0,076006	22,310000	51,640000
1,445126	-0,642171	40,041	-0,076052	22,300000	51,625000
1,460132	-0,297366	40,791	-0,075907	22,300000	51,625000
1,475145	-0,312407	41,541	-0,075913	22,300000	51,625000
1,490105	-0,328606	42,292	-0,075920	22,300000	51,625000
1,505146	-0,438527	43,046	-0,075966	22,300000	51,625000
1,520105	-0,415386	43,797	-0,075957	22,310000	51,640000
1,535118	-0,438527	44,550	-0,075966	22,310000	51,640000
1,550145	-0,446627	45,302	-0,075970	22,310000	51,640000
1,565110	-0,399187	46,053	-0,075950	22,310000	51,625000
1,580075	-0,587789	46,805	-0,076029	22,310000	51,625000
1,595115	-0,532250	47,557	-0,076006	22,300000	51,600000
1,610142	-0,610930	48,309	-0,076039	22,300000	51,600000
1,625100	-0,673412	49,060	-0,076065	22,300000	51,600000
1,640101	-0,524150	49,811	-0,076002	22,300000	51,600000
1,655086	-0,446627	50,563	-0,075970	22,300000	51,600000
1,670108	-0,524150	51,314	-0,076002	22,300000	51,600000
1,685145	-0,610930	52,064	-0,076039	22,300000	51,625000
1,700110	-0,524150	52,815	-0,076002	22,300000	51,625000
1,715077	-0,681511	53,565	-0,076069	22,310000	51,590000
1,730163	-0,673412	54,317	-0,076065	22,310000	51,590000
1,745143	-0,469768	55,069	-0,075979	22,310000	51,590000
1,760150	-0,799532	55,822	-0,076119	22,310000	51,625000
1,775136	-0,971934	56,573	-0,076191	22,310000	51,625000
1,790079	-0,799532	57,323	-0,076119	22,310000	51,625000
1,805112	-1,026316	58,074	-0,076214	22,310000	51,625000
1,820081	-0,799532	58,826	-0,076119	22,310000	51,625000
1,835091	-0,862013	59,579	-0,076145	22,310000	51,625000
1,850068	-0,870113	60,330	-0,076148	22,310000	51,625000
1,865084	-0,571590	61,081	-0,076022	22,310000	51,625000
1,880075	-158,796699	61,833	-0,142793	22,300000	51,625000
1,895043	-155,888996	62,583	-0,141566	22,300000	51,625000
1,910092	-151,116104	63,335	-0,139552	22,300000	51,625000
1,925062	-142,674161	64,089	-0,135990	22,300000	51,625000
1,940065	-133,205902	64,842	-0,131994	22,300000	51,625000
1,955095	-124,795200	65,593	-0,128445	22,310000	51,600000
1,970106	-116,275733	66,345	-0,124850	22,310000	51,600000
1,985113	-109,700135	67,097	-0,122075	22,310000	51,600000
2,000069	-100,207577	67,849	-0,118069	22,300000	51,615000
2,015116	-89,023391	68,599	-0,113349	22,300000	51,615000
2,030064	-81,694544	69,349	-0,110256	22,300000	51,615000
2,045112	-72,014542	70,100	-0,106171	22,300000	51,600000
2,060083	-62,444461	70,853	-0,102133	22,300000	51,600000
2,075047	-52,882479	71,606	-0,098098	22,310000	51,600000
2,090064	-40,976285	72,358	-0,093073	22,310000	51,600000
2,105080	-30,998917	73,111	-0,088863	22,310000	51,600000
2,120002	-23,560149	73,863	-0,085724	22,310000	51,600000
2,135118	-13,167395	74,617	-0,081338	22,310000	51,600000
2,150094	-3,817156	75,369	-0,077392	22,310000	51,615000
2,165062	7,603071	76,119	-0,072573	22,310000	51,615000
2,180019	16,358579	76,869	-0,068878	22,310000	51,615000
2,195050	27,746408	77,619	-0,064072	22,310000	51,615000
2,210022	39,018532	78,371	-0,059315	22,310000	51,615000
2,225052	48,626796	79,123	-0,055261	22,310000	51,615000
2,239999	56,308547	79,875	-0,052019	22,310000	51,600000
2,255017	66,372695	80,627	-0,047772	22,310000	51,600000
2,270105	76,686769	81,377	-0,043419	22,310000	51,625000
2,285048	86,563472	82,127	-0,039251	22,310000	51,625000
2,300081	96,713242	82,878	-0,034968	22,310000	51,625000
2,315051	106,432585	83,629	-0,030867	22,310000	51,640000
2,318093	109,801957	84,381	-0,029445	22,310000	51,640000
2,318050	109,074163	85,132	-0,029752	22,310000	51,640000
2,318088	108,077931	85,883	-0,030172	22,310000	51,640000
2,318040	107,396420	86,635	-0,030460	22,310000	51,640000
2,318112	106,894254	87,388	-0,030672	22,310000	51,600000
2,318113	106,455726	88,140	-0,030857	22,310000	51,600000
2,318051	106,330763	88,891	-0,030910	22,310000	51,600000
2,318096	105,508090	89,643	-0,031257	22,300000	51,615000
2,318012	105,499991	90,394	-0,031260	22,300000	51,615000
2,318050	104,817323	91,145	-0,031548	22,300000	51,615000
2,318012	104,511858	91,899	-0,031677	22,300000	51,600000
2,318120	104,190194	92,649	-0,031813	22,300000	51,600000
2,318076	104,268874	93,400	-0,031780	22,310000	51,640000
2,312057	101,305632	94,154	-0,033030	22,310000	51,640000
2,297100	88,013274	94,906	-0,038640	22,310000	51,640000
2,282070	78,333272	95,656	-0,042725	22,320000	51,600000
2,282064	73,944526	96,294	-0,044577	22,320000	51,600000
2,297036	86,845796	97,046	-0,039132	22,320000	51,600000
2,312036	96,665803	97,797	-0,034988	22,300000	51,625000
2,327009	110,280982	98,549	-0,029243	22,300000	51,625000
2,342083	118,957809	99,299	-0,025581	22,300000	51,625000
2,357009	129,774048	100,051	-0,021017	22,300000	51,615000
2,372037	141,780908	100,803	-0,015950	22,300000	51,615000
2,387112	153,577181	101,555	-0,010972	22,300000	51,615000
2,402089	162,222767	102,307	-0,007323	22,300000	51,615000
2,417133	174,027140	103,060	-0,002342	22,300000	51,615000
2,432070	185,423069	103,811	0,002467	22,310000	51,600000
2,447039	193,277223	104,561	0,005782	22,310000	51,600000
2,462082	203,701218	105,312	0,010181	22,310000	51,600000
2,477067	214,454976	106,063	0,014719	22,300000	51,600000
2,486073	222,034906	106,814	0,017917	22,300000	51,600000
2,486051	221,062972	107,567	0,017507	22,310000	51,600000
2,486022	220,380304	108,317	0,017219	22,310000	51,600000
2,486065	219,542589	109,070	0,016866	22,310000	51,600000
2,486078	219,040423	109,821	0,016654	22,290000	51,610000
2,486035	218,672477	110,572	0,016499	22,290000	51,610000
2,486050	218,444535	111,324	0,016402	22,290000	51,610000
2,486048	217,582522	112,076	0,016039	22,290000	51,610000
2,486070	218,178410	112,828	0,016290	22,290000	51,610000
2,486102	217,370779	113,579	0,015949	22,300000	51,600000
2,486062	217,245816	114,332	0,015896	22,300000	51,600000
2,486034	216,697367	115,084	0,015665	22,300000	51,600000
2,486082	216,610588	115,834	0,015628	22,300000	51,625000
2,486056	216,352562	116,584	0,015520	22,300000	51,625000
2,471093	206,256017	117,334	0,011259	22,300000	51,625000
2,456069	192,540173	118,086	0,005471	22,300000	51,625000
2,441047	183,643504	118,836	0,001716	22,300000	51,625000
2,426079	169,967001	119,587	-0,004055	22,310000	51,640000
2,411038	160,639903	120,337	-0,007991	22,310000	51,640000
2,405051	154,274891	120,976	-0,010677	22,310000	51,640000
2,420059	166,071164	121,727	-0,005699	22,310000	51,615000
2,435120	178,322164	122,478	-0,000529	22,310000	51,615000
2,450135	186,975850	123,230	0,003123	22,310000	51,615000
2,465079	198,426161	123,980	0,007955	22,310000	51,615000
2,480102	209,800106	124,731	0,012754	22,310000	51,615000
2,495109	221,266615	125,483	0,017593	22,310000	51,615000
2,510099	231,831772	126,233	0,022052	22,310000	51,615000
2,525074	244,952884	126,983	0,027589	22,310000	51,615000
2,540082	255,745983	127,735	0,032144	22,300000	51,615000
2,555052	264,664636	128,486	0,035907	22,300000	51,615000
2,570027	275,191610	129,237	0,040350	22,300000	51,615000
2,585119	285,953467	129,990	0,044891	22,310000	51,615000
2,600041	298,721675	130,741	0,050279	22,310000	51,615000
2,615073	307,398502	131,492	0,053941	22,310000	51,625000
2,630065	318,935593	132,244	0,058810	22,310000	51,625000
2,645010	330,927410	132,997	0,063870	22,310000	51,625000
2,654044	336,524132	133,748	0,066232	22,300000	51,640000
2,654014	335,637820	134,499	0,065858	22,300000	51,640000
2,654101	334,838289	135,251	0,065521	22,300000	51,640000
2,654038	334,447201	136,003	0,065355	22,300000	51,640000
2,654096	333,718250	136,754	0,065048	22,300000	51,640000
2,654019	333,513450	137,505	0,064961	22,300000	51,640000
2,654071	333,027483	138,256	0,064756	22,300000	51,640000
2,654020	332,879378	139,008	0,064694	22,300000	51,640000
2,654076	332,651437	139,760	0,064598	22,300000	51,625000
2,654019	332,330930	140,513	0,064462	22,300000	51,625000
2,654035	332,048606	141,265	0,064343	22,300000	51,625000
2,654029	331,774382	142,017	0,064228	22,310000	51,640000
2,654070	331,452718	142,767	0,064092	22,310000	51,640000
2,654044	331,554539	143,520	0,064135	22,310000	51,640000
2,639107	319,366021	144,271	0,058991	22,310000	51,640000
2,624042	307,774548	145,021	0,054100	22,310000	51,640000
2,609076	296,221259	145,771	0,049224	22,310000	51,615000
2,594014	287,042265	146,522	0,045351	22,310000	51,615000
2,579098	273,953551	147,273	0,039827	22,310000	51,615000
2,564041	264,053706	148,024	0,035649	22,310000	51,615000
2,549107	250,635228	148,776	0,029987	22,310000	51,615000
2,534018	239,615345	149,529	0,025336	22,310000	51,640000
2,534040	237,287332	150,170	0,024354	22,310000	51,640000
2,549128	249,569572	150,921	0,029537	22,310000	51,640000
2,564049	262,753166	151,671	0,035101	22,310000	51,600000
2,579016	272,574330	152,421	0,039245	22,310000	51,600000
2,594072	284,902853	153,171	0,044448	22,310000	51,600000
2,609065	297,168894	153,922	0,049624	22,310000	51,615000
2,624037	307,029399	154,676	0,053785	22,310000	51,615000
2,639076	320,212992	155,426	0,059349	22,310000	51,640000
2,654098	331,820664	156,177	0,064247	22,310000	51,640000
2,669078	341,242641	156,929	0,068223	22,310000	51,640000
2,684089	354,002749	157,682	0,073608	22,300000	51,640000
2,699014	362,617095	158,432	0,077243	22,300000	51,640000
2,714045	373,973684	159,183	0,082036	22,300000	51,640000
2,729021	384,320155	159,933	0,086402	22,310000	51,640000
2,744049	395,238216	160,685	0,091009	22,310000	51,640000
2,759119	408,170727	161,436	0,096467	22,310000	51,625000
2,774048	416,808214	162,189	0,100112	22,310000	51,625000
2,788996	429,686343	162,940	0,105546	22,310000	51,625000
2,804090	438,260191	163,691	0,109165	22,310000	51,640000
2,819064	448,802207	164,441	0,113613	22,310000	51,640000
2,822091	452,596221	165,191	0,115214	22,310000	51,640000
2,821977	452,024632	165,942	0,114973	22,310000	51,640000
2,822015	451,169561	166,694	0,114612	22,310000	51,640000
2,822021	451,092038	167,444	0,114580	22,300000	51,640000
2,822074	450,440610	168,195	0,114305	22,300000	51,640000
2,822068	450,095805	168,946	0,114159	22,300000	51,640000
2,822013	450,018282	169,697	0,114126	22,300000	51,640000
2,822059	449,735958	170,447	0,114007	22,300000	51,640000
2,822071	449,296273	171,198	0,113822	22,300000	51,640000
2,822066	448,998908	171,949	0,113696	22,310000	51,600000
2,822078	448,982709	172,699	0,113689	22,310000	51,600000
2,822017	448,662202	173,451	0,113554	22,290000	51,610000
2,822012	448,567323	174,203	0,113514	22,290000	51,610000
2,816101	445,048689	174,955	0,112029	22,290000	51,610000
2,801049	433,996408	175,707	0,107365	22,290000	51,610000
2,786036	421,142578	176,457	0,101941	22,290000	51,610000
2,771068	410,420061	177,210	0,097416	22,290000	51,610000
2,756010	398,851729	177,961	0,092534	22,320000	51,640000
2,741063	386,843713	178,715	0,087467	22,320000	51,640000
2,726081	373,895003	179,467	0,082002	22,320000	51,640000
2,711012	362,522216	180,219	0,077203	22,320000	51,640000
2,695987	351,635395	180,970	0,072609	22,320000	51,640000
2,681027	339,541756	181,720	0,067505	22,300000	51,600000
2,666071	329,344546	182,471	0,063202	22,300000	51,600000
2,654069	319,656444	183,223	0,059114	22,300000	51,600000
2,669031	331,884303	183,867	0,064274	22,310000	51,625000
2,684104	341,799189	184,619	0,068458	22,310000	51,625000
2,699102	354,927244	185,370	0,073998	22,310000	51,625000
2,714023	367,491808	186,121	0,079300	22,310000	51,625000
2,729093	376,654602	186,874	0,083167	22,310000	51,625000
2,744136	387,971851	187,625	0,087943	22,310000	51,615000
2,759041	401,680752	188,376	0,093728	22,310000	51,615000
2,774048	410,866688	189,126	0,097604	22,310000	51,615000
2,789071	422,035832	189,878	0,102318	22,300000	51,600000
2,804040	432,938851	190,629	0,106919	22,300000	51,600000
2,819064	446,334188	191,380	0,112572	22,300000	51,625000
2,834039	455,559464	192,131	0,116465	22,300000	51,625000
2,849116	468,390153	192,881	0,121879	22,300000	51,625000
2,864067	477,458068	193,632	0,125706	22,300000	51,625000
2,879034	489,779649	194,383	0,130906	22,300000	51,625000
2,894063	501,960067	195,135	0,136046	22,300000	51,625000
2,909048	513,152353	195,889	0,140769	22,300000	51,625000
2,924042	521,500574	196,640	0,144292	22,300000	51,625000
2,939058	532,182594	197,391	0,148800	22,300000	51,625000
2,954050	544,238050	198,142	0,153887	22,300000	51,625000
2,969020	556,676494	198,892	0,159136	22,300000	51,625000
2,984016	565,064055	199,643	0,162676	22,310000	51,640000
2,990011	571,068063	200,394	0,165209	22,310000	51,640000
2,989982	570,370353	201,145	0,164915	22,310000	51,640000
2,990072	569,938768	201,895	0,164733	22,310000	51,640000
2,989988	569,672643	202,649	0,164621	22,310000	51,640000
2,990016	569,124195	203,400	0,164389	22,310000	51,650000
2,990005	568,809473	204,150	0,164256	22,310000	51,650000
2,990073	568,387145	204,900	0,164078	22,310000	51,650000
2,989997	568,002999	205,652	0,163916	22,310000	51,650000
2,990057	567,884979	206,403	0,163866	22,310000	51,650000
2,990055	567,673236	207,157	0,163777	22,310000	51,650000
2,990021	567,289090	207,909	0,163615	22,300000	51,600000
2,990014	567,101646	208,659	0,163536	22,300000	51,600000
2,990010	566,779982	209,410	0,163400	22,300000	51,640000
2,987032	564,177744	210,161	0,162302	22,300000	51,640000
2,972019	554,427160	210,914	0,158187	22,300000	51,640000
2,957059	543,085614	211,665	0,153401	22,310000	51,600000
2,942113	528,687102	212,419	0,147325	22,310000	51,600000
2,927007	518,568572	213,172	0,143055	22,310000	51,600000
2,912065	505,534240	213,924	0,137554	22,300000	51,600000
2,896992	495,673736	214,674	0,133393	22,300000	51,600000
2,882067	485,123621	215,424	0,128941	22,300000	51,615000
2,867013	473,179243	216,174	0,123900	22,300000	51,615000
2,851998	461,414211	216,926	0,118936	22,300000	51,615000
2,837071	450,895337	217,678	0,114497	22,300000	51,615000
2,822037	436,787248	218,429	0,108543	22,300000	51,615000
2,807049	428,212243	219,181	0,104924	22,300000	51,615000
2,792027	416,619613	219,931	0,100032	22,310000	51,625000
2,780061	405,662211	220,682	0,095408	22,310000	51,625000
2,795100	415,813139	221,313	0,099692	22,310000	51,625000
2,810046	430,328514	222,066	0,105817	22,310000	51,625000
2,824998	439,836113	222,818	0,109830	22,310000	51,625000
2,840088	451,679826	223,569	0,114828	22,310000	51,615000
2,855066	464,612337	224,321	0,120285	22,310000	51,615000
2,870056	476,948960	225,073	0,125491	22,310000	51,615000
2,885086	488,525391	225,825	0,130376	22,300000	51,625000
2,900047	497,374620	226,577	0,134111	22,300000	51,625000
2,915043	508,857329	227,329	0,138957	22,300000	51,625000
2,930005	520,982209	228,080	0,144073	22,320000	51,640000
2,945077	531,446701	228,831	0,148489	22,320000	51,640000
2,959983	543,187435	229,581	0,153444	22,290000	51,620000
2,975014	554,034916	230,334	0,158021	22,290000	51,620000
2,989961	567,760016	231,084	0,163813	22,290000	51,620000
3,005055	577,517541	231,836	0,167931	22,310000	51,615000
3,020095	587,895253	232,588	0,172311	22,310000	51,615000
3,035068	600,013191	233,339	0,177424	22,310000	51,615000
3,050094	610,021799	234,091	0,181648	22,310000	51,615000
3,065029	621,151603	234,843	0,186345	22,310000	51,615000
3,080039	634,696201	235,594	0,192061	22,300000	51,590000
3,095012	645,583022	236,346	0,196655	22,300000	51,590000
3,109997	655,200542	237,096	0,200713	22,300000	51,590000
3,125018	667,678327	237,848	0,205979	22,300000	51,590000
3,140010	676,323913	238,601	0,209627	22,300000	51,590000
3,154982	688,519374	239,354	0,214774	22,300000	51,590000
3,157978	690,949209	240,105	0,215799	22,310000	51,625000
3,157987	690,212159	240,859	0,215488	22,310000	51,625000
3,157988	689,985375	241,611	0,215393	22,300000	51,600000
3,157950	689,358246	242,361	0,215128	22,300000	51,600000
3,158012	689,075922	243,113	0,215009	22,300000	51,600000
3,158001	688,222008	243,866	0,214648	22,300000	51,600000
3,157987	688,604997	244,619	0,214810	22,300000	51,600000
3,158044	688,488133	245,369	0,214761	22,300000	51,600000
3,157958	688,088946	246,119	0,214592	22,310000	51,615000
3,157997	687,790423	246,870	0,214466	22,310000	51,615000
3,157971	687,358838	247,621	0,214284	22,310000	51,615000
3,158007	687,609921	248,371	0,214390	22,310000	51,615000
3,157970	687,358838	249,121	0,214284	22,310000	51,615000
3,152024	684,569155	249,872	0,213107	22,300000	51,650000
3,137010	671,682927	250,622	0,207669	22,300000	51,650000
3,122023	660,992808	251,373	0,203158	22,300000	51,650000
3,107051	649,007933	252,123	0,198100	22,300000	51,625000
3,092036	637,502083	252,874	0,193245	22,300000	51,625000
3,077037	625,720851	253,624	0,188273	22,300000	51,615000
3,061963	611,612763	254,375	0,182319	22,300000	51,615000
3,047045	602,858412	255,126	0,178625	22,300000	51,615000
3,032079	591,281981	255,876	0,173740	22,300000	51,615000
3,017039	579,681252	256,626	0,168844	22,300000	51,615000
3,002029	566,881804	257,378	0,163443	22,300000	51,615000
2,987073	557,091880	258,129	0,159312	22,320000	51,615000
2,972032	545,554789	258,880	0,154443	22,320000	51,615000
2,957044	533,711076	259,632	0,149445	22,300000	51,590000
2,941984	522,158944	260,383	0,144570	22,300000	51,590000
2,927037	509,320155	261,135	0,139152	22,300000	51,590000
2,912058	497,688185	261,887	0,134243	22,300000	51,590000
2,912078	496,151603	262,524	0,133595	22,300000	51,590000
2,927109	509,469416	263,277	0,139215	22,300000	51,590000
2,942043	523,428243	264,029	0,145105	22,300000	51,625000
2,957055	532,535499	264,783	0,148949	22,300000	51,625000
2,972013	545,907694	265,535	0,154592	22,310000	51,615000
2,987095	558,370437	266,286	0,159851	22,310000	51,615000
3,001985	567,540173	267,036	0,163721	22,310000	51,615000
3,017005	579,054123	267,788	0,168580	22,300000	51,625000
3,032084	593,092787	268,540	0,174504	22,300000	51,625000
3,046998	603,971508	269,291	0,179095	22,300000	51,625000
3,062033	613,431668	270,043	0,183087	22,290000	51,595000
3,077074	624,718833	270,793	0,187850	22,290000	51,595000
3,092042	636,341547	271,545	0,192755	22,290000	51,595000
3,107026	647,676152	272,297	0,197538	22,290000	51,595000
3,122040	658,515532	273,049	0,202112	22,290000	51,595000
3,137014	672,428077	273,801	0,207983	22,300000	51,615000
3,152039	681,081763	274,551	0,211635	22,300000	51,615000
3,167062	692,517032	275,301	0,216461	22,300000	51,615000
3,181969	703,686176	276,051	0,221174	22,310000	51,640000
3,197051	714,619279	276,801	0,225788	22,310000	51,640000
3,211984	726,776557	277,551	0,230918	22,310000	51,665000
3,227079	739,528566	278,301	0,236300	22,310000	51,665000
3,241980	748,198450	279,052	0,239958	22,310000	51,665000
3,256989	761,694452	279,804	0,245654	22,310000	51,665000
3,272011	770,308797	280,557	0,249289	22,310000	51,665000
3,286990	781,571664	281,311	0,254042	22,310000	51,665000
3,301909	792,497825	282,063	0,258653	22,300000	51,600000
3,317060	803,510765	282,814	0,263300	22,300000	51,600000
3,325992	812,281315	283,565	0,267001	22,310000	51,640000
3,325995	811,622945	284,315	0,266724	22,310000	51,640000
3,325969	810,956476	285,068	0,266442	22,310000	51,640000
3,325988	810,306206	285,821	0,266168	22,300000	51,600000
3,326040	810,352488	286,571	0,266188	22,300000	51,600000
3,326023	809,797097	287,322	0,265953	22,300000	51,600000
3,325990	809,577255	288,073	0,265860	22,300000	51,625000
3,325957	809,404852	288,826	0,265788	22,300000	51,625000
3,325930	808,981367	289,576	0,265609	22,300000	51,625000
3,325979	808,965168	290,329	0,265602	22,300000	51,625000
3,326005	808,526640	291,079	0,265417	22,300000	51,625000
3,325975	808,377379	291,829	0,265354	22,290000	51,610000
3,325959	807,766449	292,580	0,265096	22,290000	51,610000
3,325997	807,710910	293,331	0,265073	22,290000	51,610000
3,310960	798,337530	294,083	0,261117	22,290000	51,610000
3,295998	783,985301	294,835	0,255061	22,290000	51,610000
3,281038	774,462659	295,585	0,251042	22,300000	51,600000
3,266005	762,533323	296,335	0,246008	22,300000	51,600000
3,251023	751,073756	297,087	0,241172	22,300000	51,600000
3,235978	739,113179	297,838	0,236125	22,300000	51,600000
3,220943	725,499158	298,589	0,230379	22,300000	51,600000
3,205980	716,070238	299,341	0,226400	22,300000	51,600000
3,191029	702,313898	300,093	0,220595	22,310000	51,640000
3,176055	690,760608	300,844	0,215720	22,310000	51,640000
3,160969	681,182427	301,596	0,211678	22,310000	51,615000
3,146033	670,343047	302,347	0,207104	22,310000	51,615000
3,131018	656,783407	303,100	0,201381	22,310000	51,615000
3,116000	646,538757	303,851	0,197058	22,310000	51,615000
3,101000	636,201542	304,602	0,192696	22,310000	51,615000
3,085971	624,334688	305,354	0,187688	22,310000	51,615000
3,071005	612,256091	306,106	0,182591	22,310000	51,640000
3,056022	600,021290	306,857	0,177428	22,310000	51,640000
3,041087	589,494316	307,608	0,172985	22,300000	51,615000
3,035075	584,179919	308,244	0,170743	22,300000	51,615000
3,050034	594,721934	308,995	0,175191	22,300000	51,615000
3,065005	606,831772	309,747	0,180302	22,300000	51,600000
3,079966	618,636145	310,500	0,185283	22,300000	51,600000
3,094962	630,440518	311,252	0,190265	22,300000	51,600000
3,110033	644,039498	312,004	0,196003	22,300000	51,600000
3,124967	656,407361	312,756	0,201223	22,300000	51,600000
3,140035	666,752675	313,506	0,205588	22,300000	51,600000
3,155046	679,520883	314,259	0,210977	22,300000	51,600000
3,170044	688,770457	315,010	0,214880	22,300000	51,600000
3,184998	702,369437	315,760	0,220619	22,290000	51,610000
3,200028	711,453551	316,511	0,224452	22,290000	51,610000
3,215009	722,834438	317,263	0,229255	22,290000	51,610000
3,229961	734,520790	318,015	0,234187	22,300000	51,625000
3,245022	745,831096	318,766	0,238959	22,300000	51,625000
3,260087	757,023382	319,517	0,243683	22,300000	51,625000
3,274972	768,435510	320,267	0,248499	22,300000	51,625000
3,289955	782,042589	321,019	0,254241	22,300000	51,625000
3,305066	793,477858	321,772	0,259066	22,300000	51,615000
3,319960	802,192869	322,525	0,262744	22,300000	51,615000
3,334942	815,886728	323,275	0,268523	22,300000	51,615000
3,350018	826,804789	324,027	0,273130	22,300000	51,615000
3,364980	835,927086	324,779	0,276980	22,300000	51,615000
3,379948	849,307381	325,530	0,282626	22,310000	51,615000
3,394967	858,204051	326,283	0,286381	22,310000	51,615000
3,409947	871,222184	327,033	0,291875	22,310000	51,615000
3,424945	880,619863	327,783	0,295840	22,300000	51,600000
3,439984	891,248658	328,534	0,300326	22,300000	51,600000
3,454918	902,606404	329,286	0,305119	22,300000	51,600000
3,469962	913,908610	330,039	0,309888	22,310000	51,615000
3,484981	924,591788	330,792	0,314396	22,310000	51,615000
3,493906	933,331096	331,543	0,318084	22,310000	51,615000
3,493931	932,562805	332,294	0,317760	22,310000	51,615000
3,493945	932,006257	333,046	0,317525	22,310000	51,615000
3,493941	931,590871	333,798	0,317350	22,310000	51,640000
3,493952	931,292349	334,549	0,317224	22,310000	51,640000
3,493939	930,893161	335,302	0,317056	22,310000	51,640000
3,493972	930,430335	336,053	0,316860	22,310000	51,600000
3,493874	930,352812	336,805	0,316828	22,310000	51,600000
3,493946	930,023049	337,557	0,316688	22,310000	51,615000
3,493958	929,873787	338,307	0,316625	22,310000	51,615000
3,493985	929,450302	339,061	0,316447	22,310000	51,615000
3,493973	929,395920	339,811	0,316424	22,300000	51,600000
3,493949	929,341538	340,562	0,316401	22,300000	51,600000
3,493968	929,176077	341,312	0,316331	22,300000	51,600000
3,478948	919,464834	342,063	0,312233	22,300000	51,600000
3,463892	907,081929	342,814	0,307007	22,300000	51,600000
3,448934	895,566823	343,565	0,302148	22,300000	51,600000
3,433949	881,192610	344,316	0,296082	22,300000	51,600000
3,418924	871,551948	345,069	0,292014	22,300000	51,600000
3,403951	860,351563	345,820	0,287287	22,300000	51,625000
3,388904	846,242317	346,573	0,281333	22,300000	51,625000
3,373944	834,673985	347,323	0,276451	22,300000	51,625000
3,358970	825,417469	348,074	0,272545	22,300000	51,625000
3,343941	813,974100	348,824	0,267716	22,300000	51,625000
3,328949	802,819998	349,574	0,263009	22,310000	51,625000
3,314050	790,828181	350,326	0,257948	22,310000	51,625000
3,298965	778,483459	351,077	0,252739	22,310000	51,625000
3,283980	768,388070	351,828	0,248479	22,300000	51,600000
3,269009	755,102655	352,579	0,242872	22,300000	51,600000
3,254015	742,867854	353,331	0,237709	22,300000	51,600000
3,238992	733,995483	354,082	0,233965	22,300000	51,650000
3,223995	720,137320	354,833	0,228117	22,300000	51,650000
3,208988	711,844639	355,586	0,224617	22,300000	51,650000
3,193993	698,662202	356,336	0,219054	22,300000	51,650000
3,178965	689,318906	357,086	0,215111	22,300000	51,650000
3,164006	677,397669	357,841	0,210081	22,310000	51,615000
3,164025	674,629971	358,474	0,208913	22,310000	51,615000
3,179041	689,084021	359,225	0,215012	22,310000	51,615000
3,194017	698,614762	359,978	0,219034	22,310000	51,600000
3,209001	712,809630	360,729	0,225024	22,310000	51,600000
3,224010	722,708318	361,480	0,229202	22,310000	51,600000
3,238977	734,073006	362,231	0,233998	22,310000	51,600000
3,254061	746,120362	362,981	0,239082	22,310000	51,600000
3,268958	759,194035	363,732	0,244599	22,300000	51,590000
3,283973	768,686593	364,485	0,248604	22,300000	51,590000
3,298966	781,274298	365,235	0,253917	22,300000	51,590000
3,313966	792,638987	365,986	0,258712	22,300000	51,590000
3,329011	803,369603	366,737	0,263241	22,300000	51,590000
3,344088	815,126537	367,488	0,268202	22,310000	51,615000
3,358954	826,248241	368,240	0,272896	22,310000	51,615000
3,373982	838,177577	368,991	0,277930	22,310000	51,615000
3,388950	851,548615	369,743	0,283572	22,300000	51,615000
3,403952	860,532065	370,493	0,287363	22,300000	51,615000
3,418918	874,569572	371,244	0,293287	22,300000	51,615000
3,433923	883,175818	371,996	0,296919	22,310000	51,600000
3,449006	896,586197	372,746	0,302578	22,310000	51,600000
3,463947	908,602312	373,497	0,307649	22,310000	51,615000
3,478959	918,234875	374,248	0,311714	22,310000	51,615000
3,493893	928,573247	374,998	0,316077	22,310000	51,615000
3,508937	942,226609	375,750	0,321838	22,310000	51,615000
3,523905	952,799865	376,502	0,326300	22,310000	51,615000
3,538919	962,072580	377,253	0,330213	22,310000	51,615000
3,553929	974,863929	378,003	0,335611	22,310000	51,600000
3,568935	986,973767	378,756	0,340722	22,310000	51,600000
3,583888	995,384469	379,510	0,344271	22,300000	51,590000
3,598958	1008,394503	380,262	0,349761	22,300000	51,590000
3,613946	1017,824580	381,012	0,353741	22,300000	51,590000
3,628912	1031,509182	381,764	0,359516	22,300000	51,590000
3,643960	1042,693369	382,515	0,364235	22,300000	51,590000
3,658915	1051,456976	383,265	0,367934	22,300000	51,590000
3,661921	1054,999907	384,016	0,369429	22,300000	51,615000
3,661942	1054,317239	384,767	0,369141	22,300000	51,615000
3,661888	1054,192276	385,517	0,369088	22,300000	51,615000
3,661905	1053,604488	386,270	0,368840	22,300000	51,615000
3,661941	1053,031741	387,021	0,368598	22,300000	51,615000
3,661882	1052,757516	387,774	0,368482	22,300000	51,615000
3,661916	1052,585114	388,524	0,368410	22,300000	51,615000
3,661912	1052,232209	389,276	0,368261	22,300000	51,615000
3,661974	1052,545773	390,028	0,368393	22,310000	51,650000
3,661917	1051,997325	390,780	0,368162	22,310000	51,650000
3,661888	1051,731200	391,531	0,368049	22,310000	51,650000
3,661915	1051,488216	392,282	0,367947	22,310000	51,650000
3,661897	1051,205893	393,032	0,367828	22,310000	51,650000
3,655896	1045,766532	393,784	0,365532	22,300000	51,625000
3,640926	1035,310140	394,535	0,361120	22,300000	51,625000
3,625868	1024,666303	395,288	0,356628	22,300000	51,625000
3,610911	1010,103488	396,041	0,350482	22,300000	51,590000
3,595858	999,216667	396,791	0,345888	22,300000	51,590000
3,580938	989,011358	397,542	0,341582	22,300000	51,590000
3,565884	976,973258	398,296	0,336501	22,300000	51,590000
3,550907	963,091954	399,047	0,330644	22,300000	51,590000
3,535909	953,748658	399,798	0,326701	22,320000	51,600000
3,520946	942,234708	400,549	0,321842	22,320000	51,600000
3,505915	928,471425	401,299	0,316034	22,320000	51,600000
3,490947	918,768282	402,052	0,311939	22,320000	51,600000
3,475941	906,211817	402,803	0,306640	22,320000	51,600000
3,460957	896,108329	403,553	0,302376	22,300000	51,590000
3,445911	883,057798	404,306	0,296869	22,300000	51,590000
3,430906	873,087372	405,056	0,292662	22,300000	51,590000
3,415923	861,856904	405,807	0,287922	22,310000	51,640000
3,400913	850,256174	406,558	0,283027	22,310000	51,640000
3,385902	839,235134	407,312	0,278376	22,310000	51,640000
3,370909	827,791765	408,062	0,273547	22,310000	51,615000
3,355919	814,084021	408,814	0,267762	22,310000	51,615000
3,340967	804,090455	409,566	0,263545	22,310000	51,615000
3,325936	793,901344	410,317	0,259245	22,310000	51,615000
3,310926	782,011348	411,067	0,254228	22,310000	51,615000
3,295977	769,344963	411,819	0,248882	22,310000	51,600000
3,280974	759,922986	412,571	0,244906	22,310000	51,600000
3,265928	747,743724	413,323	0,239767	22,310000	51,600000
3,250960	737,507174	414,076	0,235447	22,310000	51,615000
3,235999	724,041256	414,827	0,229764	22,310000	51,615000
3,221006	713,687842	415,577	0,225395	22,310000	51,615000
3,206008	701,686769	416,330	0,220331	22,310000	51,615000
3,191032	692,289090	417,082	0,216365	22,310000	51,615000
3,175980	679,387820	417,833	0,210920	22,300000	51,600000
3,160992	668,485958	418,584	0,206320	22,300000	51,600000
3,146061	658,398669	419,335	0,202063	22,300000	51,600000
3,130977	648,349563	420,087	0,197822	22,310000	51,615000
3,116019	637,157277	420,837	0,193099	22,310000	51,615000
3,101031	623,676318	421,587	0,187410	22,310000	51,590000
3,085986	613,901437	422,338	0,183285	22,310000	51,590000
3,071016	601,431752	423,089	0,178023	22,310000	51,590000
3,056044	592,503841	423,841	0,174255	22,300000	51,615000
3,041046	579,328347	424,591	0,168695	22,300000	51,615000
3,026040	570,589038	425,341	0,165007	22,300000	51,615000
3,011057	559,357413	426,094	0,160268	22,300000	51,615000
2,996025	546,306881	426,844	0,154760	22,300000	51,615000
2,980998	535,318239	427,594	0,150123	22,300000	51,600000
2,966080	524,267115	428,345	0,145459	22,300000	51,600000
2,951029	513,207892	429,098	0,140792	22,300000	51,600000
2,936031	502,892661	429,851	0,136439	22,310000	51,590000
2,920996	491,010765	430,604	0,131425	22,310000	51,590000
2,906058	482,772466	431,355	0,127949	22,310000	51,590000
2,891006	470,458984	432,105	0,122752	22,300000	51,600000
2,876002	460,442276	432,855	0,118525	22,300000	51,600000
2,861027	448,347480	433,609	0,113421	22,300000	51,600000
2,846027	436,316323	434,361	0,108344	22,300000	51,600000
2,831034	427,107246	435,111	0,104458	22,300000	51,600000
2,816059	414,472101	435,863	0,099126	22,310000	51,590000
2,801041	406,391162	436,614	0,095716	22,310000	51,590000
2,786074	393,591714	437,364	0,090314	22,310000	51,590000
2,771050	381,952801	438,115	0,085403	22,290000	51,585000
2,756078	373,377795	438,866	0,081784	22,290000	51,585000
2,741105	360,978691	439,618	0,076552	22,290000	51,585000
2,726025	351,643495	440,369	0,072612	22,290000	51,585000
2,711046	338,404362	441,120	0,067025	22,290000	51,585000
2,696027	329,901094	441,872	0,063437	22,310000	51,615000
2,681113	319,429660	442,623	0,059018	22,310000	51,615000
2,666094	308,173736	443,375	0,054268	22,310000	51,615000
2,651094	296,534823	444,125	0,049356	22,310000	51,625000
2,636096	286,360754	444,876	0,045063	22,310000	51,625000
2,621078	275,372112	445,628	0,040426	22,300000	51,615000
2,606013	264,649595	446,379	0,035901	22,300000	51,615000
2,591036	251,590964	447,133	0,030390	22,300000	51,615000
2,576049	243,102738	447,884	0,026808	22,300000	51,615000
2,561075	233,038590	448,635	0,022561	22,300000	51,615000
2,546074	221,815064	449,386	0,017825	22,300000	51,615000
2,531129	209,524724	450,137	0,012638	22,310000	51,640000
2,516082	198,269957	450,889	0,007889	22,310000	51,640000
2,501032	189,796773	451,641	0,004313	22,310000	51,640000
2,486051	177,302790	452,392	-0,000959	22,310000	51,640000
2,471078	169,057548	453,143	-0,004439	22,310000	51,640000
2,456068	157,504258	453,894	-0,009314	22,310000	51,590000
2,441084	147,228368	454,645	-0,013651	22,310000	51,590000
2,426068	137,078597	455,397	-0,017934	22,310000	51,590000
2,411094	126,638403	456,148	-0,022340	22,300000	51,625000
2,396105	115,422977	456,899	-0,027073	22,300000	51,625000
2,381083	103,602405	457,649	-0,032061	22,310000	51,615000
2,366058	91,884812	458,399	-0,037006	22,310000	51,615000
2,351112	81,444618	459,149	-0,041412	22,310000	51,615000
2,336105	70,730200	459,901	-0,045933	22,310000	51,615000
2,321130	61,191360	460,652	-0,049958	22,310000	51,615000
2,306050	52,123445	461,403	-0,053785	22,310000	51,615000
2,291099	41,118604	462,154	-0,058429	22,310000	51,625000
2,276084	30,811473	462,906	-0,062779	22,310000	51,625000
2,261127	20,599221	463,658	-0,067088	22,310000	51,625000
2,246047	9,633720	464,410	-0,071716	22,310000	51,625000
2,231097	-3,479293	465,163	-0,077250	22,310000	51,625000
2,216070	-11,505850	465,913	-0,080637	22,310000	51,600000
2,201052	-23,638829	466,663	-0,085757	22,310000	51,600000
2,186081	-32,080772	467,415	-0,089319	22,320000	51,615000
2,171021	-44,261191	468,165	-0,094459	22,320000	51,615000
2,156080	-52,693878	468,915	-0,098018	22,320000	51,615000
2,141045	-63,918561	469,665	-0,102755	22,300000	51,600000
2,126101	-75,330689	470,416	-0,107571	22,300000	51,600000
2,111078	-83,567832	471,168	-0,111047	22,300000	51,600000
2,096052	-95,598989	471,921	-0,116124	22,310000	51,615000
2,081091	-104,683103	472,671	-0,119958	22,310000	51,615000
2,066095	-115,727285	473,423	-0,124618	22,300000	51,650000
2,051085	-123,808223	474,174	-0,128028	22,300000	51,650000
2,036126	-133,848073	474,926	-0,132265	22,300000	51,650000
2,021071	-145,942869	475,679	-0,137369	22,310000	51,615000
2,006102	-154,063148	476,430	-0,140796	22,310000	51,615000
1,991100	-163,946794	477,182	-0,144967	22,310000	51,615000
1,976101	-173,633738	477,934	-0,149055	22,310000	51,615000
1,961119	-182,867113	478,685	-0,152951	22,310000	51,615000
1,946049	-195,016291	479,437	-0,158078	22,290000	51,620000
1,931157	-202,164636	480,188	-0,161095	22,290000	51,620000
1,916104	-212,307464	480,939	-0,165375	22,290000	51,620000
1,901137	-224,612846	481,689	-0,170568	22,300000	51,615000
1,886088	-233,327857	482,440	-0,174246	22,300000	51,615000
1,871080	-244,270216	483,192	-0,178863	22,300000	51,615000
1,856119	-252,429836	483,944	-0,182307	22,310000	51,615000
1,841116	-264,272392	484,694	-0,187304	22,310000	51,615000
1,826129	-275,237892	485,446	-0,191932	22,310000	51,640000
1,811126	-283,428753	486,197	-0,195388	22,310000	51,640000
1,796088	-293,547282	486,947	-0,199658	22,310000	51,640000
1,781159	-303,752592	487,701	-0,203965	22,290000	51,635000
1,766107	-315,933011	488,452	-0,209105	22,290000	51,635000
1,751163	-326,913553	489,205	-0,213739	22,290000	51,635000
1,736072	-335,229376	489,956	-0,217248	22,290000	51,635000
1,721088	-344,595814	490,706	-0,221201	22,290000	51,635000
1,706191	-354,300115	491,456	-0,225296	22,310000	51,625000
1,691136	-365,257516	492,208	-0,229920	22,310000	51,625000
1,676097	-372,381563	492,961	-0,232926	22,310000	51,625000
1,661126	-381,560556	493,714	-0,236800	22,320000	51,625000
1,646148	-390,565990	494,468	-0,240600	22,320000	51,625000
1,631129	-398,489568	495,218	-0,243944	22,320000	51,625000
1,616140	-407,934686	495,970	-0,247930	22,300000	51,625000
1,601042	-417,481626	496,723	-0,251958	22,300000	51,625000
1,586120	-426,511358	497,475	-0,255769	22,300000	51,625000
1,571167	-437,460660	498,228	-0,260390	22,300000	51,625000
1,556155	-445,016291	498,981	-0,263578	22,300000	51,625000
1,541134	-454,327190	499,732	-0,267507	22,300000	51,625000
1,526164	-465,699978	500,483	-0,272307	22,300000	51,625000
1,511101	-472,127471	501,234	-0,275019	22,300000	51,625000
1,496108	-481,869955	501,985	-0,279130	22,290000	51,610000
1,481147	-487,348656	502,736	-0,281442	22,290000	51,610000
1,466187	-496,401529	503,487	-0,285263	22,310000	51,625000
1,451144	-505,588622	504,239	-0,289140	22,310000	51,625000
1,436158	-513,802623	504,992	-0,292606	22,310000	51,625000
1,421114	-520,589964	505,742	-0,295470	22,310000	51,615000
1,406146	-527,252342	506,493	-0,298282	22,310000	51,615000
1,391086	-534,917895	507,244	-0,301517	22,310000	51,615000
1,376109	-543,186278	507,995	-0,305006	22,300000	51,600000
1,361140	-551,966084	508,745	-0,308711	22,300000	51,600000
1,346137	-559,889662	509,497	-0,312055	22,310000	51,615000
1,331168	-568,597730	510,249	-0,315729	22,310000	51,615000
1,316225	-573,794107	510,999	-0,317922	22,310000	51,615000
1,301107	-581,843806	511,749	-0,321319	22,310000	51,615000
1,286143	-589,987226	512,500	-0,324756	22,310000	51,615000
1,271128	-600,302457	513,251	-0,329109	22,310000	51,615000
1,256154	-605,412054	514,003	-0,331265	22,310000	51,640000
1,241180	-615,359338	514,755	-0,335463	22,310000	51,640000
1,226165	-624,748917	515,507	-0,339425	22,300000	51,615000
1,211196	-630,894087	516,258	-0,342019	22,300000	51,615000
1,196186	-639,828940	517,010	-0,345789	22,300000	51,615000
1,181141	-646,867363	517,762	-0,348759	22,300000	51,615000
1,166163	-655,348647	518,512	-0,352338	22,300000	51,615000
1,151146	-661,681261	519,266	-0,355011	22,300000	51,615000
1,136092	-666,893837	520,016	-0,357210	22,300000	51,615000
1,121173	-673,556215	520,770	-0,360022	22,300000	51,615000
1,106130	-679,269800	521,522	-0,362433	22,320000	51,615000
1,091179	-682,208744	522,273	-0,363673	22,320000	51,615000
1,076131	-688,613096	523,024	-0,366376	22,320000	51,615000
1,061106	-695,126213	523,776	-0,369125	22,310000	51,625000
1,046180	-703,387654	524,530	-0,372611	22,310000	51,625000
1,031116	-708,889496	525,283	-0,374933	22,310000	51,625000
1,016134	-710,677160	526,034	-0,375687	22,310000	51,625000
1,001129	-715,794857	526,785	-0,377847	22,310000	51,625000
0,986170	-717,385821	527,537	-0,378518	22,310000	51,625000
0,971192	-719,988059	528,289	-0,379616	22,310000	51,625000
0,956103	-725,811565	529,041	-0,382074	22,310000	51,625000
0,941187	-727,630471	529,792	-0,382841	22,310000	51,625000
0,926079	-735,279824	530,544	-0,386069	22,310000	51,625000
0,911134	-739,950894	531,296	-0,388041	22,310000	51,625000
0,896135	-736,995751	532,049	-0,386793	22,300000	51,625000
0,881137	-732,497084	532,800	-0,384895	22,300000	51,625000
0,866184	-722,559057	533,554	-0,380701	22,300000	51,625000
0,851128	-702,696886	534,307	-0,372319	22,300000	51,625000
0,836148	-0,540349	535,059	-0,076009	22,300000	51,625000
0,821141	-0,540349	535,811	-0,076009	22,310000	51,625000
0,806109	-0,297366	536,561	-0,075907	22,310000	51,625000
0,791189	-0,179345	537,314	-0,075857	22,310000	51,625000
0,776169	-0,251083	538,066	-0,075887	22,310000	51,625000
0,761171	0,047440	538,819	-0,075761	22,310000	51,625000
0,746111	0,000000	539,571	-0,075781	22,310000	51,625000
0,731119	0,109921	540,325	-0,075735	22,310000	51,625000
0,716139	0,070581	541,076	-0,075751	22,310000	51,625000
0,701157	-0,031241	541,829	-0,075794	22,310000	51,625000
0,686075	-0,046283	542,582	-0,075801	22,310000	51,625000
0,671203	0,141162	543,333	-0,075722	22,310000	51,625000
0,656142	-0,085623	544,083	-0,075817	22,310000	51,575000
0,650128	0,039340	544,383	-0,075765	22,310000	51,575000