File: Nanoindentation Datenauswertung/data/PDMS_10-1/30.09/APM-PDMS10-1-100ms,4um,20nms,2um offset,16cycles(5x1)
Quasi static measurement routine
Tip parameters (shape,radius, material...)
30.09.2022

Piezo position[nm]	MEMS displ.[nm]	Time[ms]	Cap [pf]	Temp [°C]	Rh [%]
eoh

X-Pos [um]	Y-Pos [um]
0,000314	0,000635

POC
3,423894
1,443998	0,141162	2,062	-0,076158	0,000000	0,000000
1,465999	0,290423	3,169	-0,076095	0,000000	0,000000
1,488011	0,188602	4,273	-0,076138	0,000000	0,000000
1,509985	0,164303	5,378	-0,076148	0,000000	0,000000
1,532005	0,180502	6,482	-0,076142	0,000000	0,000000
1,553998	-0,085623	7,588	-0,076254	0,000000	0,000000
1,576017	0,219842	8,689	-0,076125	0,000000	0,000000
1,598014	0,086780	9,791	-0,076181	0,000000	0,000000
1,620020	0,164303	10,899	-0,076148	0,000000	0,000000
1,642004	0,517208	12,001	-0,076000	0,000000	0,000000
1,663983	0,344805	13,104	-0,076072	0,000000	0,000000
1,686029	0,070581	14,209	-0,076188	0,000000	0,000000
1,707990	-0,141162	15,312	-0,076277	0,000000	0,000000
1,729983	0,124963	16,416	-0,076165	0,000000	0,000000
1,751959	0,086780	17,516	-0,076181	0,000000	0,000000
1,774003	0,149261	18,618	-0,076155	0,000000	0,000000
1,796003	0,047440	19,720	-0,076198	0,000000	0,000000
1,817971	0,070581	20,824	-0,076188	0,000000	0,000000
1,839977	-0,062481	21,926	-0,076244	0,000000	0,000000
1,861978	0,203643	23,029	-0,076132	0,000000	0,000000
1,883940	-0,054382	24,130	-0,076241	0,000000	0,000000
1,905952	0,094879	25,231	-0,076178	0,000000	0,000000
1,928004	0,439685	26,336	-0,076032	0,000000	0,000000
1,949992	0,062481	27,437	-0,076191	0,000000	0,000000
1,971994	0,313564	28,540	-0,076085	0,000000	0,000000
1,993937	0,086780	29,642	-0,076181	0,000000	0,000000
2,015955	0,227942	30,744	-0,076122	0,000000	0,000000
2,037961	0,367947	31,847	-0,076063	0,000000	0,000000
2,059950	0,086780	32,949	-0,076181	0,000000	0,000000
2,081964	0,306622	34,052	-0,076088	0,000000	0,000000
2,103936	0,070581	35,157	-0,076188	0,000000	0,000000
2,125944	-0,008099	36,258	-0,076221	0,000000	0,000000
2,147959	0,133062	37,362	-0,076162	0,000000	0,000000
2,169968	0,118021	38,467	-0,076168	0,000000	0,000000
2,191925	-0,039340	39,569	-0,076234	0,000000	0,000000
2,213933	0,133062	40,672	-0,076162	0,000000	0,000000
2,235920	-0,015042	41,773	-0,076224	0,000000	0,000000
2,257964	0,094879	42,878	-0,076178	0,000000	0,000000
2,279941	0,047440	43,980	-0,076198	0,000000	0,000000
2,301888	-0,156204	45,085	-0,076284	0,000000	0,000000
2,323948	-0,023141	46,189	-0,076228	0,000000	0,000000
2,345938	0,078680	47,292	-0,076185	0,000000	0,000000
2,367969	0,203643	48,396	-0,076132	0,000000	0,000000
2,389945	-0,008099	49,496	-0,076221	0,000000	0,000000
2,411959	0,008099	50,604	-0,076214	0,000000	0,000000
2,433973	0,227942	51,707	-0,076122	0,000000	0,000000
2,455925	0,094879	52,810	-0,076178	0,000000	0,000000
2,478008	0,219842	53,911	-0,076125	0,000000	0,000000
2,499954	0,219842	55,015	-0,076125	0,000000	0,000000
2,521918	0,101822	56,119	-0,076175	0,000000	0,000000
2,543940	0,203643	57,223	-0,076132	0,000000	0,000000
2,565944	0,086780	58,326	-0,076181	0,000000	0,000000
2,587877	0,157361	59,430	-0,076151	0,000000	0,000000
2,609931	-0,109921	60,531	-0,076264	0,000000	0,000000
2,631960	0,133062	61,636	-0,076162	0,000000	0,000000
2,653963	0,055539	62,737	-0,076194	0,000000	0,000000
2,675914	0,109921	63,840	-0,076171	0,000000	0,000000
2,697920	0,242984	64,940	-0,076115	0,000000	0,000000
2,719985	0,211743	66,041	-0,076128	0,000000	0,000000
2,741933	0,024298	67,145	-0,076208	0,000000	0,000000
2,763953	0,070581	68,250	-0,076188	0,000000	0,000000
2,785920	0,188602	69,354	-0,076138	0,000000	0,000000
2,807936	0,078680	70,458	-0,076185	0,000000	0,000000
2,829923	-0,070581	71,561	-0,076248	0,000000	0,000000
2,851910	0,336706	72,665	-0,076076	0,000000	0,000000
2,873946	0,306622	73,771	-0,076088	0,000000	0,000000
2,895918	0,321664	74,874	-0,076082	0,000000	0,000000
2,917936	0,196701	75,978	-0,076135	0,000000	0,000000
2,939943	0,124963	77,081	-0,076165	0,000000	0,000000
2,961905	-0,039340	78,184	-0,076234	0,000000	0,000000
2,983899	0,055539	79,287	-0,076194	0,000000	0,000000
3,005931	0,172403	80,391	-0,076145	0,000000	0,000000
3,027880	-0,085623	81,495	-0,076254	0,000000	0,000000
3,049893	0,164303	82,599	-0,076148	0,000000	0,000000
3,071887	-198,120696	83,700	-0,159825	0,000000	0,000000
3,093911	-192,806298	84,801	-0,157582	0,000000	0,000000
3,115907	-182,099980	85,902	-0,153064	0,000000	0,000000
3,137932	-169,472934	87,006	-0,147735	0,000000	0,000000
3,159937	-157,645420	88,108	-0,142744	0,000000	0,000000
3,181863	-144,461826	89,211	-0,137181	0,000000	0,000000
3,203875	-133,128379	90,317	-0,132398	0,000000	0,000000
3,225902	-120,289590	91,422	-0,126980	0,000000	0,000000
3,247866	-107,372121	92,528	-0,121529	0,000000	0,000000
3,269862	-92,589464	93,630	-0,115291	0,000000	0,000000
3,291853	-80,072340	94,735	-0,110008	0,000000	0,000000
3,313883	-67,374713	95,840	-0,104650	0,000000	0,000000
3,335917	-54,003675	96,942	-0,099007	0,000000	0,000000
3,357901	-39,613263	98,049	-0,092935	0,000000	0,000000
3,379830	-27,213002	99,152	-0,087702	0,000000	0,000000
3,401878	-12,289183	100,255	-0,081404	0,000000	0,000000
3,423843	-0,078680	101,358	-0,076251	0,000000	0,000000
3,445803	15,073080	102,463	-0,069857	0,000000	0,000000
3,467846	28,091214	103,568	-0,064363	0,000000	0,000000
3,489849	42,545264	104,675	-0,058264	0,000000	0,000000
3,511838	56,551531	105,779	-0,052353	0,000000	0,000000
3,533822	70,322914	106,884	-0,046542	0,000000	0,000000
3,547849	78,497575	107,985	-0,043092	0,000000	0,000000
3,547784	77,282657	109,089	-0,043604	0,000000	0,000000
3,547843	76,545607	110,194	-0,043916	0,000000	0,000000
3,547825	75,847897	111,294	-0,044210	0,000000	0,000000
3,547785	75,166386	112,401	-0,044498	0,000000	0,000000
3,547807	74,829680	113,502	-0,044640	0,000000	0,000000
3,547810	74,288174	114,606	-0,044868	0,000000	0,000000
3,547807	73,990808	115,708	-0,044994	0,000000	0,000000
3,547800	73,897086	116,810	-0,045033	0,000000	0,000000
3,541799	70,079930	117,911	-0,046644	0,000000	0,000000
3,519830	53,243483	119,015	-0,053749	0,000000	0,000000
3,535838	65,133479	120,053	-0,048731	0,000000	0,000000
3,557837	79,924235	121,158	-0,042490	0,000000	0,000000
3,579793	95,427744	122,262	-0,035947	0,000000	0,000000
3,601798	108,892504	123,367	-0,030265	0,000000	0,000000
3,623824	124,757016	124,470	-0,023570	0,000000	0,000000
3,645834	138,551540	125,572	-0,017749	0,000000	0,000000
3,667806	153,044931	126,675	-0,011633	0,000000	0,000000
3,671829	155,035082	127,779	-0,010793	0,000000	0,000000
3,671796	154,432252	128,887	-0,011047	0,000000	0,000000
3,671773	153,961326	129,990	-0,011246	0,000000	0,000000
3,671751	153,429077	131,094	-0,011471	0,000000	0,000000
3,671779	152,950052	132,199	-0,011673	0,000000	0,000000
3,671813	152,715168	133,301	-0,011772	0,000000	0,000000
3,671800	152,417802	134,402	-0,011897	0,000000	0,000000
3,671755	152,150520	135,506	-0,012010	0,000000	0,000000
3,671752	151,931835	136,609	-0,012103	0,000000	0,000000
3,655809	140,166802	137,713	-0,017067	0,000000	0,000000
3,633812	126,372279	138,816	-0,022889	0,000000	0,000000
3,611830	109,002425	139,920	-0,030219	0,000000	0,000000
3,627817	119,889246	140,954	-0,025625	0,000000	0,000000
3,649835	136,914294	142,056	-0,018440	0,000000	0,000000
3,671735	150,731959	143,158	-0,012609	0,000000	0,000000
3,693792	166,588372	144,260	-0,005917	0,000000	0,000000
3,715832	181,504091	145,363	0,000377	0,000000	0,000000
3,737800	195,855163	146,467	0,006433	0,000000	0,000000
3,759758	210,207392	147,570	0,012490	0,000000	0,000000
3,781792	226,078847	148,672	0,019187	0,000000	0,000000
3,795794	235,280982	149,779	0,023071	0,000000	0,000000
3,795764	234,238466	150,879	0,022631	0,000000	0,000000
3,795821	233,360254	151,986	0,022260	0,000000	0,000000
3,795793	232,756267	153,089	0,022005	0,000000	0,000000
3,795796	232,670644	154,191	0,021969	0,000000	0,000000
3,795749	232,215918	155,293	0,021777	0,000000	0,000000
3,795727	232,051614	156,397	0,021708	0,000000	0,000000
3,795766	231,902353	157,500	0,021645	0,000000	0,000000
3,795787	231,565647	158,600	0,021503	0,000000	0,000000
3,789712	228,563065	159,705	0,020236	0,000000	0,000000
3,767750	212,668469	160,807	0,013528	0,000000	0,000000
3,745796	196,827098	161,910	0,006843	0,000000	0,000000
3,723761	180,407194	163,011	-0,000086	0,000000	0,000000
3,703777	166,643911	164,112	-0,005894	0,000000	0,000000
3,725808	181,159286	165,163	0,000231	0,000000	0,000000
3,747818	198,176235	166,269	0,007413	0,000000	0,000000
3,769795	212,808473	167,373	0,013587	0,000000	0,000000
3,791754	227,802873	168,477	0,019915	0,000000	0,000000
3,813780	244,419478	169,580	0,026927	0,000000	0,000000
3,835826	257,759275	170,684	0,032557	0,000000	0,000000
3,857775	273,185260	171,788	0,039066	0,000000	0,000000
3,879799	287,661295	172,893	0,045175	0,000000	0,000000
3,901766	302,325931	173,999	0,051364	0,000000	0,000000
3,919737	315,627546	175,104	0,056977	0,000000	0,000000
3,919808	314,742391	176,207	0,056604	0,000000	0,000000
3,919759	314,279565	177,309	0,056408	0,000000	0,000000
3,919812	313,598054	178,414	0,056121	0,000000	0,000000
3,919783	313,237050	179,516	0,055968	0,000000	0,000000
3,919729	312,759182	180,619	0,055767	0,000000	0,000000
3,919788	312,829763	181,720	0,055796	0,000000	0,000000
3,919782	312,468759	182,822	0,055644	0,000000	0,000000
3,919749	312,132053	183,925	0,055502	0,000000	0,000000
3,917785	310,313148	185,028	0,054734	0,000000	0,000000
3,895792	294,363013	186,131	0,048003	0,000000	0,000000
3,873777	279,470435	187,238	0,041719	0,000000	0,000000
3,851798	263,725100	188,340	0,035074	0,000000	0,000000
3,829728	249,137987	189,440	0,028918	0,000000	0,000000
3,807771	233,109171	190,543	0,022154	0,000000	0,000000
3,803735	229,300115	191,589	0,020547	0,000000	0,000000
3,825821	245,461993	192,695	0,027367	0,000000	0,000000
3,847812	261,090464	193,799	0,033962	0,000000	0,000000
3,869760	276,132303	194,902	0,040310	0,000000	0,000000
3,891752	292,505924	196,007	0,047220	0,000000	0,000000
3,913746	308,252416	197,111	0,053865	0,000000	0,000000
3,935770	322,306122	198,219	0,059795	0,000000	0,000000
3,957756	337,330606	199,320	0,066136	0,000000	0,000000
3,979771	353,766708	200,421	0,073072	0,000000	0,000000
4,001785	368,385062	201,527	0,079241	0,000000	0,000000
4,023773	383,308881	202,627	0,085539	0,000000	0,000000
4,043769	396,837280	203,727	0,091248	0,000000	0,000000
4,043761	395,699885	204,827	0,090768	0,000000	0,000000
4,043785	395,676744	205,931	0,090758	0,000000	0,000000
4,043722	394,806631	207,036	0,090391	0,000000	0,000000
4,043741	394,814731	208,144	0,090394	0,000000	0,000000
4,043686	394,179502	209,247	0,090126	0,000000	0,000000
4,043749	393,959660	210,352	0,090033	0,000000	0,000000
4,043731	393,544274	211,457	0,089858	0,000000	0,000000
4,043737	393,238809	212,561	0,089729	0,000000	0,000000
4,043751	393,168228	213,664	0,089699	0,000000	0,000000
4,021685	376,677744	214,770	0,082740	0,000000	0,000000
3,999732	361,095555	215,872	0,076165	0,000000	0,000000
3,977727	346,815064	216,975	0,070138	0,000000	0,000000
3,955750	331,193535	218,077	0,063546	0,000000	0,000000
3,933770	315,031657	219,183	0,056726	0,000000	0,000000
3,911779	300,790507	220,286	0,050716	0,000000	0,000000
3,889737	285,506841	221,391	0,044266	0,000000	0,000000
3,909784	299,442526	222,445	0,050147	0,000000	0,000000
3,931792	313,974100	223,547	0,056279	0,000000	0,000000
3,953737	329,681252	224,650	0,062908	0,000000	0,000000
3,975666	345,089881	225,751	0,069410	0,000000	0,000000
3,997769	361,189277	226,854	0,076204	0,000000	0,000000
4,019722	375,666469	227,958	0,082313	0,000000	0,000000
4,041783	390,950135	229,060	0,088763	0,000000	0,000000
4,063749	407,794681	230,161	0,095872	0,000000	0,000000
4,085790	421,471184	231,268	0,101643	0,000000	0,000000
4,107731	438,174569	232,372	0,108692	0,000000	0,000000
4,129748	451,780491	233,476	0,114434	0,000000	0,000000
4,151722	466,398845	234,580	0,120603	0,000000	0,000000
4,167682	478,438102	235,683	0,125683	0,000000	0,000000
4,167706	477,513607	236,786	0,125293	0,000000	0,000000
4,167694	476,924661	237,887	0,125044	0,000000	0,000000
4,167752	476,932761	238,991	0,125048	0,000000	0,000000
4,167727	476,157527	240,095	0,124721	0,000000	0,000000
4,167685	475,953884	241,199	0,124635	0,000000	0,000000
4,167685	475,538498	242,302	0,124459	0,000000	0,000000
4,167639	475,482959	243,406	0,124436	0,000000	0,000000
4,167696	475,169394	244,508	0,124304	0,000000	0,000000
4,163697	472,457235	245,612	0,123159	0,000000	0,000000
4,141740	457,431594	246,716	0,116818	0,000000	0,000000
4,119699	440,016615	247,819	0,109469	0,000000	0,000000
4,097756	424,473767	248,921	0,102910	0,000000	0,000000
4,075714	409,408786	250,025	0,096553	0,000000	0,000000
4,053723	393,834697	251,130	0,089980	0,000000	0,000000
4,031784	379,271882	252,233	0,083835	0,000000	0,000000
4,009757	362,875120	253,338	0,076916	0,000000	0,000000
3,987773	348,115605	254,440	0,070687	0,000000	0,000000
3,995719	352,638570	255,497	0,072596	0,000000	0,000000
4,017754	368,753008	256,604	0,079396	0,000000	0,000000
4,039745	384,671903	257,710	0,086114	0,000000	0,000000
4,061768	401,759432	258,813	0,093325	0,000000	0,000000
4,083748	416,486550	259,916	0,099540	0,000000	0,000000
4,105786	432,868271	261,019	0,106453	0,000000	0,000000
4,127736	446,560973	262,122	0,112231	0,000000	0,000000
4,149712	463,240059	263,226	0,119270	0,000000	0,000000
4,171702	478,837289	264,328	0,125852	0,000000	0,000000
4,193689	492,523049	265,429	0,131627	0,000000	0,000000
4,215718	508,606246	266,532	0,138414	0,000000	0,000000
4,237685	523,608746	267,632	0,144745	0,000000	0,000000
4,259757	538,140320	268,740	0,150877	0,000000	0,000000
4,281706	553,164803	269,844	0,157218	0,000000	0,000000
4,291690	560,752832	270,949	0,160420	0,000000	0,000000
4,291695	559,953301	272,054	0,160083	0,000000	0,000000
4,291710	559,388653	273,159	0,159844	0,000000	0,000000
4,291714	559,294931	274,262	0,159805	0,000000	0,000000
4,291751	558,855247	275,362	0,159619	0,000000	0,000000
4,291729	558,950126	276,467	0,159659	0,000000	0,000000
4,291715	558,495400	277,569	0,159467	0,000000	0,000000
4,291708	558,439860	278,671	0,159444	0,000000	0,000000
4,291721	557,953893	279,774	0,159239	0,000000	0,000000
4,281689	551,699959	280,878	0,156600	0,000000	0,000000
4,259719	534,848471	281,981	0,149488	0,000000	0,000000
4,237735	519,218843	283,085	0,142893	0,000000	0,000000
4,215676	503,997658	284,190	0,136469	0,000000	0,000000
4,193709	486,996908	285,292	0,129295	0,000000	0,000000
4,171718	472,645836	286,399	0,123239	0,000000	0,000000
4,149722	457,408453	287,502	0,116809	0,000000	0,000000
4,127721	441,865605	288,604	0,110250	0,000000	0,000000
4,105742	426,488216	289,708	0,103760	0,000000	0,000000
4,083780	410,098397	290,812	0,096844	0,000000	0,000000
4,087834	413,790590	291,847	0,098402	0,000000	0,000000
4,109771	428,839372	292,950	0,104752	0,000000	0,000000
4,131746	444,868187	294,055	0,111517	0,000000	0,000000
4,153747	460,685260	295,158	0,118191	0,000000	0,000000
4,175705	475,890245	296,262	0,124608	0,000000	0,000000
4,197750	491,574256	297,365	0,131227	0,000000	0,000000
4,219714	507,932835	298,472	0,138130	0,000000	0,000000
4,241753	522,707392	299,578	0,144365	0,000000	0,000000
4,263724	537,841797	300,680	0,150751	0,000000	0,000000
4,285724	554,622704	301,786	0,157833	0,000000	0,000000
4,307707	569,241058	302,890	0,164002	0,000000	0,000000
4,329678	584,682085	303,991	0,170518	0,000000	0,000000
4,351711	599,872029	305,092	0,176928	0,000000	0,000000
4,373734	614,341121	306,196	0,183034	0,000000	0,000000
4,395702	629,506767	307,299	0,189434	0,000000	0,000000
4,415677	644,626129	308,402	0,195814	0,000000	0,000000
4,415684	643,913378	309,504	0,195514	0,000000	0,000000
4,415635	643,145087	310,610	0,195189	0,000000	0,000000
4,415631	643,066406	311,719	0,195156	0,000000	0,000000
4,415657	642,416136	312,823	0,194882	0,000000	0,000000
4,415703	642,173152	313,926	0,194779	0,000000	0,000000
4,415742	641,711484	315,031	0,194584	0,000000	0,000000
4,415699	641,851488	316,139	0,194644	0,000000	0,000000
4,415688	641,711484	317,241	0,194584	0,000000	0,000000
4,415695	641,499741	318,346	0,194495	0,000000	0,000000
4,393630	626,364179	319,449	0,188108	0,000000	0,000000
4,371645	608,893661	320,554	0,180735	0,000000	0,000000
4,349675	592,692443	321,656	0,173898	0,000000	0,000000
4,327694	578,136571	322,760	0,167756	0,000000	0,000000
4,305699	562,570581	323,864	0,161187	0,000000	0,000000
4,283679	545,985217	324,967	0,154188	0,000000	0,000000
4,261692	530,458568	326,070	0,147636	0,000000	0,000000
4,239693	516,475442	327,172	0,141735	0,000000	0,000000
4,217686	500,925652	328,276	0,135173	0,000000	0,000000
4,195690	485,194202	329,381	0,128534	0,000000	0,000000
4,173675	470,106080	330,483	0,122167	0,000000	0,000000
4,181679	474,620946	331,518	0,124072	0,000000	0,000000
4,203716	490,319998	332,622	0,130697	0,000000	0,000000
4,225773	506,662378	333,725	0,137594	0,000000	0,000000
4,247700	523,686269	334,830	0,144778	0,000000	0,000000
4,269728	538,618187	335,932	0,151079	0,000000	0,000000
4,291691	553,540849	337,034	0,157376	0,000000	0,000000
4,313728	569,405361	338,137	0,164071	0,000000	0,000000
4,335705	584,798948	339,240	0,170567	0,000000	0,000000
4,357723	601,776557	340,343	0,177732	0,000000	0,000000
4,379653	616,229451	341,448	0,183831	0,000000	0,000000
4,401706	631,270133	342,580	0,190178	0,000000	0,000000
4,423682	648,287082	343,683	0,197359	0,000000	0,000000
4,445673	662,779315	344,787	0,203475	0,000000	0,000000
4,467654	677,256507	345,890	0,209584	0,000000	0,000000
4,489663	692,845638	346,994	0,216163	0,000000	0,000000
4,511683	708,106163	348,097	0,222603	0,000000	0,000000
4,533604	723,218583	349,202	0,228980	0,000000	0,000000
4,539656	728,249500	350,309	0,231104	0,000000	0,000000
4,539661	727,246325	351,413	0,230680	0,000000	0,000000
4,539612	726,980200	352,519	0,230568	0,000000	0,000000
4,539648	726,502333	353,620	0,230366	0,000000	0,000000
4,539624	726,070748	354,723	0,230184	0,000000	0,000000
4,539679	725,977025	355,826	0,230145	0,000000	0,000000
4,539647	725,725942	356,930	0,230039	0,000000	0,000000
4,539627	725,459817	358,034	0,229926	0,000000	0,000000
4,539629	725,208734	359,138	0,229820	0,000000	0,000000
4,525660	715,576172	360,241	0,225755	0,000000	0,000000
4,503648	698,175078	361,345	0,218412	0,000000	0,000000
4,481645	683,965168	362,449	0,212416	0,000000	0,000000
4,459685	667,913211	363,552	0,205642	0,000000	0,000000
4,437721	651,539590	364,658	0,198732	0,000000	0,000000
4,415667	634,954227	365,763	0,191733	0,000000	0,000000
4,393639	619,309556	366,867	0,185131	0,000000	0,000000
4,371710	605,280148	367,972	0,179210	0,000000	0,000000
4,349683	589,525557	369,074	0,172562	0,000000	0,000000
4,327706	574,327514	370,175	0,166148	0,000000	0,000000
4,305713	558,847147	371,280	0,159616	0,000000	0,000000
4,283708	541,785073	372,385	0,152416	0,000000	0,000000
4,261739	528,068072	373,490	0,146627	0,000000	0,000000
4,281737	540,240392	374,528	0,151764	0,000000	0,000000
4,303751	557,170561	375,632	0,158908	0,000000	0,000000
4,325737	572,697210	376,736	0,165460	0,000000	0,000000
4,347692	590,325089	377,840	0,172899	0,000000	0,000000
4,369670	604,613679	378,944	0,178929	0,000000	0,000000
4,391610	620,102146	380,049	0,185465	0,000000	0,000000
4,413684	636,287165	381,151	0,192295	0,000000	0,000000
4,435633	651,610171	382,254	0,198762	0,000000	0,000000
4,457673	668,414220	383,355	0,205853	0,000000	0,000000
4,479665	682,476026	384,459	0,211787	0,000000	0,000000
4,501628	698,544181	385,563	0,218568	0,000000	0,000000
4,523589	715,105247	386,666	0,225557	0,000000	0,000000
4,545538	730,232709	387,770	0,231940	0,000000	0,000000
4,567627	746,207142	388,872	0,238682	0,000000	0,000000
4,589665	761,459568	389,974	0,245118	0,000000	0,000000
4,611611	776,390329	391,078	0,251419	0,000000	0,000000
4,633615	790,404695	392,181	0,257333	0,000000	0,000000
4,655520	805,994983	393,286	0,263912	0,000000	0,000000
4,663600	812,186436	394,391	0,266525	0,000000	0,000000
4,663610	811,795348	395,499	0,266360	0,000000	0,000000
4,663597	811,230700	396,599	0,266122	0,000000	0,000000
4,663609	810,831513	397,702	0,265953	0,000000	0,000000
4,663633	810,493650	398,807	0,265811	0,000000	0,000000
4,663591	810,290007	399,911	0,265725	0,000000	0,000000
4,663607	810,306206	401,012	0,265731	0,000000	0,000000
4,663592	809,835280	402,117	0,265533	0,000000	0,000000
4,663594	809,710317	403,220	0,265480	0,000000	0,000000
4,651582	801,981126	404,325	0,262218	0,000000	0,000000
4,629644	784,440027	405,431	0,254816	0,000000	0,000000
4,607610	769,085780	406,532	0,248336	0,000000	0,000000
4,585663	753,495492	407,634	0,241757	0,000000	0,000000
4,563654	736,683344	408,736	0,234663	0,000000	0,000000
4,541639	721,916886	409,838	0,228431	0,000000	0,000000
4,519669	705,668228	410,945	0,221574	0,000000	0,000000
4,497628	688,941702	412,047	0,214516	0,000000	0,000000
4,475642	674,488809	413,150	0,208417	0,000000	0,000000
4,453646	657,794681	414,254	0,201372	0,000000	0,000000
4,431662	643,670394	415,360	0,195411	0,000000	0,000000
4,409671	626,920727	416,462	0,188343	0,000000	0,000000
4,387694	612,295431	417,567	0,182171	0,000000	0,000000
4,365718	597,316073	418,673	0,175850	0,000000	0,000000
4,361722	594,063564	419,756	0,174477	0,000000	0,000000
4,383672	610,735708	420,858	0,181513	0,000000	0,000000
4,405706	626,395420	421,961	0,188121	0,000000	0,000000
4,427705	641,530982	423,063	0,194508	0,000000	0,000000
4,449664	658,939018	424,166	0,201854	0,000000	0,000000
4,471711	673,157028	425,271	0,207854	0,000000	0,000000
4,493692	688,346971	426,372	0,214265	0,000000	0,000000
4,515626	705,566406	427,479	0,221531	0,000000	0,000000
4,537665	721,713242	428,581	0,228345	0,000000	0,000000
4,559621	735,688268	429,684	0,234243	0,000000	0,000000
4,581649	752,994483	430,786	0,241546	0,000000	0,000000
4,603622	768,223767	431,890	0,247973	0,000000	0,000000
4,625635	783,727275	432,991	0,254515	0,000000	0,000000
4,647598	798,383812	434,096	0,260700	0,000000	0,000000
4,669615	813,480034	435,197	0,267071	0,000000	0,000000
4,691620	830,574506	436,302	0,274285	0,000000	0,000000
4,713575	844,588872	437,407	0,280199	0,000000	0,000000
4,735569	861,291099	438,510	0,287247	0,000000	0,000000
4,757596	875,313564	439,614	0,293165	0,000000	0,000000
4,779573	892,447377	440,717	0,300395	0,000000	0,000000
4,787510	897,111504	441,819	0,302363	0,000000	0,000000
4,787594	896,320072	442,922	0,302029	0,000000	0,000000
4,787609	896,100230	444,025	0,301937	0,000000	0,000000
4,787564	895,888487	445,127	0,301847	0,000000	0,000000
4,787595	895,348138	446,228	0,301619	0,000000	0,000000
4,787540	895,246316	447,332	0,301576	0,000000	0,000000
4,787584	894,877212	448,436	0,301420	0,000000	0,000000
4,787576	894,555548	449,539	0,301285	0,000000	0,000000
4,787541	894,241984	450,644	0,301152	0,000000	0,000000
4,775562	886,607672	451,749	0,297931	0,000000	0,000000
4,753607	870,343972	452,851	0,291067	0,000000	0,000000
4,731552	852,952135	453,955	0,283728	0,000000	0,000000
4,709623	838,584864	455,059	0,277665	0,000000	0,000000
4,687570	821,874537	456,165	0,270613	0,000000	0,000000
4,665561	806,379128	457,269	0,264074	0,000000	0,000000
4,643597	790,788840	458,371	0,257495	0,000000	0,000000
4,621576	774,909286	459,474	0,250794	0,000000	0,000000
4,599643	758,041599	460,578	0,243676	0,000000	0,000000
4,577664	742,028982	461,681	0,236918	0,000000	0,000000
4,555587	726,266291	462,785	0,230267	0,000000	0,000000
4,533652	710,810223	463,890	0,223744	0,000000	0,000000
4,511685	696,764616	464,991	0,217817	0,000000	0,000000
4,489632	681,119946	466,097	0,211215	0,000000	0,000000
4,467657	665,608338	467,200	0,204669	0,000000	0,000000
4,447617	650,544515	468,304	0,198312	0,000000	0,000000
4,469655	667,271040	469,342	0,205371	0,000000	0,000000
4,491622	682,288581	470,442	0,211708	0,000000	0,000000
4,513719	700,181428	471,546	0,219259	0,000000	0,000000
4,535700	715,771716	472,651	0,225838	0,000000	0,000000
4,557634	730,295190	473,756	0,231967	0,000000	0,000000
4,579631	745,846138	474,858	0,238529	0,000000	0,000000
4,601627	763,480959	475,961	0,245971	0,000000	0,000000
4,623592	779,000666	477,062	0,252521	0,000000	0,000000
4,645597	794,747158	478,168	0,259166	0,000000	0,000000
4,667616	809,411795	479,271	0,265354	0,000000	0,000000
4,689598	824,688518	480,373	0,271801	0,000000	0,000000
4,711640	841,540007	481,480	0,278912	0,000000	0,000000
4,733576	856,604987	482,584	0,285270	0,000000	0,000000
4,755554	871,943035	483,686	0,291742	0,000000	0,000000
4,777615	888,050531	484,791	0,298540	0,000000	0,000000
4,799603	903,992567	485,891	0,305267	0,000000	0,000000
4,821606	919,684677	486,992	0,311889	0,000000	0,000000
4,843593	933,769624	488,092	0,317833	0,000000	0,000000
4,865561	949,171310	489,192	0,324333	0,000000	0,000000
4,887523	965,787915	490,295	0,331345	0,000000	0,000000
4,909584	980,577514	491,400	0,337586	0,000000	0,000000
4,911555	982,294598	492,502	0,338311	0,000000	0,000000
4,911574	981,816730	493,605	0,338109	0,000000	0,000000
4,911533	981,181502	494,709	0,337841	0,000000	0,000000
4,911555	980,930419	495,811	0,337735	0,000000	0,000000
4,911532	980,899178	496,915	0,337722	0,000000	0,000000
4,911563	980,546273	498,017	0,337573	0,000000	0,000000
4,911594	980,178327	499,121	0,337417	0,000000	0,000000
4,911528	980,029065	500,224	0,337354	0,000000	0,000000
4,911544	979,817323	501,329	0,337265	0,000000	0,000000
4,893593	966,280824	502,434	0,331553	0,000000	0,000000
4,871550	951,232042	503,536	0,325202	0,000000	0,000000
4,849526	933,597221	504,638	0,317760	0,000000	0,000000
4,827616	917,655186	505,744	0,311033	0,000000	0,000000
4,805652	901,720092	506,849	0,304308	0,000000	0,000000
4,783590	887,132979	507,950	0,298152	0,000000	0,000000
4,761615	870,085947	509,053	0,290958	0,000000	0,000000
4,739581	853,720425	510,159	0,284052	0,000000	0,000000
4,717618	838,412461	511,267	0,277592	0,000000	0,000000
4,695566	823,677244	512,369	0,271374	0,000000	0,000000
4,673643	808,456059	513,470	0,264951	0,000000	0,000000
4,651619	792,466584	514,574	0,258203	0,000000	0,000000
4,629621	775,505174	515,677	0,251045	0,000000	0,000000
4,607630	759,922986	516,779	0,244470	0,000000	0,000000
4,585674	745,657537	517,883	0,238450	0,000000	0,000000
4,563630	729,362596	518,986	0,231573	0,000000	0,000000
4,541699	714,290673	520,090	0,225213	0,000000	0,000000
4,557622	724,471684	521,126	0,229509	0,000000	0,000000
4,579602	742,468667	522,230	0,237104	0,000000	0,000000
4,601626	757,179586	523,332	0,243312	0,000000	0,000000
4,623659	774,815564	524,434	0,250754	0,000000	0,000000
4,645639	789,355237	525,536	0,256890	0,000000	0,000000
4,667649	806,676494	526,640	0,264200	0,000000	0,000000
4,689623	821,373528	527,745	0,270402	0,000000	0,000000
4,711607	838,530482	528,849	0,277642	0,000000	0,000000
4,733627	852,802873	529,953	0,283665	0,000000	0,000000
4,755658	868,118937	531,057	0,290128	0,000000	0,000000
4,777644	884,523799	532,160	0,297051	0,000000	0,000000
4,799561	899,666303	533,265	0,303441	0,000000	0,000000
4,821598	916,870696	534,369	0,310702	0,000000	0,000000
4,843603	931,221768	535,472	0,316758	0,000000	0,000000
4,865524	946,662794	536,580	0,323274	0,000000	0,000000
4,887552	962,260025	537,685	0,329856	0,000000	0,000000
4,909575	978,994650	538,789	0,336918	0,000000	0,000000
4,931577	994,356996	539,891	0,343401	0,000000	0,000000
4,953520	1009,507600	540,996	0,349794	0,000000	0,000000
4,975561	1024,956726	542,098	0,356314	0,000000	0,000000
4,997521	1041,729534	543,202	0,363392	0,000000	0,000000
5,019478	1056,308547	544,305	0,369544	0,000000	0,000000
5,035481	1068,566490	545,406	0,374717	0,000000	0,000000
5,035582	1067,845638	546,509	0,374413	0,000000	0,000000
5,035519	1067,179169	547,612	0,374132	0,000000	0,000000
5,035500	1066,991725	548,715	0,374053	0,000000	0,000000
5,035490	1066,512700	549,820	0,373851	0,000000	0,000000
5,035493	1066,340297	550,922	0,373778	0,000000	0,000000
5,035490	1066,136654	552,026	0,373692	0,000000	0,000000
5,035482	1065,878629	553,130	0,373583	0,000000	0,000000
5,035459	1065,517624	554,233	0,373431	0,000000	0,000000
5,031489	1062,288257	555,338	0,372068	0,000000	0,000000
5,009525	1046,809047	556,443	0,365536	0,000000	0,000000
4,987532	1030,450468	557,546	0,358632	0,000000	0,000000
4,965525	1014,265449	558,649	0,351802	0,000000	0,000000
4,943552	996,927994	559,752	0,344486	0,000000	0,000000
4,921551	981,024141	560,855	0,337774	0,000000	0,000000
4,899552	965,528732	561,957	0,331235	0,000000	0,000000
4,877584	950,307548	563,060	0,324812	0,000000	0,000000
4,855555	934,725359	564,161	0,318236	0,000000	0,000000
4,833583	918,555382	565,266	0,311413	0,000000	0,000000
4,811619	901,562731	566,370	0,304242	0,000000	0,000000
4,789587	887,352821	567,471	0,298245	0,000000	0,000000
4,767627	870,798699	568,576	0,291259	0,000000	0,000000
4,745564	855,977858	569,679	0,285005	0,000000	0,000000
4,723632	840,308890	570,782	0,278393	0,000000	0,000000
4,701646	823,120696	571,885	0,271139	0,000000	0,000000
4,679618	807,883312	572,989	0,264709	0,000000	0,000000
4,657639	793,258016	574,098	0,258537	0,000000	0,000000
4,635592	778,263616	575,201	0,252209	0,000000	0,000000
4,651619	788,076681	576,244	0,256351	0,000000	0,000000
4,673583	804,184177	577,346	0,263148	0,000000	0,000000
4,695586	821,114346	578,452	0,270292	0,000000	0,000000
4,717626	836,507933	579,558	0,276789	0,000000	0,000000
4,739633	853,500583	580,665	0,283959	0,000000	0,000000
4,761613	868,636145	581,770	0,290347	0,000000	0,000000
4,783583	884,617521	582,873	0,297091	0,000000	0,000000
4,805590	900,708818	583,975	0,303881	0,000000	0,000000
4,827584	917,850729	585,077	0,311115	0,000000	0,000000
4,849593	933,400520	586,180	0,317677	0,000000	0,000000
4,871605	948,552281	587,284	0,324071	0,000000	0,000000
4,893554	964,070831	588,388	0,330620	0,000000	0,000000
4,915545	980,859838	589,492	0,337705	0,000000	0,000000
4,937582	996,598230	590,596	0,344347	0,000000	0,000000
4,959601	1012,321581	591,701	0,350982	0,000000	0,000000
4,981507	1027,072997	592,805	0,357207	0,000000	0,000000
5,003514	1043,046273	593,908	0,363948	0,000000	0,000000
5,025553	1057,413544	595,012	0,370011	0,000000	0,000000
5,047516	1074,641079	596,116	0,377281	0,000000	0,000000
5,069474	1089,650520	597,219	0,383615	0,000000	0,000000
5,091477	1105,538174	598,322	0,390319	0,000000	0,000000
5,113494	1122,225359	599,427	0,397361	0,000000	0,000000
5,135497	1137,086697	600,529	0,403633	0,000000	0,000000
5,157490	1152,785749	601,632	0,410258	0,000000	0,000000
5,159516	1153,977525	602,735	0,410761	0,000000	0,000000
5,159449	1153,404778	603,836	0,410519	0,000000	0,000000
5,159517	1152,982450	604,940	0,410341	0,000000	0,000000
5,159481	1152,590205	606,041	0,410175	0,000000	0,000000
5,159464	1152,096138	607,144	0,409967	0,000000	0,000000
5,159448	1151,963076	608,249	0,409911	0,000000	0,000000
5,159476	1151,876296	609,352	0,409874	0,000000	0,000000
5,159516	1151,672653	610,456	0,409788	0,000000	0,000000
5,159420	1151,382229	611,560	0,409666	0,000000	0,000000
5,141459	1139,336030	612,660	0,404582	0,000000	0,000000
5,119536	1121,214085	613,762	0,396935	0,000000	0,000000
5,097438	1106,541349	614,865	0,390743	0,000000	0,000000
5,075518	1088,875287	615,966	0,383288	0,000000	0,000000
5,053523	1073,959568	617,069	0,376993	0,000000	0,000000
5,031478	1058,040673	618,173	0,370275	0,000000	0,000000
5,009504	1041,816314	619,277	0,363429	0,000000	0,000000
4,987570	1025,442693	620,380	0,356519	0,000000	0,000000
4,965563	1008,527566	621,482	0,349381	0,000000	0,000000
4,943588	994,090871	622,584	0,343289	0,000000	0,000000
4,921546	978,077098	623,686	0,336531	0,000000	0,000000
4,899592	962,699709	624,787	0,330042	0,000000	0,000000
4,877594	946,843296	625,892	0,323350	0,000000	0,000000
4,855559	929,756924	626,997	0,316140	0,000000	0,000000
4,833582	915,483375	628,099	0,310116	0,000000	0,000000
4,811557	899,556381	629,203	0,303395	0,000000	0,000000
4,789621	882,407527	630,307	0,296158	0,000000	0,000000
4,767625	866,566156	631,412	0,289473	0,000000	0,000000
4,745591	851,180669	632,513	0,282980	0,000000	0,000000
4,725596	836,946460	633,618	0,276974	0,000000	0,000000
4,747608	853,791006	634,657	0,284082	0,000000	0,000000
4,769571	869,639320	635,760	0,290770	0,000000	0,000000
4,791600	885,660036	636,865	0,297531	0,000000	0,000000
4,813580	902,017458	637,965	0,304434	0,000000	0,000000
4,835573	917,881970	639,066	0,311128	0,000000	0,000000
4,857618	935,180086	640,172	0,318428	0,000000	0,000000
4,879533	951,036498	641,274	0,325120	0,000000	0,000000
4,901578	966,328264	642,375	0,331573	0,000000	0,000000
4,923607	983,414636	643,481	0,338783	0,000000	0,000000
4,945582	997,734468	644,586	0,344826	0,000000	0,000000
4,967567	1014,751416	645,690	0,352007	0,000000	0,000000
4,989516	1029,768957	646,793	0,358345	0,000000	0,000000
5,011536	1045,185686	647,897	0,364851	0,000000	0,000000
5,033534	1060,979617	648,998	0,371516	0,000000	0,000000
5,055520	1076,945951	650,099	0,378253	0,000000	0,000000
5,077511	1092,942369	651,201	0,385004	0,000000	0,000000
5,099411	1108,430835	652,305	0,391540	0,000000	0,000000
5,121481	1124,584614	653,407	0,398357	0,000000	0,000000
5,143451	1140,112420	654,509	0,404910	0,000000	0,000000
5,165473	1156,650344	655,610	0,411889	0,000000	0,000000
5,187479	1171,502425	656,716	0,418156	0,000000	0,000000
5,209475	1188,581855	657,819	0,425364	0,000000	0,000000
5,231426	1204,461410	658,920	0,432065	0,000000	0,000000
5,253431	1219,306548	660,020	0,438330	0,000000	0,000000
5,275421	1234,253508	661,125	0,444637	0,000000	0,000000
5,283444	1240,539840	662,227	0,447290	0,000000	0,000000
5,283451	1240,186935	663,331	0,447141	0,000000	0,000000
5,283494	1239,364262	664,435	0,446794	0,000000	0,000000
5,283440	1239,152520	665,542	0,446705	0,000000	0,000000
5,283412	1239,333022	666,647	0,446781	0,000000	0,000000
5,283377	1238,799615	667,750	0,446556	0,000000	0,000000
5,283422	1238,525391	668,851	0,446440	0,000000	0,000000
5,283419	1238,471009	669,953	0,446417	0,000000	0,000000
5,283396	1238,188685	671,055	0,446298	0,000000	0,000000
5,271416	1228,814148	672,159	0,442342	0,000000	0,000000
5,249415	1213,514283	673,261	0,435885	0,000000	0,000000
5,227419	1195,863263	674,364	0,428437	0,000000	0,000000
5,205474	1181,182427	675,469	0,422241	0,000000	0,000000
5,183446	1163,869270	676,572	0,414935	0,000000	0,000000
5,161558	1148,655028	677,675	0,408515	0,000000	0,000000
5,139505	1131,294431	678,780	0,401188	0,000000	0,000000
5,117532	1116,143828	679,887	0,394795	0,000000	0,000000
5,095513	1100,443619	680,991	0,388169	0,000000	0,000000
5,073503	1085,010691	682,094	0,381657	0,000000	0,000000
5,051499	1067,289090	683,198	0,374178	0,000000	0,000000
5,029538	1051,338955	684,301	0,367447	0,000000	0,000000
5,007539	1037,191527	685,406	0,361477	0,000000	0,000000
4,985529	1020,645503	686,508	0,354495	0,000000	0,000000
4,963567	1004,710410	687,611	0,347770	0,000000	0,000000
4,941507	988,188685	688,714	0,340798	0,000000	0,000000
4,919564	973,499750	689,818	0,334599	0,000000	0,000000
4,897558	956,671403	690,919	0,327498	0,000000	0,000000
4,875559	941,497658	692,019	0,321094	0,000000	0,000000
4,853598	926,033490	693,123	0,314568	0,000000	0,000000
4,831548	910,953467	694,229	0,308205	0,000000	0,000000
4,827609	906,077597	695,265	0,306147	0,000000	0,000000
4,849551	924,606829	696,368	0,313966	0,000000	0,000000
4,871556	939,593130	697,470	0,320291	0,000000	0,000000
4,893565	955,935510	698,576	0,327187	0,000000	0,000000
4,915533	973,453467	699,679	0,334580	0,000000	0,000000
4,937550	988,564731	700,782	0,340957	0,000000	0,000000
4,959576	1003,974517	701,886	0,347459	0,000000	0,000000
4,981512	1021,962243	702,987	0,355050	0,000000	0,000000
5,003539	1038,178503	704,089	0,361894	0,000000	0,000000
5,025587	1052,169727	705,195	0,367798	0,000000	0,000000
5,047519	1068,292265	706,300	0,374602	0,000000	0,000000
5,069531	1084,078097	707,400	0,381263	0,000000	0,000000
5,091482	1099,903269	708,506	0,387941	0,000000	0,000000
5,113566	1117,153945	709,609	0,395221	0,000000	0,000000
5,135479	1132,274465	710,712	0,401602	0,000000	0,000000
5,157549	1147,643754	711,819	0,408088	0,000000	0,000000
5,179498	1163,319665	712,921	0,414703	0,000000	0,000000
5,201446	1179,184177	714,024	0,421398	0,000000	0,000000
5,223487	1196,459151	715,126	0,428688	0,000000	0,000000
5,245435	1210,739642	716,230	0,434714	0,000000	0,000000
5,267450	1226,815897	717,332	0,441499	0,000000	0,000000
5,289417	1242,491808	718,436	0,448114	0,000000	0,000000
5,311415	1259,914886	719,540	0,455466	0,000000	0,000000
5,333452	1275,003008	720,644	0,461833	0,000000	0,000000
5,355400	1289,903686	721,748	0,468122	0,000000	0,000000
5,377434	1306,692693	722,850	0,475207	0,000000	0,000000
5,399405	1321,309890	723,952	0,481375	0,000000	0,000000
5,407365	1328,215251	725,054	0,484289	0,000000	0,000000
5,407425	1327,353238	726,156	0,483925	0,000000	0,000000
5,407433	1326,812889	727,257	0,483697	0,000000	0,000000
5,407415	1326,475026	728,360	0,483555	0,000000	0,000000
5,407397	1326,553706	729,465	0,483588	0,000000	0,000000
5,407359	1325,949719	730,567	0,483333	0,000000	0,000000
5,407373	1326,005258	731,672	0,483356	0,000000	0,000000
5,407356	1325,519291	732,777	0,483151	0,000000	0,000000
5,407377	1325,527390	733,879	0,483155	0,000000	0,000000
5,395351	1317,187269	734,980	0,479635	0,000000	0,000000
5,373419	1301,056631	736,082	0,472828	0,000000	0,000000
5,351403	1283,210067	737,186	0,465297	0,000000	0,000000
5,329411	1267,181252	738,292	0,458533	0,000000	0,000000
5,307510	1251,434760	739,396	0,451888	0,000000	0,000000
5,285464	1236,041173	740,501	0,445392	0,000000	0,000000
5,263377	1220,004258	741,605	0,438624	0,000000	0,000000
5,241509	1204,030982	742,708	0,431883	0,000000	0,000000
5,219417	1186,622945	743,810	0,424537	0,000000	0,000000
5,197405	1171,549865	744,917	0,418176	0,000000	0,000000
5,175433	1155,740892	746,020	0,411505	0,000000	0,000000
5,153467	1138,316656	747,122	0,404152	0,000000	0,000000
5,131447	1123,566397	748,226	0,397927	0,000000	0,000000
5,109496	1107,419561	749,331	0,391113	0,000000	0,000000
5,087505	1091,978534	750,438	0,384597	0,000000	0,000000
5,065490	1074,578597	751,540	0,377254	0,000000	0,000000
5,043498	1060,290007	752,642	0,371225	0,000000	0,000000
5,021512	1043,619020	753,746	0,364189	0,000000	0,000000
4,999550	1027,010515	754,850	0,357181	0,000000	0,000000
4,977592	1012,666386	755,954	0,351127	0,000000	0,000000
4,955492	997,280898	757,056	0,344635	0,000000	0,000000
4,933525	981,503166	758,159	0,337977	0,000000	0,000000
4,911525	964,706059	759,260	0,330888	0,000000	0,000000
4,889576	949,751000	760,364	0,324577	0,000000	0,000000
4,867578	934,231293	761,466	0,318028	0,000000	0,000000
4,845543	916,949376	762,571	0,310735	0,000000	0,000000
4,823560	902,801948	763,674	0,304765	0,000000	0,000000
4,801621	886,192286	764,780	0,297755	0,000000	0,000000
4,779580	871,560047	765,885	0,291581	0,000000	0,000000
4,757653	854,370696	766,991	0,284327	0,000000	0,000000
4,735626	839,438777	768,094	0,278025	0,000000	0,000000
4,713629	824,632979	769,198	0,271777	0,000000	0,000000
4,691612	807,397345	770,302	0,264504	0,000000	0,000000
4,669569	793,376037	771,402	0,258587	0,000000	0,000000
4,647639	776,570831	772,509	0,251495	0,000000	0,000000
4,625648	762,375963	773,611	0,245505	0,000000	0,000000
4,603633	745,540673	774,713	0,238400	0,000000	0,000000
4,581658	730,413211	775,816	0,232017	0,000000	0,000000
4,559680	715,787915	776,920	0,225845	0,000000	0,000000
4,537650	698,504841	778,023	0,218551	0,000000	0,000000
4,515647	684,631637	779,136	0,212697	0,000000	0,000000
4,493631	667,223600	780,239	0,205351	0,000000	0,000000
4,471715	651,570831	781,344	0,198745	0,000000	0,000000
4,449708	636,294107	782,446	0,192298	0,000000	0,000000
4,427686	620,665636	783,551	0,185703	0,000000	0,000000
4,405740	606,682511	784,653	0,179802	0,000000	0,000000
4,383687	589,330013	785,757	0,172479	0,000000	0,000000
4,361700	574,374954	786,863	0,166168	0,000000	0,000000
4,339733	558,479201	787,964	0,159460	0,000000	0,000000
4,317710	544,354913	789,070	0,153500	0,000000	0,000000
4,295691	527,347221	790,176	0,146323	0,000000	0,000000
4,273707	511,615771	791,276	0,139684	0,000000	0,000000
4,251726	495,956059	792,377	0,133076	0,000000	0,000000
4,229733	480,405111	793,481	0,126513	0,000000	0,000000
4,207721	465,505591	794,583	0,120226	0,000000	0,000000
4,185717	449,358755	795,688	0,113412	0,000000	0,000000
4,163725	433,024474	796,791	0,106519	0,000000	0,000000
[...]
4,990951	1030,051281	541,920	0,358719	0,000000	0,000000
5,012955	1045,405528	543,021	0,365198	0,000000	0,000000
5,034925	1059,670977	544,124	0,371218	0,000000	0,000000
5,050980	1072,360504	545,225	0,376573	0,000000	0,000000
5,050945	1071,552873	546,330	0,376232	0,000000	0,000000
5,050911	1070,988226	547,435	0,375994	0,000000	0,000000
5,050951	1070,612180	548,536	0,375835	0,000000	0,000000
5,050938	1070,267374	549,642	0,375690	0,000000	0,000000
5,050928	1070,024391	550,744	0,375587	0,000000	0,000000
5,050887	1069,742067	551,846	0,375468	0,000000	0,000000
5,050932	1069,600905	552,949	0,375409	0,000000	0,000000
5,050939	1069,561565	554,052	0,375392	0,000000	0,000000
5,046911	1066,473360	555,159	0,374089	0,000000	0,000000
5,024938	1050,468843	556,262	0,367335	0,000000	0,000000
5,002957	1034,596231	557,364	0,360637	0,000000	0,000000
4,980984	1016,882729	558,468	0,353162	0,000000	0,000000
4,958992	1002,641578	559,572	0,347152	0,000000	0,000000
4,936973	986,627805	560,677	0,340394	0,000000	0,000000
4,914885	969,894337	561,779	0,333333	0,000000	0,000000
4,893031	953,207152	562,882	0,326291	0,000000	0,000000
4,871025	938,847980	563,984	0,320231	0,000000	0,000000
4,848981	921,439944	565,086	0,312885	0,000000	0,000000
4,827030	907,103914	566,189	0,306835	0,000000	0,000000
4,805021	890,840214	567,294	0,299972	0,000000	0,000000
4,783031	875,258025	568,396	0,293396	0,000000	0,000000
4,761013	858,587039	569,501	0,286361	0,000000	0,000000
4,739044	844,784416	570,604	0,280536	0,000000	0,000000
4,717024	828,826181	571,707	0,273802	0,000000	0,000000
4,695012	812,523141	572,811	0,266922	0,000000	0,000000
4,673036	797,748584	573,911	0,260687	0,000000	0,000000
4,651019	781,962752	575,016	0,254025	0,000000	0,000000
4,667085	791,831356	576,048	0,258190	0,000000	0,000000
4,689085	808,344981	577,150	0,265159	0,000000	0,000000
4,711021	824,774141	578,254	0,272092	0,000000	0,000000
4,733053	840,842297	579,357	0,278873	0,000000	0,000000
4,755000	858,798782	580,459	0,286450	0,000000	0,000000
4,777003	873,965584	581,564	0,292851	0,000000	0,000000
4,799076	888,802623	582,666	0,299112	0,000000	0,000000
4,821009	904,854580	583,766	0,305886	0,000000	0,000000
4,843029	920,381230	584,869	0,312438	0,000000	0,000000
4,864944	936,395003	585,972	0,319196	0,000000	0,000000
4,886954	951,984134	587,079	0,325774	0,000000	0,000000
4,908928	968,162211	588,184	0,332602	0,000000	0,000000
4,930982	984,880637	589,289	0,339657	0,000000	0,000000
4,952968	1000,525307	590,392	0,346259	0,000000	0,000000
4,974961	1016,365521	591,495	0,352943	0,000000	0,000000
4,996939	1031,273141	592,596	0,359234	0,000000	0,000000
5,018938	1046,737309	593,700	0,365760	0,000000	0,000000
5,040892	1063,581855	594,803	0,372869	0,000000	0,000000
5,062940	1077,540682	595,906	0,378759	0,000000	0,000000
5,084873	1094,736976	597,010	0,386016	0,000000	0,000000
5,106910	1110,545949	598,114	0,392688	0,000000	0,000000
5,128878	1124,607755	599,221	0,398622	0,000000	0,000000
5,150835	1140,275566	600,321	0,405233	0,000000	0,000000
5,172864	1155,936436	601,426	0,411842	0,000000	0,000000
5,174862	1157,888403	602,526	0,412666	0,000000	0,000000
5,174896	1157,566739	603,630	0,412530	0,000000	0,000000
5,174852	1157,245076	604,730	0,412395	0,000000	0,000000
5,174950	1156,735967	605,832	0,412180	0,000000	0,000000
5,174875	1156,524224	606,934	0,412090	0,000000	0,000000
5,174850	1156,399261	608,037	0,412038	0,000000	0,000000
5,174835	1156,077597	609,138	0,411902	0,000000	0,000000
5,174908	1155,936436	610,243	0,411842	0,000000	0,000000
5,174917	1155,654112	611,344	0,411723	0,000000	0,000000
5,156875	1142,705402	612,447	0,406259	0,000000	0,000000
5,134883	1126,740225	613,552	0,399521	0,000000	0,000000
5,112898	1110,680169	614,656	0,392744	0,000000	0,000000
5,090882	1092,942369	615,757	0,385259	0,000000	0,000000
5,068920	1077,446960	616,858	0,378720	0,000000	0,000000
5,046938	1062,257016	617,961	0,372310	0,000000	0,000000
5,024937	1046,714168	619,062	0,365750	0,000000	0,000000
5,002901	1029,972601	620,164	0,358686	0,000000	0,000000
4,980973	1014,288590	621,267	0,352067	0,000000	0,000000
4,958906	997,154778	622,369	0,344836	0,000000	0,000000
4,936951	981,298365	623,475	0,338145	0,000000	0,000000
4,915004	967,377721	624,577	0,332271	0,000000	0,000000
4,892934	951,333864	625,682	0,325500	0,000000	0,000000
4,871001	935,767874	626,787	0,318931	0,000000	0,000000
4,849022	918,430419	627,891	0,311615	0,000000	0,000000
4,827046	902,715168	628,993	0,304983	0,000000	0,000000
4,804984	887,650187	630,093	0,298625	0,000000	0,000000
4,783013	872,906870	631,196	0,292404	0,000000	0,000000
4,761006	857,396420	632,299	0,285858	0,000000	0,000000
4,741086	841,907953	633,402	0,279322	0,000000	0,000000
4,762988	859,292848	634,444	0,286659	0,000000	0,000000
4,785010	875,587789	635,550	0,293535	0,000000	0,000000
4,807034	890,339205	636,653	0,299760	0,000000	0,000000
4,829008	908,075848	637,755	0,307245	0,000000	0,000000
4,850998	922,521799	638,858	0,313341	0,000000	0,000000
4,873011	940,086039	639,960	0,320753	0,000000	0,000000
4,894958	955,958651	641,061	0,327452	0,000000	0,000000
4,916945	971,806965	642,165	0,334140	0,000000	0,000000
4,938956	986,377879	643,266	0,340289	0,000000	0,000000
4,960945	1002,170653	644,370	0,346953	0,000000	0,000000
4,982946	1018,160128	645,471	0,353701	0,000000	0,000000
5,004950	1033,679836	646,575	0,360250	0,000000	0,000000
5,026954	1050,711826	647,678	0,367438	0,000000	0,000000
5,048990	1066,873704	648,782	0,374258	0,000000	0,000000
5,070917	1081,953727	649,883	0,380622	0,000000	0,000000
5,092912	1097,159869	650,988	0,387039	0,000000	0,000000
5,114888	1112,599739	652,092	0,393554	0,000000	0,000000
5,136869	1128,409869	653,196	0,400226	0,000000	0,000000
5,158887	1144,125120	654,298	0,406858	0,000000	0,000000
5,180864	1160,451301	655,402	0,413748	0,000000	0,000000
5,202877	1177,051707	656,505	0,420753	0,000000	0,000000
5,224854	1192,806298	657,611	0,427401	0,000000	0,000000
5,246826	1208,654612	658,713	0,434089	0,000000	0,000000
5,268817	1223,296107	659,818	0,440268	0,000000	0,000000
5,290899	1238,853997	660,922	0,446833	0,000000	0,000000
5,298835	1244,959827	662,026	0,449410	0,000000	0,000000
5,298800	1244,623121	663,127	0,449268	0,000000	0,000000
5,298822	1244,372038	664,230	0,449162	0,000000	0,000000
5,298817	1243,831689	665,333	0,448934	0,000000	0,000000
5,298857	1243,275141	666,438	0,448699	0,000000	0,000000
5,298811	1243,039100	667,544	0,448600	0,000000	0,000000
5,298868	1242,984717	668,649	0,448577	0,000000	0,000000
5,298796	1242,546190	669,753	0,448392	0,000000	0,000000
5,298808	1242,710493	670,858	0,448461	0,000000	0,000000
5,286859	1234,057964	671,961	0,444810	0,000000	0,000000
5,264839	1216,303965	673,063	0,437317	0,000000	0,000000
5,242859	1200,596814	674,166	0,430689	0,000000	0,000000
5,220843	1184,318072	675,269	0,423819	0,000000	0,000000
5,198837	1169,244992	676,373	0,417458	0,000000	0,000000
5,176891	1153,334197	677,478	0,410744	0,000000	0,000000
5,154909	1137,188518	678,582	0,403931	0,000000	0,000000
5,132898	1120,296533	679,684	0,396802	0,000000	0,000000
5,110895	1103,523724	680,784	0,389724	0,000000	0,000000
5,088943	1089,195794	681,885	0,383678	0,000000	0,000000
5,066963	1072,406787	682,987	0,376593	0,000000	0,000000
5,044912	1057,233042	684,091	0,370189	0,000000	0,000000
5,022905	1041,760775	685,193	0,363660	0,000000	0,000000
5,000941	1025,504017	686,298	0,356800	0,000000	0,000000
4,978942	1009,154695	687,399	0,349900	0,000000	0,000000
4,956944	993,784249	688,501	0,343414	0,000000	0,000000
4,934911	977,912794	689,603	0,336716	0,000000	0,000000
4,912942	962,268124	690,705	0,330114	0,000000	0,000000
4,890986	945,525400	691,808	0,323049	0,000000	0,000000
4,869015	930,923245	692,911	0,316887	0,000000	0,000000
4,846995	915,568998	694,013	0,310407	0,000000	0,000000
4,843045	911,845564	695,056	0,308836	0,000000	0,000000
4,864975	928,987476	696,160	0,316070	0,000000	0,000000
4,886965	945,275474	697,265	0,322943	0,000000	0,000000
4,908954	961,092547	698,366	0,329618	0,000000	0,000000
4,930959	977,873454	699,467	0,336700	0,000000	0,000000
4,953004	994,035332	700,570	0,343520	0,000000	0,000000
4,974951	1010,251592	701,674	0,350363	0,000000	0,000000
4,996969	1026,272308	702,779	0,357124	0,000000	0,000000
5,018965	1040,608338	703,883	0,363174	0,000000	0,000000
5,040931	1058,313740	704,985	0,370646	0,000000	0,000000
5,062906	1072,257526	706,086	0,376530	0,000000	0,000000
5,084881	1089,023391	707,191	0,383605	0,000000	0,000000
5,106915	1104,354497	708,296	0,390075	0,000000	0,000000
5,128900	1121,598230	709,402	0,397352	0,000000	0,000000
5,150903	1137,085539	710,504	0,403887	0,000000	0,000000
5,172924	1152,981293	711,608	0,410595	0,000000	0,000000
5,194851	1167,857672	712,711	0,416873	0,000000	0,000000
5,216906	1184,694118	713,815	0,423978	0,000000	0,000000
5,238872	1200,902279	714,918	0,430818	0,000000	0,000000
5,260872	1216,806132	716,023	0,437529	0,000000	0,000000
5,282906	1232,293441	717,125	0,444065	0,000000	0,000000
5,304856	1246,974276	718,226	0,450260	0,000000	0,000000
5,326803	1262,540266	719,330	0,456829	0,000000	0,000000
5,348844	1278,380480	720,434	0,463514	0,000000	0,000000
5,370812	1295,491151	721,539	0,470734	0,000000	0,000000
5,392626	1309,929003	722,643	0,476827	0,000000	0,000000
5,414751	1325,604913	723,745	0,483442	0,000000	0,000000
5,422804	1332,102988	724,848	0,486185	0,000000	0,000000
5,422728	1331,789424	725,953	0,486052	0,000000	0,000000
5,422795	1331,405278	727,056	0,485890	0,000000	0,000000
5,422753	1331,075515	728,160	0,485751	0,000000	0,000000
5,422760	1330,895013	729,264	0,485675	0,000000	0,000000
5,422729	1330,409045	730,366	0,485470	0,000000	0,000000
5,422769	1330,307224	731,469	0,485427	0,000000	0,000000
5,422782	1329,743733	732,571	0,485189	0,000000	0,000000
5,422731	1329,781916	733,674	0,485205	0,000000	0,000000
5,411001	1320,996325	734,778	0,481498	0,000000	0,000000
5,388788	1305,507859	735,884	0,474961	0,000000	0,000000
5,366832	1288,813731	736,986	0,467917	0,000000	0,000000
5,344809	1272,338289	738,090	0,460964	0,000000	0,000000
5,322857	1256,881063	739,192	0,454441	0,000000	0,000000
5,300840	1240,257516	740,295	0,447426	0,000000	0,000000
5,278824	1222,606496	741,399	0,439977	0,000000	0,000000
5,256866	1206,569581	742,504	0,433209	0,000000	0,000000
5,234844	1190,706226	743,606	0,426515	0,000000	0,000000
5,212903	1175,593806	744,711	0,420138	0,000000	0,000000
5,190910	1159,627471	745,817	0,413400	0,000000	0,000000
5,168921	1142,933344	746,924	0,406355	0,000000	0,000000
5,146965	1127,782740	748,026	0,399961	0,000000	0,000000
5,124937	1111,753925	749,129	0,393197	0,000000	0,000000
5,102951	1096,570923	750,235	0,386790	0,000000	0,000000
5,080931	1080,645087	751,339	0,380069	0,000000	0,000000
5,058953	1064,898595	752,441	0,373424	0,000000	0,000000
5,036989	1048,015866	753,544	0,366300	0,000000	0,000000
5,014996	1032,268217	754,646	0,359654	0,000000	0,000000
4,992988	1016,185019	755,753	0,352867	0,000000	0,000000
4,971000	1001,653445	756,855	0,346735	0,000000	0,000000
4,948917	985,162961	757,960	0,339776	0,000000	0,000000
4,927024	970,199802	759,061	0,333461	0,000000	0,000000
4,905007	954,712493	760,164	0,326926	0,000000	0,000000
4,883018	939,004184	761,269	0,320297	0,000000	0,000000
4,861050	921,722267	762,373	0,313004	0,000000	0,000000
4,839012	906,939610	763,479	0,306766	0,000000	0,000000
4,817047	891,552966	764,583	0,300272	0,000000	0,000000
4,795035	876,418561	765,687	0,293886	0,000000	0,000000
4,773007	859,935019	766,790	0,286930	0,000000	0,000000
4,751060	844,063564	767,892	0,280232	0,000000	0,000000
4,729097	828,395753	768,996	0,273620	0,000000	0,000000
4,707072	813,933603	770,099	0,267517	0,000000	0,000000
4,685057	798,234551	771,201	0,260892	0,000000	0,000000
4,663075	780,841556	772,305	0,253552	0,000000	0,000000
4,641061	767,086373	773,408	0,247748	0,000000	0,000000
4,619091	751,426661	774,509	0,241139	0,000000	0,000000
4,597147	735,946294	775,610	0,234606	0,000000	0,000000
4,575096	719,314648	776,713	0,227588	0,000000	0,000000
4,553117	704,320248	777,815	0,221260	0,000000	0,000000
4,531127	688,972943	778,916	0,214784	0,000000	0,000000
4,509087	673,516875	780,021	0,208261	0,000000	0,000000
4,487128	656,233801	781,124	0,200968	0,000000	0,000000
4,465122	640,667811	782,226	0,194399	0,000000	0,000000
4,443120	626,277399	783,332	0,188326	0,000000	0,000000
4,421122	609,786915	784,439	0,181367	0,000000	0,000000
4,399138	595,160462	785,543	0,175195	0,000000	0,000000
4,377144	578,057890	786,647	0,167978	0,000000	0,000000
4,355146	564,051624	787,752	0,162067	0,000000	0,000000
4,333137	546,855330	788,856	0,154810	0,000000	0,000000
4,311236	531,171320	789,959	0,148191	0,000000	0,000000
4,289185	516,662887	791,062	0,142069	0,000000	0,000000
4,267133	501,198719	792,166	0,135543	0,000000	0,000000
4,245185	486,330439	793,271	0,129269	0,000000	0,000000
4,223192	470,850072	794,374	0,122736	0,000000	0,000000
4,201201	455,300281	795,479	0,116174	0,000000	0,000000
4,179181	438,785499	796,582	0,109205	0,000000	0,000000
4,157218	422,231376	797,686	0,102219	0,000000	0,000000
4,135210	406,806548	798,786	0,095709	0,000000	0,000000
4,113196	392,595481	799,887	0,089712	0,000000	0,000000
4,091179	376,794607	800,990	0,083044	0,000000	0,000000
4,069204	360,138663	802,093	0,076016	0,000000	0,000000
4,047220	346,273558	803,196	0,070165	0,000000	0,000000
4,025215	330,275983	804,301	0,063414	0,000000	0,000000
4,003205	313,526316	805,405	0,056345	0,000000	0,000000
3,981214	297,850405	806,510	0,049730	0,000000	0,000000
3,959221	283,961002	807,610	0,043869	0,000000	0,000000
3,937224	268,120788	808,711	0,037184	0,000000	0,000000
3,915235	251,881387	809,815	0,030331	0,000000	0,000000
3,893203	237,011950	810,920	0,024056	0,000000	0,000000
3,871211	221,649604	812,025	0,017573	0,000000	0,000000
3,849240	205,456485	813,126	0,010740	0,000000	0,000000
3,827292	188,926661	814,230	0,003764	0,000000	0,000000
3,805277	173,219509	815,336	-0,002864	0,000000	0,000000
3,783227	158,366271	816,443	-0,009132	0,000000	0,000000
3,761237	143,920320	817,547	-0,015229	0,000000	0,000000
3,739240	127,641578	818,653	-0,022098	0,000000	0,000000
3,717266	114,113179	819,755	-0,027807	0,000000	0,000000
3,695219	97,542858	820,862	-0,034800	0,000000	0,000000
3,673315	82,682677	821,966	-0,041071	0,000000	0,000000
3,651307	66,724443	823,070	-0,047805	0,000000	0,000000
3,629258	52,969259	824,174	-0,053610	0,000000	0,000000
3,607225	36,666219	825,280	-0,060490	0,000000	0,000000
3,585258	22,448210	826,384	-0,066490	0,000000	0,000000
3,563233	7,570674	827,484	-0,072768	0,000000	0,000000
3,541250	-7,062722	828,588	-0,078943	0,000000	0,000000
3,519236	-21,906704	829,691	-0,085208	0,000000	0,000000
3,497240	-37,999158	830,797	-0,091999	0,000000	0,000000
3,475279	-52,327088	831,901	-0,098045	0,000000	0,000000
3,453244	-68,049282	833,004	-0,104680	0,000000	0,000000
3,431293	-81,585780	834,106	-0,110392	0,000000	0,000000
3,409289	-97,527816	835,207	-0,117120	0,000000	0,000000
3,387305	-111,189277	836,308	-0,122885	0,000000	0,000000
3,365283	-127,336113	837,411	-0,129699	0,000000	0,000000
3,343302	-142,235634	838,513	-0,135986	0,000000	0,000000
3,321359	-157,363096	839,619	-0,142370	0,000000	0,000000
3,299335	-170,359245	840,720	-0,147854	0,000000	0,000000
3,277342	-185,885895	841,825	-0,154407	0,000000	0,000000
3,255321	-200,213826	842,925	-0,160453	0,000000	0,000000
3,233317	-214,996483	844,027	-0,166691	0,000000	0,000000
3,211334	-229,723600	845,133	-0,172906	0,000000	0,000000
3,189370	-245,642495	846,234	-0,179624	0,000000	0,000000
3,167339	-258,967250	847,336	-0,185247	0,000000	0,000000
3,145313	-274,651261	848,440	-0,191866	0,000000	0,000000
3,123337	-287,795514	849,543	-0,197413	0,000000	0,000000
3,101311	-302,240308	850,646	-0,203508	0,000000	0,000000
3,079345	-316,991725	851,752	-0,209733	0,000000	0,000000
3,057356	-330,942452	852,855	-0,215621	0,000000	0,000000
3,035333	-344,871196	853,958	-0,221499	0,000000	0,000000
3,013372	-361,182335	855,062	-0,228382	0,000000	0,000000
2,991407	-375,329763	856,164	-0,234352	0,000000	0,000000
2,969374	-390,017541	857,264	-0,240550	0,000000	0,000000
2,947341	-403,670903	858,367	-0,246312	0,000000	0,000000
2,925358	-418,563481	859,472	-0,252597	0,000000	0,000000
2,903404	-434,490475	860,575	-0,259318	0,000000	0,000000
2,881324	-447,541006	861,679	-0,264825	0,000000	0,000000
2,859367	-459,752666	862,782	-0,269979	0,000000	0,000000
2,837339	-473,382887	863,886	-0,275730	0,000000	0,000000
2,815345	-489,090038	864,988	-0,282359	0,000000	0,000000
2,793370	-503,864596	866,090	-0,288594	0,000000	0,000000
2,771393	-517,941443	867,193	-0,294534	0,000000	0,000000
2,749380	-531,916469	868,294	-0,300432	0,000000	0,000000
2,727414	-544,637237	869,400	-0,305800	0,000000	0,000000
2,705362	-558,518541	870,505	-0,311658	0,000000	0,000000
2,683365	-570,479117	871,607	-0,316705	0,000000	0,000000
2,661385	-583,718250	872,712	-0,322292	0,000000	0,000000
2,639373	-596,940027	873,814	-0,327872	0,000000	0,000000
2,617406	-610,806289	874,916	-0,333723	0,000000	0,000000
2,595409	-623,118613	876,018	-0,338919	0,000000	0,000000
2,573422	-636,019883	877,122	-0,344363	0,000000	0,000000
2,551396	-648,953551	878,225	-0,349821	0,000000	0,000000
2,529375	-663,759349	879,328	-0,356069	0,000000	0,000000
2,507429	-676,480117	880,430	-0,361438	0,000000	0,000000
2,485418	-689,208984	881,533	-0,366809	0,000000	0,000000
2,463459	-702,941027	882,637	-0,372604	0,000000	0,000000
2,441393	-716,398845	883,739	-0,378283	0,000000	0,000000
2,419408	-729,958485	884,842	-0,384005	0,000000	0,000000
2,397367	-744,905445	885,945	-0,390313	0,000000	0,000000
2,375443	-756,263191	887,045	-0,395106	0,000000	0,000000
2,353409	-768,772216	888,148	-0,400385	0,000000	0,000000
2,331378	-779,918219	889,253	-0,405088	0,000000	0,000000
2,309431	-793,767125	890,354	-0,410933	0,000000	0,000000
2,287422	-805,625879	891,457	-0,415937	0,000000	0,000000
2,265396	-818,504008	892,561	-0,421372	0,000000	0,000000
2,243435	-830,574506	893,665	-0,426465	0,000000	0,000000
2,221420	-841,555049	894,770	-0,431099	0,000000	0,000000
2,199432	-852,615429	895,874	-0,435767	0,000000	0,000000
2,177419	-864,042598	896,981	-0,440589	0,000000	0,000000
2,155425	-874,883136	898,084	-0,445164	0,000000	0,000000
2,133382	-885,957402	899,184	-0,449837	0,000000	0,000000
2,111389	-896,672977	900,286	-0,454359	0,000000	0,000000
2,089417	-908,421810	901,399	-0,459317	0,000000	0,000000
2,067414	-917,443443	902,503	-0,463124	0,000000	0,000000
2,045430	-927,867437	903,611	-0,467523	0,000000	0,000000
2,023421	-941,481459	904,715	-0,473268	0,000000	0,000000
2,001391	-951,852229	905,818	-0,477645	0,000000	0,000000
1,979432	-962,150104	906,920	-0,481990	0,000000	0,000000
1,957440	-972,207309	908,025	-0,486234	0,000000	0,000000
1,935470	-982,889329	909,128	-0,490742	0,000000	0,000000
1,913434	-992,107663	910,231	-0,494632	0,000000	0,000000
1,891435	-998,628878	911,337	-0,497384	0,000000	0,000000
1,869426	-1005,557381	912,444	-0,500308	0,000000	0,000000
1,847412	-1012,493983	913,546	-0,503235	0,000000	0,000000
1,825466	-1019,454884	914,651	-0,506173	0,000000	0,000000
1,803403	-1025,991142	915,753	-0,508931	0,000000	0,000000
1,781403	-1026,986217	916,854	-0,509351	0,000000	0,000000
1,759435	-1032,128212	917,957	-0,511521	0,000000	0,000000
1,737415	-1037,700635	919,062	-0,513873	0,000000	0,000000
1,715418	-1038,304623	920,165	-0,514127	0,000000	0,000000
1,693443	-1040,420894	921,268	-0,515021	0,000000	0,000000
1,671462	-1040,788840	922,372	-0,515176	0,000000	0,000000
1,649439	-1036,626879	923,476	-0,513419	0,000000	0,000000
1,627480	-1033,664794	924,580	-0,512169	0,000000	0,000000
1,605460	-1024,149095	925,685	-0,508154	0,000000	0,000000
1,583482	-1013,976183	926,787	-0,503861	0,000000	0,000000
1,561436	-974,502925	927,891	-0,487203	0,000000	0,000000
1,539422	-1,395420	928,994	-0,076552	0,000000	0,000000
1,517434	-0,548449	930,096	-0,076194	0,000000	0,000000
1,495418	-0,259182	931,200	-0,076072	0,000000	0,000000
1,473418	-0,031241	932,303	-0,075976	0,000000	0,000000
1,451462	-0,329763	933,404	-0,076102	0,000000	0,000000
1,439464	-0,211743	934,005	-0,076052	0,000000	0,000000