File: Nanoindentation Datenauswertung/data/PDMS_10-1/30.09/APM-PDMS10-1-100ms,4um,40nms,2um offset,16cycles(5x1)
Quasi static measurement routine
Tip parameters (shape,radius, material...)
04.10.2022

Piezo position[nm]	MEMS displ.[nm]	Time[ms]	Cap [pf]	Temp [°C]	Rh [%]
eoh

X-Pos [um]	Y-Pos [um]
0,000799	0,000608

POC
3,333926
1,358112	0,039340	1,636	-0,075450	0,000000	0,000000
1,386145	-0,039340	2,338	-0,075483	0,000000	0,000000
1,414118	0,023141	3,039	-0,075457	0,000000	0,000000
1,442071	-0,141162	3,742	-0,075526	0,000000	0,000000
1,470069	0,415386	4,444	-0,075292	0,000000	0,000000
1,498112	0,062481	5,148	-0,075440	0,000000	0,000000
1,526049	0,101822	5,849	-0,075424	0,000000	0,000000
1,554120	0,116864	6,553	-0,075417	0,000000	0,000000
1,582100	-0,070581	7,253	-0,075497	0,000000	0,000000
1,610049	-0,093722	7,956	-0,075506	0,000000	0,000000
1,638078	-0,203643	8,659	-0,075553	0,000000	0,000000
1,666091	0,172403	9,362	-0,075394	0,000000	0,000000
1,694045	-0,101822	10,065	-0,075510	0,000000	0,000000
1,722062	0,000000	10,765	-0,075467	0,000000	0,000000
1,750053	0,133062	11,469	-0,075411	0,000000	0,000000
1,778117	-0,070581	12,172	-0,075497	0,000000	0,000000
1,806099	-0,008099	12,876	-0,075470	0,000000	0,000000
1,834010	-0,070581	13,579	-0,075497	0,000000	0,000000
1,862095	0,023141	14,283	-0,075457	0,000000	0,000000
1,890105	-0,219842	14,987	-0,075560	0,000000	0,000000
1,918063	0,124963	15,688	-0,075414	0,000000	0,000000
1,946013	-0,203643	16,389	-0,075553	0,000000	0,000000
1,974053	0,023141	17,091	-0,075457	0,000000	0,000000
2,002035	0,070581	17,797	-0,075437	0,000000	0,000000
2,030023	0,039340	18,500	-0,075450	0,000000	0,000000
2,058017	-0,164303	19,203	-0,075536	0,000000	0,000000
2,086036	0,054382	19,904	-0,075444	0,000000	0,000000
2,114041	-0,093722	20,608	-0,075506	0,000000	0,000000
2,142073	0,039340	21,310	-0,075450	0,000000	0,000000
2,170022	0,141162	22,013	-0,075407	0,000000	0,000000
2,198071	-0,086780	22,714	-0,075503	0,000000	0,000000
2,226026	0,116864	23,417	-0,075417	0,000000	0,000000
2,254041	-0,133062	24,119	-0,075523	0,000000	0,000000
2,282045	0,078680	24,819	-0,075434	0,000000	0,000000
2,310034	0,008099	25,522	-0,075463	0,000000	0,000000
2,338029	-0,016199	26,223	-0,075474	0,000000	0,000000
2,366030	0,116864	26,927	-0,075417	0,000000	0,000000
2,394027	0,000000	27,627	-0,075467	0,000000	0,000000
2,422051	0,046283	28,327	-0,075447	0,000000	0,000000
2,450025	-0,078680	29,028	-0,075500	0,000000	0,000000
2,478049	-0,016199	29,729	-0,075474	0,000000	0,000000
2,506088	0,054382	30,432	-0,075444	0,000000	0,000000
2,534017	-0,196701	31,133	-0,075550	0,000000	0,000000
2,562032	0,133062	31,838	-0,075411	0,000000	0,000000
2,590005	0,008099	32,541	-0,075463	0,000000	0,000000
2,618024	0,297366	33,245	-0,075341	0,000000	0,000000
2,646031	0,149261	33,947	-0,075404	0,000000	0,000000
2,673993	0,054382	34,647	-0,075444	0,000000	0,000000
2,702022	0,149261	35,352	-0,075404	0,000000	0,000000
2,730008	0,023141	36,056	-0,075457	0,000000	0,000000
2,758027	-0,031241	36,760	-0,075480	0,000000	0,000000
2,785978	0,008099	37,463	-0,075463	0,000000	0,000000
2,813983	-0,016199	38,167	-0,075474	0,000000	0,000000
2,841988	-0,149261	38,870	-0,075530	0,000000	0,000000
2,869989	-0,047440	39,574	-0,075487	0,000000	0,000000
2,897979	0,101822	40,276	-0,075424	0,000000	0,000000
2,926060	0,141162	40,977	-0,075407	0,000000	0,000000
2,953990	0,156204	41,680	-0,075401	0,000000	0,000000
2,981985	-193,237883	42,380	-0,157013	0,000000	0,000000
3,009966	-186,856672	43,084	-0,154320	0,000000	0,000000
3,037991	-172,255674	43,785	-0,148159	0,000000	0,000000
3,066012	-157,637320	44,489	-0,141990	0,000000	0,000000
3,093987	-138,889403	45,191	-0,134078	0,000000	0,000000
3,121995	-122,773808	45,893	-0,127277	0,000000	0,000000
3,149980	-108,783740	46,594	-0,121374	0,000000	0,000000
3,177956	-89,949043	47,297	-0,113425	0,000000	0,000000
3,205919	-74,186352	48,001	-0,106773	0,000000	0,000000
3,233972	-58,447960	48,703	-0,100132	0,000000	0,000000
3,261970	-41,596471	49,406	-0,093021	0,000000	0,000000
3,289975	-24,462659	50,109	-0,085790	0,000000	0,000000
3,317911	-4,687269	50,810	-0,077445	0,000000	0,000000
3,345943	12,313481	51,515	-0,070271	0,000000	0,000000
3,373921	27,848230	52,219	-0,063715	0,000000	0,000000
3,401889	47,937185	52,920	-0,055237	0,000000	0,000000
3,429919	62,633062	53,620	-0,049036	0,000000	0,000000
3,457894	82,909462	54,321	-0,040479	0,000000	0,000000
3,457908	80,715668	55,021	-0,041405	0,000000	0,000000
3,457834	79,586373	55,725	-0,041881	0,000000	0,000000
3,457862	78,450135	56,428	-0,042361	0,000000	0,000000
3,457908	77,791765	57,131	-0,042639	0,000000	0,000000
3,457845	77,164636	57,832	-0,042903	0,000000	0,000000
3,457865	76,749250	58,533	-0,043079	0,000000	0,000000
3,457809	76,114022	59,234	-0,043347	0,000000	0,000000
3,457900	75,918478	59,936	-0,043429	0,000000	0,000000
3,457891	75,376972	60,639	-0,043658	0,000000	0,000000
3,457887	75,252009	61,341	-0,043710	0,000000	0,000000
3,457884	74,900261	62,044	-0,043859	0,000000	0,000000
3,457908	74,977784	62,746	-0,043826	0,000000	0,000000
3,457896	74,311315	63,447	-0,044107	0,000000	0,000000
3,457919	74,076431	64,150	-0,044207	0,000000	0,000000
3,437861	62,155195	64,851	-0,049237	0,000000	0,000000
3,437918	57,083781	65,488	-0,051377	0,000000	0,000000
3,465886	77,611263	66,189	-0,042715	0,000000	0,000000
3,493896	97,041849	66,892	-0,034515	0,000000	0,000000
3,521820	115,814064	67,595	-0,026593	0,000000	0,000000
3,549913	137,635145	68,297	-0,017385	0,000000	0,000000
3,577901	156,289340	69,000	-0,009513	0,000000	0,000000
3,581876	157,660462	69,700	-0,008934	0,000000	0,000000
3,581851	156,430502	70,402	-0,009453	0,000000	0,000000
3,581944	155,952634	71,105	-0,009655	0,000000	0,000000
3,581884	155,089464	71,806	-0,010019	0,000000	0,000000
3,581882	154,940203	72,509	-0,010082	0,000000	0,000000
3,581841	154,736560	73,209	-0,010168	0,000000	0,000000
3,581852	154,023808	73,911	-0,010469	0,000000	0,000000
3,581873	153,718343	74,612	-0,010598	0,000000	0,000000
3,581843	153,467260	75,317	-0,010704	0,000000	0,000000
3,581894	153,529741	76,021	-0,010677	0,000000	0,000000
3,581874	152,918811	76,722	-0,010935	0,000000	0,000000
3,581850	152,762607	77,425	-0,011001	0,000000	0,000000
3,581874	152,698969	78,128	-0,011028	0,000000	0,000000
3,581855	152,613346	78,829	-0,011064	0,000000	0,000000
3,565856	140,472267	79,531	-0,016188	0,000000	0,000000
3,537861	121,269624	80,235	-0,024291	0,000000	0,000000
3,521851	106,776233	80,865	-0,030407	0,000000	0,000000
3,549774	127,124371	81,566	-0,021820	0,000000	0,000000
3,577853	150,175411	82,269	-0,012093	0,000000	0,000000
3,605871	169,394254	82,970	-0,003982	0,000000	0,000000
3,633898	186,027057	83,672	0,003037	0,000000	0,000000
3,661866	206,530241	84,376	0,011689	0,000000	0,000000
3,689836	223,985717	85,080	0,019055	0,000000	0,000000
3,705864	236,847647	85,781	0,024483	0,000000	0,000000
3,705845	235,781991	86,482	0,024033	0,000000	0,000000
3,705838	235,178003	87,186	0,023778	0,000000	0,000000
3,705869	234,590214	87,889	0,023530	0,000000	0,000000
3,705843	234,206069	88,592	0,023368	0,000000	0,000000
3,705864	234,018624	89,292	0,023289	0,000000	0,000000
3,705860	233,611337	89,992	0,023117	0,000000	0,000000
3,705789	232,999250	90,694	0,022859	0,000000	0,000000
3,705892	232,841889	91,395	0,022792	0,000000	0,000000
3,705837	232,411461	92,097	0,022611	0,000000	0,000000
3,705840	232,309640	92,797	0,022568	0,000000	0,000000
3,705813	232,286498	93,500	0,022558	0,000000	0,000000
3,705832	232,043515	94,202	0,022456	0,000000	0,000000
3,705847	231,941693	94,904	0,022413	0,000000	0,000000
3,701859	228,853488	95,607	0,021109	0,000000	0,000000
3,673820	211,115688	96,311	0,013624	0,000000	0,000000
3,645869	191,136654	97,013	0,005193	0,000000	0,000000
3,617884	171,714168	97,715	-0,003003	0,000000	0,000000
3,633864	178,565147	98,350	-0,000112	0,000000	0,000000
3,661851	198,434260	99,052	0,008272	0,000000	0,000000
3,689884	221,485301	99,756	0,018000	0,000000	0,000000
3,717891	241,354414	100,460	0,026385	0,000000	0,000000
3,745868	260,283990	101,162	0,034373	0,000000	0,000000
3,773822	276,633312	101,864	0,041272	0,000000	0,000000
3,801833	299,191443	102,567	0,050792	0,000000	0,000000
3,829846	315,102238	103,270	0,057506	0,000000	0,000000
3,829825	316,614522	103,971	0,058145	0,000000	0,000000
3,829786	315,878629	104,675	0,057834	0,000000	0,000000
3,829807	315,384562	105,377	0,057625	0,000000	0,000000
3,829814	314,836113	106,081	0,057394	0,000000	0,000000
3,829865	314,404528	106,784	0,057212	0,000000	0,000000
3,829838	313,832938	107,487	0,056971	0,000000	0,000000
3,829823	313,934760	108,191	0,057014	0,000000	0,000000
3,829812	313,550615	108,893	0,056852	0,000000	0,000000
3,829839	313,596897	109,595	0,056871	0,000000	0,000000
3,829879	312,805465	110,298	0,056537	0,000000	0,000000
3,829824	312,994067	111,001	0,056617	0,000000	0,000000
3,829843	312,751083	111,705	0,056514	0,000000	0,000000
3,829768	312,742984	112,407	0,056511	0,000000	0,000000
3,829891	312,272058	113,109	0,056312	0,000000	0,000000
3,809826	300,367021	113,810	0,051288	0,000000	0,000000
3,781872	280,434269	114,513	0,042876	0,000000	0,000000
3,753821	258,205902	115,216	0,033496	0,000000	0,000000
3,725836	240,492400	115,916	0,026021	0,000000	0,000000
3,709845	224,283083	116,557	0,019181	0,000000	0,000000
3,737888	245,767458	117,260	0,028247	0,000000	0,000000
3,765845	268,677336	117,961	0,037915	0,000000	0,000000
3,793835	285,420061	118,666	0,044980	0,000000	0,000000
3,821827	308,165636	119,370	0,054579	0,000000	0,000000
3,849833	325,926577	120,073	0,062074	0,000000	0,000000
3,877869	344,910536	120,776	0,070085	0,000000	0,000000
3,905850	364,088881	121,478	0,078179	0,000000	0,000000
3,933797	385,816240	122,182	0,087348	0,000000	0,000000
3,953845	398,929252	122,886	0,092881	0,000000	0,000000
3,953797	398,113522	123,587	0,092537	0,000000	0,000000
3,953841	397,103405	124,287	0,092111	0,000000	0,000000
3,953799	396,742400	124,991	0,091958	0,000000	0,000000
3,953834	396,648678	125,694	0,091919	0,000000	0,000000
3,953813	395,895429	126,395	0,091601	0,000000	0,000000
3,953812	395,574922	127,100	0,091466	0,000000	0,000000
3,953826	395,417561	127,800	0,091399	0,000000	0,000000
3,953812	394,665469	128,504	0,091082	0,000000	0,000000
3,953843	394,719852	129,206	0,091105	0,000000	0,000000
3,953781	394,273225	129,910	0,090917	0,000000	0,000000
3,953798	393,928419	130,611	0,090771	0,000000	0,000000
3,953785	394,046440	131,315	0,090821	0,000000	0,000000
3,953782	393,732875	132,018	0,090688	0,000000	0,000000
3,953824	393,842797	132,721	0,090735	0,000000	0,000000
3,925832	374,497834	133,421	0,082571	0,000000	0,000000
3,897781	355,280148	134,125	0,074461	0,000000	0,000000
3,869843	333,764533	134,826	0,065382	0,000000	0,000000
3,841863	314,506350	135,529	0,057255	0,000000	0,000000
3,813833	295,883396	136,233	0,049396	0,000000	0,000000
3,805838	286,807381	136,866	0,045566	0,000000	0,000000
3,833833	307,177503	137,568	0,054162	0,000000	0,000000
3,861824	327,118354	138,270	0,062577	0,000000	0,000000
3,889783	346,877546	138,974	0,070916	0,000000	0,000000
3,917835	369,772382	139,676	0,080577	0,000000	0,000000
3,945810	389,405454	140,378	0,088862	0,000000	0,000000
3,973843	407,990225	141,080	0,096705	0,000000	0,000000
4,001768	425,743067	141,781	0,104197	0,000000	0,000000
4,029825	445,823923	142,482	0,112671	0,000000	0,000000
4,057846	464,588039	143,185	0,120589	0,000000	0,000000
4,077801	480,530074	143,887	0,127317	0,000000	0,000000
4,077847	479,653019	144,590	0,126947	0,000000	0,000000
4,077777	479,009692	145,291	0,126675	0,000000	0,000000
4,077779	478,743567	145,995	0,126563	0,000000	0,000000
4,077839	477,826015	146,697	0,126176	0,000000	0,000000
4,077792	477,842213	147,399	0,126183	0,000000	0,000000
4,077782	476,839038	148,101	0,125759	0,000000	0,000000
4,077807	477,331948	148,806	0,125967	0,000000	0,000000
4,077796	476,658536	149,509	0,125683	0,000000	0,000000
4,077780	476,737217	150,212	0,125716	0,000000	0,000000
4,077780	476,469935	150,918	0,125604	0,000000	0,000000
4,077818	476,110088	151,619	0,125452	0,000000	0,000000
4,077790	475,835863	152,320	0,125336	0,000000	0,000000
4,077787	475,607922	153,022	0,125240	0,000000	0,000000
4,077779	475,287415	153,722	0,125104	0,000000	0,000000
4,049812	454,743733	154,426	0,116435	0,000000	0,000000
4,021824	434,646679	155,129	0,107954	0,000000	0,000000
3,993766	415,217250	155,831	0,099755	0,000000	0,000000
3,965775	396,107172	156,534	0,091690	0,000000	0,000000
3,937826	377,405537	157,236	0,083798	0,000000	0,000000
3,909782	355,695535	157,937	0,074637	0,000000	0,000000
3,893818	342,448302	158,574	0,069046	0,000000	0,000000
3,921841	362,858921	159,275	0,077660	0,000000	0,000000
3,949856	386,600729	159,976	0,087679	0,000000	0,000000
3,977847	403,483459	160,678	0,094803	0,000000	0,000000
4,005840	426,573839	161,383	0,104547	0,000000	0,000000
4,033787	444,561565	162,085	0,112138	0,000000	0,000000
4,061815	465,614355	162,788	0,121022	0,000000	0,000000
4,089817	484,731376	163,489	0,129090	0,000000	0,000000
4,117795	502,413637	164,192	0,136552	0,000000	0,000000
4,145798	525,418395	164,894	0,146260	0,000000	0,000000
4,173788	541,572173	165,596	0,153077	0,000000	0,000000
4,201757	560,720435	166,297	0,161157	0,000000	0,000000
4,201800	563,009108	167,000	0,162123	0,000000	0,000000
4,201793	562,092713	167,701	0,161736	0,000000	0,000000
4,201797	561,449385	168,402	0,161465	0,000000	0,000000
4,201857	560,736634	169,106	0,161164	0,000000	0,000000
4,201733	560,556132	169,808	0,161088	0,000000	0,000000
4,201773	560,140745	170,511	0,160913	0,000000	0,000000
4,201797	559,686019	171,213	0,160721	0,000000	0,000000
4,201811	559,858422	171,916	0,160793	0,000000	0,000000
4,201785	559,388653	172,618	0,160595	0,000000	0,000000
4,201769	558,729127	173,320	0,160317	0,000000	0,000000
4,201833	559,019550	174,021	0,160439	0,000000	0,000000
4,201801	559,200052	174,722	0,160516	0,000000	0,000000
4,201764	558,737226	175,423	0,160320	0,000000	0,000000
4,201792	558,353081	176,125	0,160158	0,000000	0,000000
4,181770	546,361263	176,829	0,155098	0,000000	0,000000
4,153776	525,755100	177,532	0,146402	0,000000	0,000000
4,125791	502,444877	178,234	0,136565	0,000000	0,000000
4,097835	484,425911	178,936	0,128961	0,000000	0,000000
4,069833	464,846064	179,641	0,120698	0,000000	0,000000
4,041817	445,431678	180,342	0,112505	0,000000	0,000000
4,013854	423,022808	181,044	0,103049	0,000000	0,000000
3,985825	406,366864	181,746	0,096020	0,000000	0,000000
4,009836	419,425494	182,392	0,101531	0,000000	0,000000
4,037806	439,882396	183,095	0,110164	0,000000	0,000000
4,065834	462,150104	183,796	0,119561	0,000000	0,000000
4,093810	480,938518	184,499	0,127489	0,000000	0,000000
4,121860	503,894679	185,201	0,137177	0,000000	0,000000
4,149793	520,574922	185,902	0,144216	0,000000	0,000000
4,177806	543,516042	186,604	0,153897	0,000000	0,000000
4,205770	559,983385	187,308	0,160846	0,000000	0,000000
4,233762	580,636987	188,008	0,169562	0,000000	0,000000
4,261822	599,025057	188,709	0,177322	0,000000	0,000000
4,289737	618,933510	189,409	0,185723	0,000000	0,000000
4,317798	640,832115	190,110	0,194964	0,000000	0,000000
4,325744	645,895429	190,810	0,197101	0,000000	0,000000
4,325795	645,425661	191,514	0,196903	0,000000	0,000000
4,325809	644,727951	192,216	0,196608	0,000000	0,000000
4,325753	644,501166	192,918	0,196513	0,000000	0,000000
4,325759	644,233884	193,620	0,196400	0,000000	0,000000
4,325780	643,693535	194,344	0,196172	0,000000	0,000000
4,325765	642,972684	195,045	0,195868	0,000000	0,000000
4,325758	642,775983	195,748	0,195785	0,000000	0,000000
4,325836	642,698460	196,450	0,195752	0,000000	0,000000
4,325755	642,329356	197,151	0,195596	0,000000	0,000000
4,325802	642,015792	197,852	0,195464	0,000000	0,000000
4,325754	641,945211	198,554	0,195434	0,000000	0,000000
4,325759	641,498584	199,258	0,195246	0,000000	0,000000
4,325765	641,789007	199,959	0,195368	0,000000	0,000000
4,313779	633,049698	200,661	0,191680	0,000000	0,000000
4,285798	612,051290	201,361	0,182819	0,000000	0,000000
4,257808	593,866864	202,063	0,175145	0,000000	0,000000
4,229821	571,333031	202,766	0,165636	0,000000	0,000000
4,201814	553,384645	203,467	0,158062	0,000000	0,000000
4,173802	534,298865	204,167	0,150007	0,000000	0,000000
4,145765	514,170570	204,869	0,141513	0,000000	0,000000
4,117810	494,787424	205,573	0,133333	0,000000	0,000000
4,089844	474,965751	206,276	0,124969	0,000000	0,000000
4,089859	470,513366	206,946	0,123090	0,000000	0,000000
4,117863	491,308131	207,650	0,131865	0,000000	0,000000
4,145773	512,469685	208,351	0,140795	0,000000	0,000000
4,173839	535,553123	209,054	0,150537	0,000000	0,000000
4,201790	554,583364	209,755	0,158567	0,000000	0,000000
4,229751	572,822173	210,457	0,166264	0,000000	0,000000
4,257801	594,721934	211,158	0,175506	0,000000	0,000000
4,285797	615,586123	211,859	0,184311	0,000000	0,000000
4,313803	632,570674	212,559	0,191478	0,000000	0,000000
4,341816	652,542765	213,260	0,199906	0,000000	0,000000
4,369781	672,067073	213,963	0,208146	0,000000	0,000000
4,397793	695,142412	214,664	0,217883	0,000000	0,000000
4,425779	711,539174	215,365	0,224803	0,000000	0,000000
4,449697	730,976701	216,068	0,233005	0,000000	0,000000
4,449709	729,354497	216,772	0,232321	0,000000	0,000000
4,449741	729,049032	217,474	0,232192	0,000000	0,000000
4,449713	728,390662	218,176	0,231914	0,000000	0,000000
4,449745	728,021558	218,879	0,231758	0,000000	0,000000
4,449752	727,677910	219,579	0,231613	0,000000	0,000000
4,449759	727,333105	220,282	0,231468	0,000000	0,000000
4,449748	727,097064	220,986	0,231368	0,000000	0,000000
4,449774	727,661711	221,688	0,231606	0,000000	0,000000
4,449793	726,462992	222,392	0,231101	0,000000	0,000000
4,449723	726,627296	223,095	0,231170	0,000000	0,000000
4,449720	726,125130	223,798	0,230958	0,000000	0,000000
4,449770	725,983968	224,500	0,230898	0,000000	0,000000
4,449755	725,694702	225,202	0,230776	0,000000	0,000000
4,449740	725,671560	225,904	0,230767	0,000000	0,000000
4,425724	709,524724	226,606	0,223953	0,000000	0,000000
4,397748	688,519374	227,310	0,215088	0,000000	0,000000
4,369793	669,174411	228,014	0,206925	0,000000	0,000000
4,341763	649,517041	228,716	0,198629	0,000000	0,000000
4,313794	626,088798	229,418	0,188743	0,000000	0,000000
4,285770	609,315990	230,120	0,181665	0,000000	0,000000
4,257834	587,903353	230,824	0,172628	0,000000	0,000000
4,229787	569,765208	231,526	0,164974	0,000000	0,000000
4,201804	548,838539	232,227	0,156143	0,000000	0,000000
4,173846	530,363689	232,927	0,148347	0,000000	0,000000
4,189866	540,216093	233,560	0,152504	0,000000	0,000000
4,217836	560,657953	234,261	0,161131	0,000000	0,000000
4,245774	579,665053	234,965	0,169152	0,000000	0,000000
4,273822	602,277566	235,666	0,178694	0,000000	0,000000
4,301817	619,748084	236,369	0,186067	0,000000	0,000000
4,329757	642,557298	237,070	0,195692	0,000000	0,000000
4,357804	659,518707	237,771	0,202850	0,000000	0,000000
4,385760	682,719009	238,472	0,212641	0,000000	0,000000
4,413748	702,478201	239,174	0,220979	0,000000	0,000000
4,441753	722,370455	239,876	0,229374	0,000000	0,000000
4,469810	741,856580	240,580	0,237597	0,000000	0,000000
4,497779	760,087289	241,282	0,245290	0,000000	0,000000
4,525696	779,549115	241,984	0,253503	0,000000	0,000000
4,553726	801,526400	242,688	0,262777	0,000000	0,000000
4,573718	815,054799	243,391	0,268486	0,000000	0,000000
4,573729	814,099063	244,095	0,268083	0,000000	0,000000
4,573723	812,829763	244,796	0,267547	0,000000	0,000000
4,573726	812,930428	245,498	0,267590	0,000000	0,000000
4,573782	811,935352	246,198	0,267170	0,000000	0,000000
4,573734	811,982792	246,899	0,267190	0,000000	0,000000
4,573731	811,872871	247,600	0,267144	0,000000	0,000000
4,573765	811,966593	248,301	0,267183	0,000000	0,000000
4,573794	811,245742	249,005	0,266879	0,000000	0,000000
4,573727	811,206402	249,706	0,266862	0,000000	0,000000
4,573679	810,909036	250,409	0,266737	0,000000	0,000000
4,573742	810,877795	251,111	0,266724	0,000000	0,000000
4,573747	811,065240	251,812	0,266803	0,000000	0,000000
4,573743	811,575505	252,516	0,267018	0,000000	0,000000
4,573730	809,490475	253,219	0,266138	0,000000	0,000000
4,545731	790,662720	253,920	0,258193	0,000000	0,000000
4,517736	771,460077	254,621	0,250089	0,000000	0,000000
4,489745	750,791432	255,324	0,241367	0,000000	0,000000
4,461814	727,379388	256,027	0,231487	0,000000	0,000000
4,433772	709,995649	256,729	0,224151	0,000000	0,000000
4,405800	689,357089	257,433	0,215442	0,000000	0,000000
4,377778	669,927660	258,134	0,207243	0,000000	0,000000
4,349819	649,940527	258,836	0,198808	0,000000	0,000000
4,321788	630,518041	259,537	0,190612	0,000000	0,000000
4,293827	606,416386	260,240	0,180441	0,000000	0,000000
4,265758	589,603081	260,942	0,173346	0,000000	0,000000
4,281844	600,357996	261,586	0,177884	0,000000	0,000000
4,309781	622,061056	262,287	0,187043	0,000000	0,000000
4,337804	639,828940	262,990	0,194541	0,000000	0,000000
4,365792	663,382146	263,691	0,204480	0,000000	0,000000
4,393820	680,359755	264,393	0,211645	0,000000	0,000000
4,421732	703,967343	265,098	0,221607	0,000000	0,000000
4,449783	720,905611	265,800	0,228755	0,000000	0,000000
4,477829	744,348897	266,503	0,238648	0,000000	0,000000
4,505796	761,098563	267,206	0,245717	0,000000	0,000000
4,533801	783,397512	267,910	0,255127	0,000000	0,000000
4,561746	800,915469	268,612	0,262520	0,000000	0,000000
4,589741	820,510358	269,315	0,270789	0,000000	0,000000
4,617745	840,254508	270,016	0,279121	0,000000	0,000000
4,645686	860,491567	270,716	0,287661	0,000000	0,000000
4,673742	882,751176	271,420	0,297054	0,000000	0,000000
4,697748	899,815564	272,124	0,304255	0,000000	0,000000
4,697650	898,889912	272,827	0,303865	0,000000	0,000000
4,697667	898,027899	273,529	0,303501	0,000000	0,000000
4,697707	897,824256	274,232	0,303415	0,000000	0,000000
4,697699	896,538757	274,938	0,302873	0,000000	0,000000
4,697696	896,522558	275,639	0,302866	0,000000	0,000000
4,697690	896,476276	276,342	0,302846	0,000000	0,000000
4,697664	896,248334	277,046	0,302750	0,000000	0,000000
4,697733	896,138413	277,749	0,302704	0,000000	0,000000
4,697666	895,574922	278,450	0,302466	0,000000	0,000000
4,697670	894,955893	279,152	0,302205	0,000000	0,000000
4,697709	894,509266	279,855	0,302016	0,000000	0,000000
4,697719	894,814731	280,557	0,302145	0,000000	0,000000
4,697689	895,088955	281,261	0,302261	0,000000	0,000000
4,697676	894,892254	281,961	0,302178	0,000000	0,000000
4,673688	880,015875	282,665	0,295900	0,000000	0,000000
4,645678	855,530074	283,367	0,285567	0,000000	0,000000
4,617731	837,997075	284,069	0,278168	0,000000	0,000000
4,589767	817,758858	284,771	0,269627	0,000000	0,000000
4,561719	797,254517	285,472	0,260975	0,000000	0,000000
4,533705	776,092963	286,174	0,252044	0,000000	0,000000
4,505739	756,458734	286,874	0,243759	0,000000	0,000000
4,477712	734,300948	287,580	0,234408	0,000000	0,000000
4,449749	717,346481	288,281	0,227253	0,000000	0,000000
4,421756	697,422986	288,985	0,218846	0,000000	0,000000
4,393798	674,488809	289,685	0,209167	0,000000	0,000000
4,365811	657,433677	290,386	0,201970	0,000000	0,000000
4,373869	662,190370	291,018	0,203978	0,000000	0,000000
4,401844	683,699043	291,719	0,213054	0,000000	0,000000
4,429808	703,771799	292,421	0,221525	0,000000	0,000000
4,457759	724,338622	293,124	0,230204	0,000000	0,000000
4,485777	743,063398	293,826	0,238106	0,000000	0,000000
4,513782	765,071923	294,526	0,247394	0,000000	0,000000
4,541785	784,456226	295,227	0,255574	0,000000	0,000000
4,569775	803,690110	295,928	0,263690	0,000000	0,000000
4,597774	825,879138	296,629	0,273054	0,000000	0,000000
4,625760	842,786165	297,332	0,280189	0,000000	0,000000
4,653739	863,156287	298,035	0,288785	0,000000	0,000000
4,681743	885,604497	298,737	0,298258	0,000000	0,000000
4,709748	902,981293	299,438	0,305591	0,000000	0,000000
4,737638	925,531324	300,139	0,315107	0,000000	0,000000
4,765702	942,665136	300,840	0,322338	0,000000	0,000000
4,793630	963,248158	301,543	0,331024	0,000000	0,000000
4,821705	983,908703	302,244	0,339743	0,000000	0,000000
4,821674	984,261608	302,944	0,339892	0,000000	0,000000
4,821632	983,642578	303,646	0,339630	0,000000	0,000000
4,821665	982,897429	304,347	0,339316	0,000000	0,000000
4,821633	982,843047	305,049	0,339293	0,000000	0,000000
4,821613	982,262200	305,752	0,339048	0,000000	0,000000
4,821708	981,987976	306,452	0,338932	0,000000	0,000000
4,821708	981,807474	307,154	0,338856	0,000000	0,000000
4,821722	981,659369	307,856	0,338793	0,000000	0,000000
4,821649	981,431428	308,557	0,338697	0,000000	0,000000
4,821670	981,180345	309,260	0,338591	0,000000	0,000000
4,821696	980,882979	309,961	0,338466	0,000000	0,000000
4,821610	980,702477	310,663	0,338390	0,000000	0,000000
4,821706	980,413211	311,364	0,338268	0,000000	0,000000
4,821675	980,490734	312,067	0,338300	0,000000	0,000000
4,801677	965,277649	312,769	0,331880	0,000000	0,000000
4,773684	944,828847	313,471	0,323251	0,000000	0,000000
4,745747	924,268967	314,173	0,314575	0,000000	0,000000
4,717710	905,309307	314,877	0,306574	0,000000	0,000000
4,689722	885,901862	315,581	0,298384	0,000000	0,000000
4,661763	865,562981	316,282	0,289801	0,000000	0,000000
4,633715	842,119696	316,986	0,279908	0,000000	0,000000
4,605749	825,189527	317,687	0,272763	0,000000	0,000000
4,577715	804,873787	318,388	0,264190	0,000000	0,000000
4,549757	783,742317	319,095	0,255272	0,000000	0,000000
4,521797	761,631970	319,797	0,245942	0,000000	0,000000
4,493738	744,897345	320,500	0,238880	0,000000	0,000000
4,465818	722,049948	321,201	0,229238	0,000000	0,000000
4,457808	714,211993	321,839	0,225931	0,000000	0,000000
4,485775	736,236717	322,541	0,235225	0,000000	0,000000
4,513780	760,165969	323,243	0,245323	0,000000	0,000000
4,541731	780,504850	323,947	0,253906	0,000000	0,000000
4,569759	800,476942	324,649	0,262334	0,000000	0,000000
4,597716	818,480867	325,349	0,269932	0,000000	0,000000
4,625728	838,647345	326,050	0,278442	0,000000	0,000000
4,653695	859,096147	326,754	0,287072	0,000000	0,000000
4,681713	882,485051	327,458	0,296942	0,000000	0,000000
4,709712	899,500842	328,161	0,304123	0,000000	0,000000
4,737680	919,629138	328,863	0,312617	0,000000	0,000000
4,765708	942,586456	329,565	0,322305	0,000000	0,000000
4,793722	962,745992	330,269	0,330812	0,000000	0,000000
4,821669	979,676161	330,972	0,337957	0,000000	0,000000
4,849675	999,952560	331,672	0,346513	0,000000	0,000000
4,877662	1022,683094	332,372	0,356105	0,000000	0,000000
4,905623	1043,006933	333,073	0,364682	0,000000	0,000000
4,933674	1061,293182	333,774	0,372399	0,000000	0,000000
4,945654	1070,502259	334,476	0,376285	0,000000	0,000000
4,945647	1069,490984	335,177	0,375858	0,000000	0,000000
4,945654	1068,998075	335,881	0,375650	0,000000	0,000000
4,945627	1068,801374	336,585	0,375567	0,000000	0,000000
4,945697	1068,237883	337,285	0,375330	0,000000	0,000000
4,945679	1068,151103	337,990	0,375293	0,000000	0,000000
4,945644	1067,978701	338,691	0,375220	0,000000	0,000000
4,945653	1067,500833	339,393	0,375019	0,000000	0,000000
4,945632	1067,131729	340,094	0,374863	0,000000	0,000000
4,945696	1067,351572	340,796	0,374956	0,000000	0,000000
4,945594	1066,921144	341,497	0,374774	0,000000	0,000000
4,945655	1066,771882	342,197	0,374711	0,000000	0,000000
4,945673	1066,410878	342,897	0,374559	0,000000	0,000000
4,945664	1066,560140	343,598	0,374622	0,000000	0,000000
4,937628	1063,110930	344,300	0,373166	0,000000	0,000000
4,909660	1041,980617	345,000	0,364249	0,000000	0,000000
4,881669	1020,088955	345,700	0,355011	0,000000	0,000000
4,853716	999,780158	346,401	0,346440	0,000000	0,000000
4,825709	976,729117	347,101	0,336713	0,000000	0,000000
4,797668	959,437944	347,804	0,329416	0,000000	0,000000
4,769756	936,285082	348,506	0,319646	0,000000	0,000000
4,741691	918,783323	349,207	0,312260	0,000000	0,000000
4,713710	898,623787	349,910	0,303752	0,000000	0,000000
4,685762	875,266125	350,610	0,293896	0,000000	0,000000
4,657758	857,513283	351,315	0,286404	0,000000	0,000000
4,629738	838,074598	352,017	0,278201	0,000000	0,000000
4,601740	818,448469	352,721	0,269918	0,000000	0,000000
4,573737	798,234551	353,422	0,261388	0,000000	0,000000
4,545764	775,480876	354,125	0,251786	0,000000	0,000000
4,561812	788,664470	354,757	0,257350	0,000000	0,000000
4,589739	807,193702	355,458	0,265169	0,000000	0,000000
4,617764	827,823006	356,160	0,273875	0,000000	0,000000
4,645782	848,852655	356,861	0,282749	0,000000	0,000000
4,673702	872,233459	357,564	0,292616	0,000000	0,000000
4,701747	889,618354	358,265	0,299952	0,000000	0,000000
4,729701	909,988476	358,968	0,308548	0,000000	0,000000
4,757760	931,323589	359,670	0,317552	0,000000	0,000000
4,785716	953,591297	360,372	0,326949	0,000000	0,000000
4,813691	970,544607	361,073	0,334103	0,000000	0,000000
4,841684	994,027233	361,775	0,344013	0,000000	0,000000
4,869707	1010,894920	362,478	0,351131	0,000000	0,000000
4,897669	1031,258099	363,179	0,359724	0,000000	0,000000
4,925676	1053,493409	363,885	0,369107	0,000000	0,000000
4,953648	1071,827098	364,589	0,376844	0,000000	0,000000
4,981719	1091,648771	365,291	0,385209	0,000000	0,000000
5,009630	1111,660203	365,992	0,393654	0,000000	0,000000
5,037628	1131,537415	366,692	0,402042	0,000000	0,000000
5,065603	1151,836956	367,395	0,410608	0,000000	0,000000
5,069625	1156,226859	368,096	0,412461	0,000000	0,000000
5,069599	1155,747834	368,799	0,412259	0,000000	0,000000
5,069585	1155,458568	369,499	0,412137	0,000000	0,000000
5,069609	1155,136904	370,200	0,412001	0,000000	0,000000
5,069626	1154,329273	370,902	0,411660	0,000000	0,000000
5,069607	1154,219352	371,604	0,411614	0,000000	0,000000
5,069598	1153,757683	372,304	0,411419	0,000000	0,000000
5,069617	1153,631563	373,008	0,411366	0,000000	0,000000
5,069641	1153,224276	373,711	0,411194	0,000000	0,000000
5,069647	1153,012533	374,413	0,411104	0,000000	0,000000
5,069647	1153,130554	375,116	0,411154	0,000000	0,000000
5,069587	1152,793848	375,817	0,411012	0,000000	0,000000
5,069575	1152,339122	376,520	0,410820	0,000000	0,000000
5,069592	1152,229201	377,223	0,410774	0,000000	0,000000
5,053540	1139,656537	377,924	0,405468	0,000000	0,000000
5,025641	1118,831689	378,625	0,396680	0,000000	0,000000
4,997644	1101,039507	379,330	0,389172	0,000000	0,000000
4,969625	1077,251416	380,031	0,379133	0,000000	0,000000
4,941656	1059,608496	380,733	0,371688	0,000000	0,000000
4,913669	1037,935519	381,435	0,362542	0,000000	0,000000
4,885660	1018,051364	382,136	0,354151	0,000000	0,000000
4,857678	998,502758	382,838	0,345901	0,000000	0,000000
4,829686	978,735467	383,539	0,337560	0,000000	0,000000
4,801683	957,902520	384,239	0,328768	0,000000	0,000000
4,773694	938,025307	384,941	0,320380	0,000000	0,000000
4,745723	917,591547	385,642	0,311757	0,000000	0,000000
4,717707	894,829773	386,346	0,302151	0,000000	0,000000
4,689726	877,797782	387,048	0,294964	0,000000	0,000000
4,661726	856,925494	387,750	0,286156	0,000000	0,000000
4,633728	837,174402	388,453	0,277821	0,000000	0,000000
4,657786	850,796523	389,087	0,283569	0,000000	0,000000
4,685764	873,220435	389,789	0,293032	0,000000	0,000000
4,713734	893,051364	390,492	0,301401	0,000000	0,000000
4,741692	916,079264	391,196	0,311119	0,000000	0,000000
4,769726	937,452560	391,897	0,320138	0,000000	0,000000
4,797674	957,557714	392,598	0,328623	0,000000	0,000000
4,825702	978,586206	393,300	0,337497	0,000000	0,000000
4,853747	995,908620	394,002	0,344807	0,000000	0,000000
4,881643	1018,928419	394,702	0,354521	0,000000	0,000000
4,909633	1036,548199	395,402	0,361957	0,000000	0,000000
4,937646	1057,656528	396,104	0,370864	0,000000	0,000000
4,965625	1078,904862	396,806	0,379831	0,000000	0,000000
4,993689	1096,979367	397,508	0,387458	0,000000	0,000000
5,021605	1120,406454	398,210	0,397345	0,000000	0,000000
5,049629	1137,164220	398,910	0,404417	0,000000	0,000000
5,077615	1159,917895	399,614	0,414019	0,000000	0,000000
5,105581	1177,545773	400,315	0,421458	0,000000	0,000000
5,133560	1201,012200	401,016	0,431360	0,000000	0,000000
5,161552	1220,772549	401,719	0,439699	0,000000	0,000000
5,189586	1237,898262	402,420	0,446926	0,000000	0,000000
5,193591	1243,063398	403,122	0,449106	0,000000	0,000000
5,193544	1242,012783	403,824	0,448663	0,000000	0,000000
5,193571	1241,777899	404,524	0,448563	0,000000	0,000000
5,193596	1241,534916	405,230	0,448461	0,000000	0,000000
5,193585	1241,135728	405,932	0,448292	0,000000	0,000000
5,193585	1240,586123	406,635	0,448061	0,000000	0,000000
5,193560	1240,735384	407,337	0,448124	0,000000	0,000000
5,193545	1240,210077	408,039	0,447902	0,000000	0,000000
5,193578	1240,061972	408,740	0,447839	0,000000	0,000000
5,193576	1239,850230	409,443	0,447750	0,000000	0,000000
5,193508	1239,810889	410,145	0,447733	0,000000	0,000000
5,193593	1239,466084	410,848	0,447588	0,000000	0,000000
5,193543	1239,418644	411,551	0,447568	0,000000	0,000000
5,193597	1238,909536	412,252	0,447353	0,000000	0,000000
5,177567	1226,878379	412,952	0,442276	0,000000	0,000000
5,149601	1208,725193	413,654	0,434615	0,000000	0,000000
5,121545	1185,925235	414,356	0,424994	0,000000	0,000000
5,093635	1166,831356	415,060	0,416936	0,000000	0,000000
5,065665	1146,327014	415,761	0,408283	0,000000	0,000000
5,037610	1125,791432	416,466	0,399617	0,000000	0,000000
5,009626	1102,944035	417,169	0,389976	0,000000	0,000000
4,981692	1083,513450	417,869	0,381776	0,000000	0,000000
4,953657	1063,228951	418,572	0,373216	0,000000	0,000000
4,925602	1042,913211	419,274	0,364643	0,000000	0,000000
4,897648	1023,655028	419,978	0,356516	0,000000	0,000000
4,869626	1000,587789	420,680	0,346781	0,000000	0,000000
4,841690	983,524558	421,384	0,339581	0,000000	0,000000
4,813723	963,051457	422,089	0,330941	0,000000	0,000000
4,785739	940,329023	422,791	0,321352	0,000000	0,000000
4,757698	922,584281	423,493	0,313864	0,000000	0,000000
4,729696	902,816989	424,194	0,305522	0,000000	0,000000
4,753708	919,096888	424,826	0,312392	0,000000	0,000000
4,781711	939,726192	425,527	0,321098	0,000000	0,000000
4,809744	960,544098	426,228	0,329883	0,000000	0,000000
4,837656	982,513283	426,929	0,339154	0,000000	0,000000
4,865698	1000,587789	427,631	0,346781	0,000000	0,000000
4,893693	1020,809806	428,333	0,355315	0,000000	0,000000
4,921675	1041,258609	429,035	0,363944	0,000000	0,000000
4,949654	1061,880970	429,737	0,372647	0,000000	0,000000
4,977644	1082,314731	430,437	0,381270	0,000000	0,000000
5,005653	1102,340047	431,141	0,389721	0,000000	0,000000
5,033619	1124,271049	431,845	0,398976	0,000000	0,000000
5,061645	1144,987133	432,545	0,407718	0,000000	0,000000
5,089638	1165,647678	433,247	0,416437	0,000000	0,000000
5,117664	1184,012607	433,949	0,424187	0,000000	0,000000
5,145585	1203,967343	434,650	0,432607	0,000000	0,000000
5,173568	1227,003342	435,350	0,442329	0,000000	0,000000
5,201593	1247,437102	436,052	0,450952	0,000000	0,000000
5,229571	1267,933344	436,755	0,459601	0,000000	0,000000
5,257562	1287,159129	437,457	0,467714	0,000000	0,000000
5,285587	1307,115021	438,160	0,476136	0,000000	0,000000
5,313543	1327,556881	438,861	0,484762	0,000000	0,000000
5,317540	1329,947377	439,563	0,485771	0,000000	0,000000
5,317467	1329,367687	440,265	0,485526	0,000000	0,000000
5,317526	1328,787998	440,967	0,485282	0,000000	0,000000
5,317511	1328,418894	441,669	0,485126	0,000000	0,000000
5,317500	1327,831106	442,370	0,484878	0,000000	0,000000
5,317564	1327,721184	443,070	0,484832	0,000000	0,000000
5,317502	1327,909786	443,770	0,484911	0,000000	0,000000
5,317553	1326,844130	444,472	0,484461	0,000000	0,000000
5,317552	1326,921653	445,174	0,484494	0,000000	0,000000
5,317542	1326,890412	445,878	0,484481	0,000000	0,000000
5,317491	1326,709910	446,581	0,484405	0,000000	0,000000
5,317558	1326,506267	447,285	0,484319	0,000000	0,000000
5,317545	1326,466926	447,985	0,484302	0,000000	0,000000
5,317525	1326,177660	448,688	0,484180	0,000000	0,000000
5,301564	1314,585030	449,391	0,479288	0,000000	0,000000
5,273543	1294,472934	450,094	0,470801	0,000000	0,000000
5,245547	1274,705643	450,796	0,462459	0,000000	0,000000
5,217558	1254,012700	451,496	0,453727	0,000000	0,000000
5,189566	1233,509516	452,199	0,445074	0,000000	0,000000
5,161573	1209,069998	452,901	0,434761	0,000000	0,000000
5,133606	1191,693202	453,604	0,427428	0,000000	0,000000
5,105643	1168,179336	454,305	0,417505	0,000000	0,000000
5,077651	1151,006183	455,006	0,410258	0,000000	0,000000
5,049634	1128,519790	455,710	0,400769	0,000000	0,000000
5,021634	1107,325839	456,411	0,391825	0,000000	0,000000
4,993682	1089,901603	457,112	0,384472	0,000000	0,000000
4,965643	1069,490984	457,815	0,375858	0,000000	0,000000
4,937692	1049,339548	458,517	0,367354	0,000000	0,000000
4,909648	1026,226026	459,220	0,357601	0,000000	0,000000
4,881743	1005,831605	459,922	0,348994	0,000000	0,000000
4,853671	986,542182	460,625	0,340854	0,000000	0,000000
4,825716	968,820581	461,329	0,333375	0,000000	0,000000
4,797652	945,322914	462,031	0,323459	0,000000	0,000000
4,769754	928,399687	462,731	0,316318	0,000000	0,000000
4,741668	905,348647	463,434	0,306590	0,000000	0,000000
4,713736	888,339797	464,140	0,299413	0,000000	0,000000
4,685727	865,413720	464,842	0,289738	0,000000	0,000000
4,657761	845,309723	465,544	0,281254	0,000000	0,000000
4,629748	827,517541	466,246	0,273746	0,000000	0,000000
4,601691	808,126296	466,948	0,265562	0,000000	0,000000
4,573763	785,411961	467,649	0,255977	0,000000	0,000000
4,545802	765,017541	468,351	0,247371	0,000000	0,000000
4,517806	745,061648	469,054	0,238949	0,000000	0,000000
4,489761	728,484384	469,757	0,231954	0,000000	0,000000
4,461734	707,620196	470,460	0,223149	0,000000	0,000000
4,433821	686,301281	471,160	0,214152	0,000000	0,000000
4,405795	666,948219	471,862	0,205985	0,000000	0,000000
4,377803	647,330189	472,563	0,197707	0,000000	0,000000
4,349790	628,542932	473,265	0,189778	0,000000	0,000000
4,321839	608,053632	473,967	0,181132	0,000000	0,000000
4,293833	584,830189	474,670	0,171332	0,000000	0,000000
4,265784	567,947460	475,371	0,164207	0,000000	0,000000
4,237823	547,929086	476,073	0,155759	0,000000	0,000000
4,209859	528,420977	476,775	0,147527	0,000000	0,000000
4,181845	506,552457	477,477	0,138298	0,000000	0,000000
4,153841	487,921403	478,180	0,130436	0,000000	0,000000
4,125846	469,047366	478,883	0,122471	0,000000	0,000000
4,097866	445,525400	479,587	0,112545	0,000000	0,000000
4,069836	429,607663	480,288	0,105828	0,000000	0,000000
4,041896	409,666812	480,990	0,097413	0,000000	0,000000
4,013911	387,313481	481,690	0,087979	0,000000	0,000000
3,985905	366,456235	482,392	0,079178	0,000000	0,000000
3,957842	346,767624	483,092	0,070869	0,000000	0,000000
3,929957	328,811139	483,794	0,063292	0,000000	0,000000
3,901853	309,403695	484,496	0,055102	0,000000	0,000000
3,873926	289,652603	485,198	0,046767	0,000000	0,000000
3,845863	267,023891	485,901	0,037217	0,000000	0,000000
3,817883	250,101822	486,602	0,030076	0,000000	0,000000
3,789920	227,724193	487,302	0,020633	0,000000	0,000000
3,761887	208,521549	488,004	0,012529	0,000000	0,000000
3,733867	190,148521	488,706	0,004776	0,000000	0,000000
3,705889	171,832189	489,407	-0,002954	0,000000	0,000000
3,677872	151,923736	490,111	-0,011355	0,000000	0,000000
3,649919	131,741058	490,814	-0,019872	0,000000	0,000000
3,621915	112,020050	491,516	-0,028194	0,000000	0,000000
3,593908	89,070831	492,220	-0,037879	0,000000	0,000000
3,565928	72,940194	492,922	-0,044686	0,000000	0,000000
3,537949	51,158453	493,625	-0,053878	0,000000	0,000000
3,509886	33,436852	494,328	-0,061356	0,000000	0,000000
3,481952	14,319831	495,030	-0,069424	0,000000	0,000000
3,453939	-3,800957	495,733	-0,077071	0,000000	0,000000
3,425943	-23,702468	496,436	-0,085469	0,000000	0,000000
3,397957	-42,489725	497,137	-0,093397	0,000000	0,000000
3,369960	-61,582448	497,839	-0,101455	0,000000	0,000000
3,341913	-80,252842	498,541	-0,109333	0,000000	0,000000
3,314003	-102,090121	499,243	-0,118549	0,000000	0,000000
3,285962	-117,874796	499,948	-0,125210	0,000000	0,000000
3,258038	-136,255924	500,650	-0,132967	0,000000	0,000000
3,229985	-155,921394	501,350	-0,141266	0,000000	0,000000
3,202027	-178,243483	502,054	-0,150686	0,000000	0,000000
3,174072	-197,509766	502,756	-0,158816	0,000000	0,000000
3,145958	-216,853571	503,459	-0,166979	0,000000	0,000000
3,118013	-235,420986	504,162	-0,174814	0,000000	0,000000
3,090016	-252,226192	504,862	-0,181906	0,000000	0,000000
3,061965	-271,185852	505,564	-0,189907	0,000000	0,000000
3,034053	-292,537165	506,268	-0,198917	0,000000	0,000000
3,006009	-308,338039	506,970	-0,205585	0,000000	0,000000
[...]
4,621564	885,290932	298,651	0,298407	0,000000	0,000000
4,649518	906,476785	299,353	0,307348	0,000000	0,000000
4,677534	926,895503	300,053	0,315964	0,000000	0,000000
4,705464	948,958410	300,753	0,325275	0,000000	0,000000
4,733519	966,077181	301,453	0,332499	0,000000	0,000000
4,761464	986,580365	302,153	0,341151	0,000000	0,000000
4,761463	987,607838	302,857	0,341585	0,000000	0,000000
4,761438	986,346638	303,559	0,341053	0,000000	0,000000
4,761476	986,103654	304,260	0,340950	0,000000	0,000000
4,761515	985,734551	304,961	0,340794	0,000000	0,000000
4,761508	985,577190	305,661	0,340728	0,000000	0,000000
4,761527	984,849396	306,362	0,340421	0,000000	0,000000
4,761491	984,935019	307,068	0,340457	0,000000	0,000000
4,761469	984,856339	307,769	0,340424	0,000000	0,000000
4,761486	984,472193	308,472	0,340262	0,000000	0,000000
4,761476	984,284749	309,173	0,340183	0,000000	0,000000
4,761505	984,174828	309,875	0,340136	0,000000	0,000000
4,761488	983,838122	310,577	0,339994	0,000000	0,000000
4,761442	983,578940	311,281	0,339885	0,000000	0,000000
4,761494	983,360254	311,986	0,339792	0,000000	0,000000
4,741504	970,607089	312,688	0,334411	0,000000	0,000000
4,713458	947,273724	313,388	0,324564	0,000000	0,000000
4,685475	926,330856	314,090	0,315726	0,000000	0,000000
4,657502	908,993400	314,792	0,308410	0,000000	0,000000
4,629484	886,466510	315,494	0,298903	0,000000	0,000000
4,601515	865,789766	316,197	0,290178	0,000000	0,000000
4,573531	847,370455	316,898	0,282405	0,000000	0,000000
4,545553	826,404445	317,601	0,273557	0,000000	0,000000
4,517542	808,165636	318,302	0,265860	0,000000	0,000000
4,489582	785,458244	319,002	0,256278	0,000000	0,000000
4,461545	768,238809	319,705	0,249011	0,000000	0,000000
4,433567	747,969352	320,405	0,240458	0,000000	0,000000
4,405585	728,390662	321,107	0,232195	0,000000	0,000000
4,397536	717,643846	321,745	0,227660	0,000000	0,000000
4,425601	741,784842	322,447	0,237848	0,000000	0,000000
4,453568	760,251592	323,148	0,245641	0,000000	0,000000
4,481605	780,928336	323,849	0,254366	0,000000	0,000000
4,509558	804,544024	324,550	0,264332	0,000000	0,000000
4,537557	824,859764	325,252	0,272905	0,000000	0,000000
4,565568	843,671320	325,953	0,280844	0,000000	0,000000
4,593531	862,655278	326,656	0,288855	0,000000	0,000000
4,621537	885,573256	327,359	0,298526	0,000000	0,000000
4,649535	902,832031	328,063	0,305810	0,000000	0,000000
4,677502	926,017291	328,767	0,315594	0,000000	0,000000
4,705558	945,832022	329,470	0,323956	0,000000	0,000000
4,733481	964,093972	330,174	0,331662	0,000000	0,000000
4,761468	983,242234	330,877	0,339743	0,000000	0,000000
4,789449	1002,743400	331,579	0,347972	0,000000	0,000000
4,817471	1026,193628	332,284	0,357868	0,000000	0,000000
4,845500	1042,990734	332,984	0,364957	0,000000	0,000000
4,873446	1065,345222	333,689	0,374390	0,000000	0,000000
4,885434	1073,848489	334,392	0,377979	0,000000	0,000000
4,885466	1073,409962	335,094	0,377793	0,000000	0,000000
4,885432	1072,634729	335,797	0,377466	0,000000	0,000000
4,885539	1072,186945	336,500	0,377277	0,000000	0,000000
4,885454	1072,186945	337,201	0,377277	0,000000	0,000000
4,885489	1071,442952	337,902	0,376963	0,000000	0,000000
4,885464	1071,278649	338,604	0,376894	0,000000	0,000000
4,885422	1071,364272	339,307	0,376930	0,000000	0,000000
4,885454	1071,223110	340,009	0,376871	0,000000	0,000000
4,885456	1070,533499	340,711	0,376580	0,000000	0,000000
4,885423	1070,439777	341,412	0,376540	0,000000	0,000000
4,885454	1070,110014	342,116	0,376401	0,000000	0,000000
4,885453	1069,820748	342,818	0,376279	0,000000	0,000000
4,885506	1069,765208	343,523	0,376255	0,000000	0,000000
4,877441	1066,598323	344,225	0,374919	0,000000	0,000000
4,849449	1042,058140	344,930	0,364563	0,000000	0,000000
4,821440	1021,445035	345,633	0,355864	0,000000	0,000000
4,793499	1001,292441	346,337	0,347360	0,000000	0,000000
4,765504	980,459493	347,039	0,338568	0,000000	0,000000
4,737493	960,677160	347,740	0,330220	0,000000	0,000000
4,709507	942,453393	348,441	0,322530	0,000000	0,000000
4,681470	922,216334	349,143	0,313990	0,000000	0,000000
4,653534	902,479127	349,846	0,305661	0,000000	0,000000
4,625552	881,716760	350,547	0,296899	0,000000	0,000000
4,597484	862,200552	351,249	0,288663	0,000000	0,000000
4,569502	842,134738	351,951	0,280195	0,000000	0,000000
4,541508	820,165553	352,652	0,270924	0,000000	0,000000
4,513484	799,229626	353,356	0,262089	0,000000	0,000000
4,485536	780,810315	354,057	0,254316	0,000000	0,000000
4,501565	792,465427	354,712	0,259235	0,000000	0,000000
4,529523	813,871122	355,413	0,268268	0,000000	0,000000
4,557571	834,265542	356,115	0,276875	0,000000	0,000000
4,585529	853,445044	356,817	0,284968	0,000000	0,000000
4,613554	872,437102	357,520	0,292983	0,000000	0,000000
4,641453	895,926670	358,221	0,302896	0,000000	0,000000
4,669550	913,319665	358,923	0,310235	0,000000	0,000000
4,697477	933,768467	359,623	0,318865	0,000000	0,000000
4,725531	953,701218	360,327	0,327276	0,000000	0,000000
4,753455	977,300707	361,028	0,337235	0,000000	0,000000
4,781538	995,061648	361,731	0,344730	0,000000	0,000000
4,809473	1014,602155	362,431	0,352977	0,000000	0,000000
4,837473	1034,666812	363,133	0,361444	0,000000	0,000000
4,865516	1057,835873	363,838	0,371221	0,000000	0,000000
4,893413	1074,751000	364,542	0,378359	0,000000	0,000000
4,921387	1094,988059	365,245	0,386899	0,000000	0,000000
4,949450	1118,400104	365,945	0,396779	0,000000	0,000000
4,977422	1138,222934	366,648	0,405145	0,000000	0,000000
5,005404	1155,309307	367,352	0,412355	0,000000	0,000000
5,009418	1160,325181	368,053	0,414472	0,000000	0,000000
5,009469	1159,627471	368,754	0,414177	0,000000	0,000000
5,009358	1158,389412	369,457	0,413655	0,000000	0,000000
5,009414	1158,217010	370,159	0,413582	0,000000	0,000000
5,009353	1157,965927	370,860	0,413476	0,000000	0,000000
5,009406	1157,707901	371,562	0,413367	0,000000	0,000000
5,009428	1157,676661	372,264	0,413354	0,000000	0,000000
5,009381	1157,112013	372,968	0,413116	0,000000	0,000000
5,009420	1156,719768	373,669	0,412950	0,000000	0,000000
5,009444	1156,829689	374,370	0,412997	0,000000	0,000000
5,009390	1156,539266	375,071	0,412874	0,000000	0,000000
5,009392	1156,265042	375,772	0,412758	0,000000	0,000000
5,009393	1156,155121	376,473	0,412712	0,000000	0,000000
5,009362	1155,834614	377,173	0,412577	0,000000	0,000000
4,993401	1145,363179	377,877	0,408158	0,000000	0,000000
4,965365	1125,704652	378,577	0,399862	0,000000	0,000000
4,937449	1102,387487	379,278	0,390022	0,000000	0,000000
4,909410	1081,342797	379,980	0,381141	0,000000	0,000000
4,881410	1063,173412	380,680	0,373474	0,000000	0,000000
4,853459	1041,658953	381,381	0,364395	0,000000	0,000000
4,825488	1022,415812	382,082	0,356274	0,000000	0,000000
4,797510	1001,975109	382,783	0,347648	0,000000	0,000000
4,769428	981,360847	383,486	0,338949	0,000000	0,000000
4,741432	961,608597	384,190	0,330613	0,000000	0,000000
4,713470	941,222277	384,892	0,322010	0,000000	0,000000
4,685472	921,446886	385,593	0,313665	0,000000	0,000000
4,657464	901,672653	386,296	0,305320	0,000000	0,000000
4,629507	879,577347	386,998	0,295996	0,000000	0,000000
4,601475	861,299198	387,700	0,288283	0,000000	0,000000
4,573477	841,210243	388,401	0,279805	0,000000	0,000000
4,597504	857,881230	389,032	0,286840	0,000000	0,000000
4,625504	877,789683	389,734	0,295242	0,000000	0,000000
4,653509	897,486393	390,438	0,303554	0,000000	0,000000
4,681526	918,123797	391,139	0,312263	0,000000	0,000000
4,709477	940,956152	391,842	0,321898	0,000000	0,000000
4,737510	958,356089	392,545	0,329241	0,000000	0,000000
4,765475	982,129138	393,246	0,339273	0,000000	0,000000
4,793519	1002,334956	393,949	0,347800	0,000000	0,000000
4,821469	1022,691193	394,651	0,356390	0,000000	0,000000
4,849464	1042,520966	395,351	0,364758	0,000000	0,000000
4,877376	1061,692369	396,052	0,372849	0,000000	0,000000
4,905421	1080,888070	396,754	0,380949	0,000000	0,000000
4,933435	1103,563065	397,458	0,390518	0,000000	0,000000
4,961417	1124,067406	398,162	0,399171	0,000000	0,000000
4,989380	1141,271799	398,864	0,406431	0,000000	0,000000
5,017387	1161,783083	399,569	0,415087	0,000000	0,000000
5,045369	1182,311722	400,271	0,423750	0,000000	0,000000
5,073320	1204,978617	400,972	0,433315	0,000000	0,000000
5,101330	1221,634562	401,677	0,440344	0,000000	0,000000
5,129396	1244,693702	402,377	0,450075	0,000000	0,000000
5,133408	1246,575089	403,082	0,450869	0,000000	0,000000
5,133355	1246,268467	403,785	0,450740	0,000000	0,000000
5,133313	1245,461993	404,487	0,450399	0,000000	0,000000
5,133352	1245,242150	405,188	0,450307	0,000000	0,000000
5,133329	1244,897345	405,890	0,450161	0,000000	0,000000
5,133340	1244,559482	406,590	0,450019	0,000000	0,000000
5,133291	1244,089714	407,290	0,449820	0,000000	0,000000
5,133381	1244,019133	407,990	0,449791	0,000000	0,000000
5,133338	1243,736809	408,690	0,449671	0,000000	0,000000
5,133338	1243,588705	409,391	0,449609	0,000000	0,000000
5,133335	1243,400104	410,093	0,449529	0,000000	0,000000
5,133295	1243,447543	410,795	0,449549	0,000000	0,000000
5,133314	1242,538091	411,497	0,449166	0,000000	0,000000
5,133317	1242,654954	412,198	0,449215	0,000000	0,000000
5,117308	1232,951811	412,900	0,445120	0,000000	0,000000
5,089389	1211,107588	413,602	0,435902	0,000000	0,000000
5,061375	1191,888746	414,304	0,427792	0,000000	0,000000
5,033322	1167,598489	415,008	0,417541	0,000000	0,000000
5,005389	1150,364013	415,708	0,410268	0,000000	0,000000
4,977407	1127,006350	416,410	0,400411	0,000000	0,000000
4,949442	1109,151687	417,111	0,392876	0,000000	0,000000
4,921494	1085,660962	417,814	0,382963	0,000000	0,000000
4,893354	1067,367771	418,518	0,375244	0,000000	0,000000
4,865407	1047,223276	419,221	0,366743	0,000000	0,000000
4,837408	1027,416645	419,922	0,358384	0,000000	0,000000
4,809462	1007,422569	420,622	0,349947	0,000000	0,000000
4,781441	987,113772	421,323	0,341376	0,000000	0,000000
4,753469	964,470018	422,025	0,331821	0,000000	0,000000
4,725502	944,875130	422,727	0,323552	0,000000	0,000000
4,697535	923,799198	423,429	0,314658	0,000000	0,000000
4,669434	906,578606	424,131	0,307391	0,000000	0,000000
4,693450	922,231376	424,771	0,313996	0,000000	0,000000
4,721440	944,710826	425,472	0,323482	0,000000	0,000000
4,749457	965,410712	426,174	0,332218	0,000000	0,000000
4,777475	983,163553	426,877	0,339709	0,000000	0,000000
4,805445	1003,738476	427,579	0,348392	0,000000	0,000000
4,833495	1027,565906	428,283	0,358447	0,000000	0,000000
4,861482	1047,435019	428,987	0,366832	0,000000	0,000000
4,889464	1067,602655	429,690	0,375343	0,000000	0,000000
4,917435	1086,460493	430,392	0,383301	0,000000	0,000000
4,945409	1109,465251	431,092	0,393009	0,000000	0,000000
4,973404	1126,707827	431,795	0,400285	0,000000	0,000000
5,001455	1150,175411	432,498	0,410188	0,000000	0,000000
5,029422	1170,381230	433,200	0,418715	0,000000	0,000000
5,057404	1190,737467	433,900	0,427306	0,000000	0,000000
5,085352	1210,958327	434,600	0,435839	0,000000	0,000000
5,113341	1228,045857	435,301	0,443050	0,000000	0,000000
5,141342	1250,775233	436,003	0,452642	0,000000	0,000000
5,169318	1268,379971	436,706	0,460071	0,000000	0,000000
5,197287	1288,695711	437,412	0,468644	0,000000	0,000000
5,225327	1309,105173	438,115	0,477257	0,000000	0,000000
5,253341	1328,983542	438,816	0,485646	0,000000	0,000000
5,257263	1333,669653	439,519	0,487623	0,000000	0,000000
5,257322	1333,521549	440,220	0,487561	0,000000	0,000000
5,257310	1332,423495	440,923	0,487097	0,000000	0,000000
5,257340	1332,298532	441,626	0,487044	0,000000	0,000000
5,257242	1332,470935	442,328	0,487117	0,000000	0,000000
5,257301	1331,648262	443,030	0,486770	0,000000	0,000000
5,257313	1331,656361	443,730	0,486773	0,000000	0,000000
5,257304	1331,272216	444,433	0,486611	0,000000	0,000000
5,257306	1330,738809	445,135	0,486386	0,000000	0,000000
5,257282	1330,965594	445,840	0,486482	0,000000	0,000000
5,257318	1330,479626	446,543	0,486277	0,000000	0,000000
5,257263	1330,574506	447,247	0,486317	0,000000	0,000000
5,257313	1329,955476	447,947	0,486056	0,000000	0,000000
5,257312	1330,229700	448,649	0,486171	0,000000	0,000000
5,241290	1320,604080	449,349	0,482109	0,000000	0,000000
5,213313	1296,267541	450,052	0,471839	0,000000	0,000000
5,185310	1277,244242	450,754	0,463812	0,000000	0,000000
5,157286	1257,030324	451,457	0,455281	0,000000	0,000000
5,129373	1236,588465	452,159	0,446655	0,000000	0,000000
5,101320	1215,849239	452,860	0,437903	0,000000	0,000000
5,073331	1195,980126	453,567	0,429518	0,000000	0,000000
5,045340	1172,630563	454,269	0,419665	0,000000	0,000000
5,017378	1152,879471	454,971	0,411330	0,000000	0,000000
4,989408	1132,578773	455,672	0,402763	0,000000	0,000000
4,961435	1114,512367	456,373	0,395139	0,000000	0,000000
4,933404	1092,683186	457,074	0,385927	0,000000	0,000000
4,905412	1070,690860	457,777	0,376646	0,000000	0,000000
4,877422	1050,342723	458,480	0,368059	0,000000	0,000000
4,849451	1033,420653	459,181	0,360918	0,000000	0,000000
4,821459	1013,246075	459,883	0,352404	0,000000	0,000000
4,793499	990,060815	460,587	0,342620	0,000000	0,000000
4,765446	970,826931	461,290	0,334503	0,000000	0,000000
4,737493	951,176503	461,991	0,326211	0,000000	0,000000
4,709477	930,029991	462,691	0,317287	0,000000	0,000000
4,681521	912,645096	463,391	0,309951	0,000000	0,000000
4,653538	892,775983	464,094	0,301566	0,000000	0,000000
4,625496	873,031833	464,797	0,293234	0,000000	0,000000
4,597475	849,878971	465,500	0,283463	0,000000	0,000000
4,569502	831,044274	466,203	0,275515	0,000000	0,000000
4,541559	811,848573	466,904	0,267415	0,000000	0,000000
4,513516	790,662720	467,606	0,258474	0,000000	0,000000
4,485584	769,578690	468,308	0,249577	0,000000	0,000000
4,457582	752,461076	469,010	0,242353	0,000000	0,000000
4,429572	733,069831	469,711	0,234170	0,000000	0,000000
4,401575	713,051457	470,413	0,225722	0,000000	0,000000
4,373543	691,708244	471,118	0,216715	0,000000	0,000000
4,345560	672,528741	471,834	0,208622	0,000000	0,000000
4,317596	649,610763	472,535	0,198950	0,000000	0,000000
4,289625	629,404945	473,238	0,190423	0,000000	0,000000
4,261589	609,818156	473,941	0,182158	0,000000	0,000000
4,233603	591,648771	474,643	0,174490	0,000000	0,000000
4,205583	571,075006	475,343	0,165808	0,000000	0,000000
4,177669	552,890579	476,046	0,158134	0,000000	0,000000
4,149622	532,895346	476,750	0,149696	0,000000	0,000000
4,121662	513,018134	477,451	0,141308	0,000000	0,000000
4,093571	490,930928	478,152	0,131987	0,000000	0,000000
4,065621	470,285425	478,852	0,123275	0,000000	0,000000
4,037678	451,741151	479,555	0,115449	0,000000	0,000000
4,009667	430,327357	480,259	0,106413	0,000000	0,000000
3,981643	409,941036	480,964	0,097810	0,000000	0,000000
3,953607	389,946960	481,666	0,089372	0,000000	0,000000
3,925689	373,619622	482,367	0,082482	0,000000	0,000000
3,897742	353,351322	483,069	0,073929	0,000000	0,000000
3,869673	331,122954	483,771	0,064548	0,000000	0,000000
3,841622	313,581855	484,471	0,057146	0,000000	0,000000
3,813660	291,933177	485,171	0,048010	0,000000	0,000000
3,785703	271,773641	485,872	0,039503	0,000000	0,000000
3,757677	253,291849	486,572	0,031704	0,000000	0,000000
3,729650	234,143587	487,275	0,023623	0,000000	0,000000
3,701694	213,309482	487,977	0,014831	0,000000	0,000000
3,673671	194,420403	488,679	0,006860	0,000000	0,000000
3,645758	178,211086	489,381	0,000020	0,000000	0,000000
3,617615	169,581698	490,082	-0,003622	0,000000	0,000000
3,589793	142,219435	490,786	-0,015169	0,000000	0,000000
3,561599	123,550198	491,486	-0,023047	0,000000	0,000000
3,533696	103,100239	492,187	-0,031677	0,000000	0,000000
3,505729	82,548458	492,890	-0,040350	0,000000	0,000000
3,477704	65,768707	493,593	-0,047431	0,000000	0,000000
3,449736	44,934603	494,295	-0,056223	0,000000	0,000000
3,421777	24,869946	494,997	-0,064690	0,000000	0,000000
3,393734	6,363855	495,697	-0,072500	0,000000	0,000000
3,365402	-12,375963	496,399	-0,080408	0,000000	0,000000
3,337723	-38,320822	497,100	-0,091357	0,000000	0,000000
3,309754	-61,457485	497,801	-0,101121	0,000000	0,000000
3,281749	-87,581689	498,502	-0,112145	0,000000	0,000000
3,253775	-110,147919	499,203	-0,121668	0,000000	0,000000
3,225860	-128,856496	499,906	-0,129563	0,000000	0,000000
3,197747	-148,906111	500,608	-0,138024	0,000000	0,000000
3,169798	-167,599646	501,311	-0,145913	0,000000	0,000000
3,141798	-183,456059	502,013	-0,152604	0,000000	0,000000
3,113805	-203,796097	502,718	-0,161188	0,000000	0,000000
3,085850	-219,596971	503,419	-0,167855	0,000000	0,000000
3,057842	-238,211826	504,121	-0,175711	0,000000	0,000000
3,029801	-259,194035	504,823	-0,184565	0,000000	0,000000
3,001823	-275,968000	505,523	-0,191644	0,000000	0,000000
2,973811	-294,975100	506,223	-0,199665	0,000000	0,000000
2,945804	-316,137811	506,926	-0,208596	0,000000	0,000000
2,917820	-332,565814	507,626	-0,215528	0,000000	0,000000
2,889805	-354,418135	508,329	-0,224750	0,000000	0,000000
2,861816	-371,826172	509,031	-0,232096	0,000000	0,000000
2,833834	-391,232459	509,735	-0,240286	0,000000	0,000000
2,805809	-400,372112	510,436	-0,244143	0,000000	0,000000
2,777395	-389,460993	511,139	-0,239538	0,000000	0,000000
2,749964	-415,514616	511,842	-0,250533	0,000000	0,000000
2,721817	-431,692693	512,542	-0,257360	0,000000	0,000000
2,693910	-455,387061	513,245	-0,267359	0,000000	0,000000
2,665874	-480,311389	513,946	-0,277877	0,000000	0,000000
2,637815	-501,003175	514,647	-0,286609	0,000000	0,000000
2,609813	-505,557381	515,350	-0,288531	0,000000	0,000000
2,581593	-521,382553	516,050	-0,295209	0,000000	0,000000
2,553882	-545,750333	516,752	-0,305492	0,000000	0,000000
2,525910	-577,548782	517,454	-0,318911	0,000000	0,000000
2,497841	-604,731700	518,156	-0,330382	0,000000	0,000000
2,469839	-617,334447	518,861	-0,335701	0,000000	0,000000
2,441847	-643,489892	519,563	-0,346738	0,000000	0,000000
2,413846	-658,077005	520,266	-0,352894	0,000000	0,000000
2,385865	-671,479284	520,968	-0,358550	0,000000	0,000000
2,357876	-690,064055	521,670	-0,366393	0,000000	0,000000
2,329851	-707,910619	522,371	-0,373924	0,000000	0,000000
2,301843	-728,907870	523,072	-0,382785	0,000000	0,000000
2,273816	-743,949709	523,773	-0,389132	0,000000	0,000000
2,245849	-759,162794	524,475	-0,395552	0,000000	0,000000
2,217864	-777,315980	525,178	-0,403213	0,000000	0,000000
2,189795	-794,763357	525,882	-0,410576	0,000000	0,000000
2,161819	-811,074496	526,583	-0,417459	0,000000	0,000000
2,133871	-828,881720	527,286	-0,424974	0,000000	0,000000
2,105880	-840,323932	527,989	-0,429802	0,000000	0,000000
2,077850	-860,006757	528,690	-0,438108	0,000000	0,000000
2,049863	-876,881387	529,391	-0,445229	0,000000	0,000000
2,021815	-890,872612	530,091	-0,451134	0,000000	0,000000
1,993866	-903,342297	530,791	-0,456396	0,000000	0,000000
1,965851	-916,235467	531,492	-0,461837	0,000000	0,000000
1,937839	-928,800031	532,195	-0,467139	0,000000	0,000000
1,909861	-947,273724	532,898	-0,474935	0,000000	0,000000
1,881865	-959,133636	533,603	-0,479940	0,000000	0,000000
1,853854	-970,035499	534,305	-0,484541	0,000000	0,000000
1,825825	-980,014024	535,007	-0,488751	0,000000	0,000000
1,797896	-988,753332	535,710	-0,492439	0,000000	0,000000
1,769851	-1002,076931	536,412	-0,498062	0,000000	0,000000
1,741873	-1008,113337	537,114	-0,500609	0,000000	0,000000
1,713925	-1015,307964	537,818	-0,503646	0,000000	0,000000
1,685884	-1024,705643	538,520	-0,507611	0,000000	0,000000
1,657876	-1029,965658	539,221	-0,509831	0,000000	0,000000
1,629936	-1038,053540	539,922	-0,513244	0,000000	0,000000
1,601885	-1041,071164	540,623	-0,514518	0,000000	0,000000
1,573914	-1037,355830	541,324	-0,512950	0,000000	0,000000
1,545899	-1024,275215	542,026	-0,507430	0,000000	0,000000
1,517937	-1013,552697	542,730	-0,502905	0,000000	0,000000
1,489874	-969,142245	543,430	-0,484164	0,000000	0,000000
1,461877	-0,510265	544,135	-0,075401	0,000000	0,000000
1,433908	-0,204800	544,839	-0,075272	0,000000	0,000000
1,405873	-0,118021	545,541	-0,075235	0,000000	0,000000
1,377828	-0,165460	546,246	-0,075255	0,000000	0,000000
1,349893	-0,211743	546,950	-0,075275	0,000000	0,000000
1,321884	0,187444	547,651	-0,075106	0,000000	0,000000
1,293903	-0,023141	548,351	-0,075195	0,000000	0,000000
1,273886	0,313564	548,851	-0,075053	0,000000	0,000000