File: Nanoindentation Datenauswertung/data/PDMS_10-1/30.09/test-9
Quasi static measurement routine
Tip parameters (shape,radius, material...)
30.09.2022

Piezo position[nm]	MEMS displ.[nm]	Time[ms]	Cap [pf]	Temp [°C]	Rh [%]
eoh
1,343938	0,093722	1,063	-0,076175	0,000000	0,000000
1,351948	0,219842	1,464	-0,076122	0,000000	0,000000
1,359964	-0,070581	1,865	-0,076244	0,000000	0,000000
1,367956	0,251083	2,266	-0,076108	0,000000	0,000000
1,375936	0,156204	2,669	-0,076148	0,000000	0,000000
1,383925	0,086780	3,071	-0,076178	0,000000	0,000000
1,391975	-0,180502	3,471	-0,076291	0,000000	0,000000
1,399963	-0,055539	3,875	-0,076238	0,000000	0,000000
1,407955	0,156204	4,277	-0,076148	0,000000	0,000000
1,415949	-0,101822	4,678	-0,076257	0,000000	0,000000
1,423969	0,290423	5,108	-0,076092	0,000000	0,000000
1,431954	0,023141	5,509	-0,076205	0,000000	0,000000
1,439968	0,548449	5,911	-0,075983	0,000000	0,000000
1,447944	0,047440	6,314	-0,076194	0,000000	0,000000
1,455984	0,376046	6,716	-0,076056	0,000000	0,000000
1,463948	0,259182	7,119	-0,076105	0,000000	0,000000
1,471954	0,226785	7,521	-0,076119	0,000000	0,000000
1,479976	0,219842	7,922	-0,076122	0,000000	0,000000
1,487953	0,266125	8,322	-0,076102	0,000000	0,000000
1,495965	0,282324	8,723	-0,076095	0,000000	0,000000
1,503983	-0,109921	9,124	-0,076261	0,000000	0,000000
1,511964	0,093722	9,525	-0,076175	0,000000	0,000000
1,519969	0,156204	9,926	-0,076148	0,000000	0,000000
1,527982	0,188602	10,327	-0,076135	0,000000	0,000000
1,535946	-0,016199	10,728	-0,076221	0,000000	0,000000
1,543943	0,336706	11,128	-0,076072	0,000000	0,000000
1,551969	-0,109921	11,529	-0,076261	0,000000	0,000000
1,559944	0,407287	11,931	-0,076042	0,000000	0,000000
1,567965	0,116864	12,332	-0,076165	0,000000	0,000000
1,575950	0,469768	12,733	-0,076016	0,000000	0,000000
1,583946	0,039340	13,133	-0,076198	0,000000	0,000000
1,591935	0,234884	13,534	-0,076115	0,000000	0,000000
1,599923	0,031241	13,934	-0,076201	0,000000	0,000000
1,607948	0,078680	14,336	-0,076181	0,000000	0,000000
1,615974	-0,109921	14,739	-0,076261	0,000000	0,000000
1,623938	0,266125	15,142	-0,076102	0,000000	0,000000
1,631946	0,133062	15,544	-0,076158	0,000000	0,000000
1,639958	0,226785	15,945	-0,076119	0,000000	0,000000
1,647907	0,188602	16,347	-0,076135	0,000000	0,000000
1,655980	0,211743	16,747	-0,076125	0,000000	0,000000
1,663935	-0,016199	17,147	-0,076221	0,000000	0,000000
1,671973	0,070581	17,547	-0,076185	0,000000	0,000000
1,679934	0,078680	17,948	-0,076181	0,000000	0,000000
1,687925	0,008099	18,348	-0,076211	0,000000	0,000000
1,695905	0,141162	18,750	-0,076155	0,000000	0,000000
1,703926	-0,242984	19,150	-0,076317	0,000000	0,000000
1,711953	0,062481	19,551	-0,076188	0,000000	0,000000
1,719934	-0,109921	19,951	-0,076261	0,000000	0,000000
1,727960	-0,062481	20,352	-0,076241	0,000000	0,000000
1,735945	0,116864	20,754	-0,076165	0,000000	0,000000
1,743928	0,031241	21,154	-0,076201	0,000000	0,000000
1,751985	0,047440	21,554	-0,076194	0,000000	0,000000
1,759924	0,116864	21,954	-0,076165	0,000000	0,000000
1,767928	0,109921	22,355	-0,076168	0,000000	0,000000
1,775907	0,188602	22,756	-0,076135	0,000000	0,000000
1,783905	0,266125	23,156	-0,076102	0,000000	0,000000
1,791913	0,226785	23,556	-0,076119	0,000000	0,000000
1,799931	-0,047440	23,956	-0,076234	0,000000	0,000000
1,807939	-0,101822	24,357	-0,076257	0,000000	0,000000
1,815931	-0,023141	24,757	-0,076224	0,000000	0,000000
1,823868	-0,023141	25,158	-0,076224	0,000000	0,000000
1,831941	0,016199	25,560	-0,076208	0,000000	0,000000
1,839937	0,156204	25,961	-0,076148	0,000000	0,000000
1,847920	0,054382	26,361	-0,076191	0,000000	0,000000
1,855962	0,164303	26,763	-0,076145	0,000000	0,000000
1,863952	0,023141	27,163	-0,076205	0,000000	0,000000
1,871950	-0,086780	27,564	-0,076251	0,000000	0,000000
1,879913	0,124963	27,964	-0,076162	0,000000	0,000000
1,887939	0,039340	28,364	-0,076198	0,000000	0,000000
1,895909	0,039340	28,765	-0,076198	0,000000	0,000000
1,903945	0,062481	29,165	-0,076188	0,000000	0,000000
1,911952	0,226785	29,566	-0,076119	0,000000	0,000000
1,919911	0,195544	29,967	-0,076132	0,000000	0,000000
1,927972	0,321664	30,368	-0,076079	0,000000	0,000000
1,935929	0,109921	30,768	-0,076168	0,000000	0,000000
1,943917	0,211743	31,168	-0,076125	0,000000	0,000000
1,951931	0,188602	31,568	-0,076135	0,000000	0,000000
1,959861	0,031241	31,970	-0,076201	0,000000	0,000000
1,967870	0,086780	32,371	-0,076178	0,000000	0,000000
1,975898	0,149261	32,773	-0,076151	0,000000	0,000000
1,983873	0,313564	33,175	-0,076082	0,000000	0,000000
1,991962	0,399187	33,577	-0,076046	0,000000	0,000000
1,999932	-0,023141	33,978	-0,076224	0,000000	0,000000
2,007937	-0,086780	34,379	-0,076251	0,000000	0,000000
2,015893	0,070581	34,781	-0,076185	0,000000	0,000000
2,023865	-0,031241	35,183	-0,076228	0,000000	0,000000
2,031924	0,219842	35,585	-0,076122	0,000000	0,000000
2,039908	-0,023141	35,986	-0,076224	0,000000	0,000000
2,047925	-0,141162	36,387	-0,076274	0,000000	0,000000
2,055917	0,093722	36,787	-0,076175	0,000000	0,000000
2,063913	0,328606	37,187	-0,076076	0,000000	0,000000
2,071897	-0,016199	37,587	-0,076221	0,000000	0,000000
2,079869	0,133062	37,989	-0,076158	0,000000	0,000000
2,087912	0,116864	38,391	-0,076165	0,000000	0,000000
2,095863	0,062481	38,791	-0,076188	0,000000	0,000000
2,103914	0,070581	39,191	-0,076185	0,000000	0,000000
2,111906	0,008099	39,591	-0,076211	0,000000	0,000000
2,119899	0,078680	39,993	-0,076181	0,000000	0,000000
2,127934	0,016199	40,394	-0,076208	0,000000	0,000000
2,135880	0,305465	40,795	-0,076085	0,000000	0,000000
2,143879	0,054382	41,198	-0,076191	0,000000	0,000000
2,151886	0,109921	41,600	-0,076168	0,000000	0,000000
2,159908	-0,008099	42,001	-0,076218	0,000000	0,000000
2,167884	-0,023141	42,402	-0,076224	0,000000	0,000000
2,175893	0,016199	42,802	-0,076208	0,000000	0,000000
2,183900	0,054382	43,204	-0,076191	0,000000	0,000000
2,191843	0,298523	43,607	-0,076088	0,000000	0,000000
2,199887	0,047440	44,007	-0,076194	0,000000	0,000000
2,207918	0,101822	44,407	-0,076171	0,000000	0,000000
2,215933	0,093722	44,807	-0,076175	0,000000	0,000000
2,223909	0,328606	45,209	-0,076076	0,000000	0,000000
2,231885	0,321664	45,611	-0,076079	0,000000	0,000000
2,239854	0,242984	46,011	-0,076112	0,000000	0,000000
2,247897	0,031241	46,411	-0,076201	0,000000	0,000000
2,255876	0,124963	46,812	-0,076162	0,000000	0,000000
2,263892	-0,016199	47,213	-0,076221	0,000000	0,000000
2,271887	-0,039340	47,613	-0,076231	0,000000	0,000000
2,279895	0,321664	48,013	-0,076079	0,000000	0,000000
2,287884	0,188602	48,414	-0,076135	0,000000	0,000000
2,295931	0,336706	48,814	-0,076072	0,000000	0,000000
2,303928	0,062481	49,214	-0,076188	0,000000	0,000000
2,311863	0,211743	49,614	-0,076125	0,000000	0,000000
2,319899	-0,008099	50,014	-0,076218	0,000000	0,000000
2,327930	-0,047440	50,414	-0,076234	0,000000	0,000000
2,335854	0,093722	50,815	-0,076175	0,000000	0,000000
2,343953	-0,031241	51,216	-0,076228	0,000000	0,000000
2,351874	0,016199	51,617	-0,076208	0,000000	0,000000
2,359870	0,078680	52,017	-0,076181	0,000000	0,000000
2,367892	0,008099	52,419	-0,076211	0,000000	0,000000
2,375918	0,116864	52,819	-0,076165	0,000000	0,000000
2,383896	-0,093722	53,219	-0,076254	0,000000	0,000000
2,391931	-0,124963	53,620	-0,076267	0,000000	0,000000
2,399926	0,149261	54,021	-0,076151	0,000000	0,000000
2,407871	0,101822	54,421	-0,076171	0,000000	0,000000
2,415876	0,313564	54,821	-0,076082	0,000000	0,000000
2,423871	0,124963	55,221	-0,076162	0,000000	0,000000
2,431926	0,039340	55,624	-0,076198	0,000000	0,000000
2,439873	0,116864	56,024	-0,076165	0,000000	0,000000
2,447891	0,016199	56,425	-0,076208	0,000000	0,000000
2,455923	-0,086780	56,826	-0,076251	0,000000	0,000000
2,463887	0,016199	57,226	-0,076208	0,000000	0,000000
2,471884	0,124963	57,627	-0,076162	0,000000	0,000000
2,479860	0,321664	58,028	-0,076079	0,000000	0,000000
2,487923	-0,078680	58,428	-0,076248	0,000000	0,000000
2,495872	-0,124963	58,828	-0,076267	0,000000	0,000000
2,503880	-0,078680	59,229	-0,076248	0,000000	0,000000
2,511893	0,195544	59,630	-0,076132	0,000000	0,000000
2,519876	0,093722	60,032	-0,076175	0,000000	0,000000
2,527852	0,039340	60,432	-0,076198	0,000000	0,000000
2,535870	0,399187	60,833	-0,076046	0,000000	0,000000
2,543913	-0,234884	61,234	-0,076313	0,000000	0,000000
2,551857	0,016199	61,636	-0,076208	0,000000	0,000000
2,559887	0,086780	62,037	-0,076178	0,000000	0,000000
2,567890	0,039340	62,437	-0,076198	0,000000	0,000000
2,575871	0,164303	62,839	-0,076145	0,000000	0,000000
2,583882	0,141162	63,242	-0,076155	0,000000	0,000000
2,591890	0,093722	63,644	-0,076175	0,000000	0,000000
2,599874	0,086780	64,044	-0,076178	0,000000	0,000000
2,607918	0,141162	64,444	-0,076155	0,000000	0,000000
2,615866	-0,031241	64,845	-0,076228	0,000000	0,000000
2,623908	-0,016199	65,245	-0,076221	0,000000	0,000000
2,631882	0,219842	65,648	-0,076122	0,000000	0,000000
2,639900	0,086780	66,051	-0,076178	0,000000	0,000000
2,647885	0,116864	66,452	-0,076165	0,000000	0,000000
2,655859	0,086780	66,854	-0,076178	0,000000	0,000000
2,663889	0,078680	67,254	-0,076181	0,000000	0,000000
2,671922	-0,008099	67,654	-0,076218	0,000000	0,000000
2,679905	0,109921	68,054	-0,076168	0,000000	0,000000
2,687876	-0,078680	68,455	-0,076248	0,000000	0,000000
2,695903	-0,016199	68,855	-0,076221	0,000000	0,000000
2,703869	0,376046	69,258	-0,076056	0,000000	0,000000
2,711904	0,109921	69,659	-0,076168	0,000000	0,000000
2,719904	0,070581	70,060	-0,076185	0,000000	0,000000
2,727908	0,031241	70,463	-0,076201	0,000000	0,000000
2,735879	0,086780	70,864	-0,076178	0,000000	0,000000
2,743889	-0,039340	71,265	-0,076231	0,000000	0,000000
2,751912	0,124963	71,665	-0,076162	0,000000	0,000000
2,759868	0,054382	72,065	-0,076191	0,000000	0,000000
2,767884	0,226785	72,467	-0,076119	0,000000	0,000000
2,775879	0,290423	72,868	-0,076092	0,000000	0,000000
2,783915	-0,055539	73,272	-0,076238	0,000000	0,000000
2,791893	-0,062481	73,675	-0,076241	0,000000	0,000000
2,799883	-0,055539	74,075	-0,076238	0,000000	0,000000
2,807885	0,219842	74,475	-0,076122	0,000000	0,000000
2,815905	0,124963	74,875	-0,076162	0,000000	0,000000
2,823898	0,124963	75,275	-0,076162	0,000000	0,000000
2,831888	-0,070581	75,678	-0,076244	0,000000	0,000000
2,839937	0,242984	76,079	-0,076112	0,000000	0,000000
2,847886	0,000000	76,480	-0,076214	0,000000	0,000000
2,855882	0,149261	76,881	-0,076151	0,000000	0,000000
2,863860	-0,093722	77,282	-0,076254	0,000000	0,000000
2,871884	0,180502	77,682	-0,076138	0,000000	0,000000
2,879924	-0,055539	78,083	-0,076238	0,000000	0,000000
2,887885	0,054382	78,484	-0,076191	0,000000	0,000000
2,895890	0,251083	78,886	-0,076108	0,000000	0,000000
2,903852	-0,109921	79,289	-0,076261	0,000000	0,000000
2,911841	-0,016199	79,689	-0,076221	0,000000	0,000000
2,919850	-0,093722	80,089	-0,076254	0,000000	0,000000
2,927884	-0,039340	80,489	-0,076231	0,000000	0,000000
2,935828	-0,008099	80,890	-0,076218	0,000000	0,000000
2,943907	0,180502	81,290	-0,076138	0,000000	0,000000
2,951863	0,321664	81,692	-0,076079	0,000000	0,000000
2,959879	0,266125	82,092	-0,076102	0,000000	0,000000
2,967848	-0,211743	82,492	-0,076304	0,000000	0,000000
2,975893	0,188602	82,893	-0,076135	0,000000	0,000000
2,983859	-0,070581	83,293	-0,076244	0,000000	0,000000
2,991892	0,000000	83,694	-0,076214	0,000000	0,000000
2,999904	0,164303	84,095	-0,076145	0,000000	0,000000
3,007854	-0,070581	84,496	-0,076244	0,000000	0,000000
3,015887	0,116864	84,896	-0,076165	0,000000	0,000000
3,023860	-187,248917	85,297	-0,155233	0,000000	0,000000
3,031860	-198,394920	85,697	-0,159937	0,000000	0,000000
3,039802	-197,900853	86,098	-0,159729	0,000000	0,000000
3,047885	-195,432835	86,499	-0,158687	0,000000	0,000000
3,055874	-192,508933	86,899	-0,157453	0,000000	0,000000
3,063830	-188,879221	87,300	-0,155921	0,000000	0,000000
3,071842	-184,741558	87,700	-0,154175	0,000000	0,000000
3,079833	-180,061232	88,100	-0,152200	0,000000	0,000000
3,087890	-176,182751	88,501	-0,150563	0,000000	0,000000
3,095859	-172,365595	88,902	-0,148953	0,000000	0,000000
3,103848	-167,834531	89,304	-0,147041	0,000000	0,000000
3,111854	-163,688768	89,705	-0,145291	0,000000	0,000000
3,119864	-158,962159	90,106	-0,143296	0,000000	0,000000
3,127867	-154,627795	90,508	-0,141467	0,000000	0,000000
3,135817	-149,799365	90,909	-0,139430	0,000000	0,000000
3,143846	-144,210743	91,310	-0,137071	0,000000	0,000000
3,151841	-140,825172	91,710	-0,135643	0,000000	0,000000
3,159858	-136,067323	92,112	-0,133635	0,000000	0,000000
3,167867	-131,184510	92,513	-0,131574	0,000000	0,000000
3,175844	-125,188602	92,914	-0,129044	0,000000	0,000000
3,183869	-120,861180	93,314	-0,127218	0,000000	0,000000
3,191809	-115,837206	93,717	-0,125098	0,000000	0,000000
3,199838	-112,028149	94,119	-0,123490	0,000000	0,000000
3,207856	-107,552623	94,521	-0,121602	0,000000	0,000000
3,215837	-102,661711	94,921	-0,119538	0,000000	0,000000
3,223847	-98,154945	95,321	-0,117636	0,000000	0,000000
3,231805	-93,264033	95,721	-0,115572	0,000000	0,000000
3,239878	-88,811648	96,121	-0,113693	0,000000	0,000000
3,247828	-84,281741	96,523	-0,111781	0,000000	0,000000
3,255819	-79,336447	96,925	-0,109694	0,000000	0,000000
3,263823	-74,703560	97,327	-0,107739	0,000000	0,000000
3,271805	-69,789507	97,729	-0,105666	0,000000	0,000000
3,279836	-64,882396	98,131	-0,103595	0,000000	0,000000
3,287826	-58,768467	98,531	-0,101015	0,000000	0,000000
3,295884	-53,862513	98,931	-0,098944	0,000000	0,000000
3,303829	-49,112763	99,332	-0,096940	0,000000	0,000000
3,311798	-44,198710	99,732	-0,094866	0,000000	0,000000
3,319804	-39,432761	100,133	-0,092855	0,000000	0,000000
3,327813	-35,858588	100,534	-0,091347	0,000000	0,000000
3,335857	-30,333605	100,937	-0,089015	0,000000	0,000000
3,343819	-25,998084	101,338	-0,087186	0,000000	0,000000
3,351789	-21,037748	101,739	-0,085092	0,000000	0,000000
3,359793	-15,848313	102,139	-0,082902	0,000000	0,000000
3,367807	-11,631970	102,539	-0,081123	0,000000	0,000000
3,375851	-6,325672	102,940	-0,078884	0,000000	0,000000
3,383780	-1,183677	103,341	-0,076714	0,000000	0,000000
3,391830	3,833355	103,742	-0,074597	0,000000	0,000000
3,399807	9,867447	104,142	-0,072050	0,000000	0,000000
3,407797	15,048782	104,543	-0,069864	0,000000	0,000000
3,415797	20,222018	104,945	-0,067681	0,000000	0,000000
3,423787	25,011108	105,347	-0,065660	0,000000	0,000000
3,431760	30,379887	105,748	-0,063394	0,000000	0,000000
3,439783	35,239559	106,148	-0,061343	0,000000	0,000000
3,447805	39,895586	106,550	-0,059378	0,000000	0,000000
3,455805	44,809640	106,951	-0,057305	0,000000	0,000000
3,463784	49,363846	107,353	-0,055383	0,000000	0,000000
3,471791	54,292941	107,753	-0,053303	0,000000	0,000000
3,479781	59,208151	108,153	-0,051229	0,000000	0,000000
3,487801	64,240225	108,555	-0,049105	0,000000	0,000000
3,495759	69,444702	108,956	-0,046909	0,000000	0,000000
3,503761	74,523058	109,357	-0,044766	0,000000	0,000000
3,511776	79,446368	109,757	-0,042688	0,000000	0,000000
3,519806	84,383562	110,159	-0,040604	0,000000	0,000000
3,527725	91,077181	110,559	-0,037780	0,000000	0,000000
3,535788	96,069914	110,961	-0,035673	0,000000	0,000000
3,543764	101,478034	111,361	-0,033391	0,000000	0,000000
3,551728	104,840464	111,761	-0,031972	0,000000	0,000000
3,559759	109,966260	112,161	-0,029809	0,000000	0,000000
3,567778	115,751583	112,562	-0,027367	0,000000	0,000000
3,575768	121,691952	112,964	-0,024860	0,000000	0,000000
3,583750	126,356080	113,367	-0,022892	0,000000	0,000000
3,591761	131,278232	113,767	-0,020815	0,000000	0,000000
3,599771	136,333447	114,168	-0,018682	0,000000	0,000000
3,607759	141,217417	114,569	-0,016621	0,000000	0,000000
3,615774	145,832948	114,970	-0,014673	0,000000	0,000000
3,623722	152,354164	115,372	-0,011921	0,000000	0,000000
3,631759	156,266199	115,774	-0,010270	0,000000	0,000000
3,639732	161,070331	116,174	-0,008243	0,000000	0,000000
3,647777	166,650853	116,574	-0,005888	0,000000	0,000000
3,655748	173,148928	116,974	-0,003146	0,000000	0,000000
3,663709	176,926744	117,375	-0,001551	0,000000	0,000000
3,671735	181,699635	117,775	0,000463	0,000000	0,000000
3,679784	186,912211	118,175	0,002663	0,000000	0,000000
3,687745	191,857505	118,575	0,004750	0,000000	0,000000
3,695764	198,669144	118,976	0,007624	0,000000	0,000000
3,703721	204,272808	119,377	0,009989	0,000000	0,000000
3,711740	209,053799	119,777	0,012006	0,000000	0,000000
3,719762	214,470018	120,178	0,014292	0,000000	0,000000
3,727743	219,682594	120,578	0,016492	0,000000	0,000000
3,735742	224,550365	120,979	0,018546	0,000000	0,000000
3,743757	228,265699	121,380	0,020114	0,000000	0,000000
3,751773	233,696960	121,782	0,022406	0,000000	0,000000
3,759811	239,277483	122,182	0,024761	0,000000	0,000000
3,767741	243,862930	122,582	0,026696	0,000000	0,000000
3,775735	249,075505	122,984	0,028896	0,000000	0,000000
3,783750	254,311223	123,387	0,031105	0,000000	0,000000
3,791752	259,445118	123,788	0,033271	0,000000	0,000000
3,799755	264,492234	124,189	0,035401	0,000000	0,000000
3,807759	269,869113	124,590	0,037670	0,000000	0,000000
3,815748	275,379054	124,991	0,039996	0,000000	0,000000
3,823714	280,184344	125,391	0,042023	0,000000	0,000000
3,831768	287,254008	125,792	0,045007	0,000000	0,000000
3,839745	292,254841	126,193	0,047117	0,000000	0,000000
3,847761	297,576181	126,594	0,049363	0,000000	0,000000
3,855780	302,420811	126,994	0,051407	0,000000	0,000000
3,863786	307,530408	127,395	0,053563	0,000000	0,000000
3,871727	312,985967	127,795	0,055866	0,000000	0,000000
3,879746	318,315407	128,195	0,058115	0,000000	0,000000
3,887770	323,347480	128,597	0,060238	0,000000	0,000000
3,895788	328,356413	128,998	0,062352	0,000000	0,000000
3,903761	333,293607	129,399	0,064436	0,000000	0,000000
3,911750	338,389320	129,800	0,066586	0,000000	0,000000
3,919721	343,397095	130,200	0,068699	0,000000	0,000000
3,927775	349,456642	130,600	0,071256	0,000000	0,000000
3,935743	354,142754	131,001	0,073234	0,000000	0,000000
3,943770	359,622612	131,401	0,075546	0,000000	0,000000
3,951733	364,661628	131,801	0,077673	0,000000	0,000000
3,959757	371,253425	132,202	0,080455	0,000000	0,000000
3,967725	376,426661	132,602	0,082638	0,000000	0,000000
3,975683	380,713585	133,002	0,084447	0,000000	0,000000
3,983710	385,635738	133,404	0,086524	0,000000	0,000000
3,991700	392,517958	133,805	0,089428	0,000000	0,000000
3,999793	397,863596	134,206	0,091684	0,000000	0,000000
4,007689	402,887570	134,606	0,093804	0,000000	0,000000
4,015731	408,154528	135,007	0,096027	0,000000	0,000000
4,023717	413,452727	135,408	0,098263	0,000000	0,000000
4,031721	419,104987	135,808	0,100648	0,000000	0,000000
4,039757	424,152103	136,208	0,102778	0,000000	0,000000
4,047717	429,325339	136,608	0,104961	0,000000	0,000000
4,055709	433,353081	137,008	0,106661	0,000000	0,000000
4,063744	438,997242	137,409	0,109042	0,000000	0,000000
4,071731	444,930669	137,809	0,111546	0,000000	0,000000
4,079741	450,558631	138,209	0,113921	0,000000	0,000000
4,087707	455,582605	138,609	0,116042	0,000000	0,000000
4,095709	460,982626	139,009	0,118320	0,000000	0,000000
4,103700	465,348230	139,409	0,120163	0,000000	0,000000
4,111730	470,764449	139,810	0,122448	0,000000	0,000000
4,119670	476,611097	140,212	0,124916	0,000000	0,000000
4,127715	481,721851	140,612	0,127072	0,000000	0,000000
4,135708	486,918228	141,016	0,129265	0,000000	0,000000
4,143687	492,052123	141,418	0,131432	0,000000	0,000000
4,151713	497,358422	141,820	0,133671	0,000000	0,000000
4,159672	502,805882	142,220	0,135970	0,000000	0,000000
4,167694	508,104080	142,621	0,138206	0,000000	0,000000
4,175684	513,708901	143,021	0,140571	0,000000	0,000000
4,183677	518,849739	143,422	0,142740	0,000000	0,000000
4,191741	525,661378	143,822	0,145615	0,000000	0,000000
4,199725	530,928336	144,222	0,147837	0,000000	0,000000
4,207683	536,329513	144,625	0,150117	0,000000	0,000000
4,215690	541,783916	145,026	0,152418	0,000000	0,000000
4,223696	546,886571	145,427	0,154572	0,000000	0,000000
4,231708	551,455819	145,829	0,156500	0,000000	0,000000
4,239657	556,519133	146,231	0,158637	0,000000	0,000000
4,247704	562,100813	146,632	0,160992	0,000000	0,000000
4,255647	567,218509	147,033	0,163152	0,000000	0,000000
4,263654	572,579189	147,434	0,165414	0,000000	0,000000
4,271689	579,500750	147,837	0,168335	0,000000	0,000000
4,279733	584,846388	148,238	0,170591	0,000000	0,000000
4,287690	590,402612	148,639	0,172936	0,000000	0,000000
4,295661	595,701968	149,039	0,175172	0,000000	0,000000
4,303676	599,526066	149,440	0,176786	0,000000	0,000000
4,311714	604,942286	149,840	0,179071	0,000000	0,000000
4,319675	611,001833	150,242	0,181628	0,000000	0,000000
4,327691	616,950302	150,644	0,184139	0,000000	0,000000
4,335688	622,115438	151,045	0,186318	0,000000	0,000000
4,343684	627,516615	151,445	0,188598	0,000000	0,000000
4,343677	627,617280	151,845	0,188640	0,000000	0,000000
4,343651	627,241234	152,245	0,188481	0,000000	0,000000
4,343644	626,850146	152,646	0,188316	0,000000	0,000000
4,343667	626,551624	153,046	0,188190	0,000000	0,000000
4,343627	626,096897	153,446	0,187999	0,000000	0,000000
4,343678	626,081855	153,847	0,187992	0,000000	0,000000
4,343707	626,011274	154,247	0,187962	0,000000	0,000000
4,343650	625,650270	154,647	0,187810	0,000000	0,000000
4,343668	625,282324	155,047	0,187655	0,000000	0,000000
4,343644	625,477868	155,449	0,187737	0,000000	0,000000
4,343685	624,906278	155,850	0,187496	0,000000	0,000000
4,343637	625,039340	156,250	0,187552	0,000000	0,000000
4,343652	624,686436	156,650	0,187403	0,000000	0,000000
4,343678	624,200468	157,051	0,187198	0,000000	0,000000
4,343697	624,757016	157,451	0,187433	0,000000	0,000000
4,343668	624,254850	157,852	0,187221	0,000000	0,000000
4,343678	624,044265	158,254	0,187132	0,000000	0,000000
4,343648	623,855663	158,655	0,187053	0,000000	0,000000
4,343660	623,745742	159,056	0,187006	0,000000	0,000000
4,343630	623,691360	159,457	0,186983	0,000000	0,000000
4,343663	623,635821	159,858	0,186960	0,000000	0,000000
4,343664	623,440277	160,259	0,186877	0,000000	0,000000
4,343644	623,432178	160,659	0,186874	0,000000	0,000000
4,343676	623,299115	161,059	0,186818	0,000000	0,000000
4,343695	623,197293	161,459	0,186775	0,000000	0,000000
4,335666	618,628045	161,861	0,184847	0,000000	0,000000
4,327709	612,709660	162,263	0,182349	0,000000	0,000000
4,319695	606,682511	162,664	0,179806	0,000000	0,000000
4,311665	600,740984	163,064	0,177298	0,000000	0,000000
4,303685	594,871196	163,466	0,174821	0,000000	0,000000
4,295644	587,534249	163,869	0,171725	0,000000	0,000000
4,287678	582,134229	164,270	0,169446	0,000000	0,000000
4,279686	576,294524	164,673	0,166982	0,000000	0,000000
4,271669	570,643420	165,075	0,164597	0,000000	0,000000
4,263650	565,322080	165,476	0,162352	0,000000	0,000000
4,255679	559,529815	165,876	0,159907	0,000000	0,000000
4,247718	554,191119	166,277	0,157654	0,000000	0,000000
4,239670	548,454393	166,678	0,155233	0,000000	0,000000
4,231751	542,928253	167,080	0,152901	0,000000	0,000000
4,223690	537,505091	167,481	0,150613	0,000000	0,000000
4,215685	531,727868	167,881	0,148175	0,000000	0,000000
4,207737	526,217926	168,283	0,145850	0,000000	0,000000
4,199701	518,857838	168,683	0,142744	0,000000	0,000000
4,191737	514,828940	169,083	0,141043	0,000000	0,000000
4,183716	509,318998	169,484	0,138718	0,000000	0,000000
4,175697	503,346231	169,885	0,136198	0,000000	0,000000
4,167708	497,719426	170,286	0,133823	0,000000	0,000000
4,159718	490,766625	170,688	0,130889	0,000000	0,000000
4,151719	485,312222	171,089	0,128587	0,000000	0,000000
4,143702	480,671236	171,489	0,126629	0,000000	0,000000
4,135696	474,173162	171,890	0,123887	0,000000	0,000000
4,127682	468,914303	172,291	0,121667	0,000000	0,000000
4,119688	464,353155	172,694	0,119743	0,000000	0,000000
4,111722	458,474110	173,096	0,117262	0,000000	0,000000
4,103714	453,505674	173,497	0,115165	0,000000	0,000000
4,095759	446,019466	173,899	0,112006	0,000000	0,000000
4,087707	440,823089	174,300	0,109813	0,000000	0,000000
4,079744	435,273808	174,700	0,107471	0,000000	0,000000
4,071689	429,716427	175,100	0,105126	0,000000	0,000000
4,063687	425,766208	175,592	0,103459	0,000000	0,000000
4,055695	419,872121	175,992	0,100972	0,000000	0,000000
4,047739	412,841797	176,392	0,098005	0,000000	0,000000
4,039712	408,899678	176,794	0,096341	0,000000	0,000000
4,031693	403,436019	177,196	0,094036	0,000000	0,000000
4,023743	397,839298	177,599	0,091674	0,000000	0,000000
4,015746	392,353654	177,999	0,089359	0,000000	0,000000
4,007722	386,663211	178,400	0,086958	0,000000	0,000000
3,999726	379,882813	178,802	0,084096	0,000000	0,000000
3,991705	374,576514	179,204	0,081857	0,000000	0,000000
3,983744	370,297690	179,604	0,080051	0,000000	0,000000
3,975756	364,614188	180,004	0,077653	0,000000	0,000000
3,967720	359,174828	180,405	0,075357	0,000000	0,000000
3,959735	352,379388	180,806	0,072490	0,000000	0,000000
3,951719	347,064990	181,206	0,070247	0,000000	0,000000
3,943755	342,034073	181,606	0,068124	0,000000	0,000000
3,935752	336,350572	182,006	0,065726	0,000000	0,000000
3,927697	331,750083	182,407	0,063784	0,000000	0,000000
3,919724	326,059640	182,807	0,061383	0,000000	0,000000
3,911751	320,431678	183,207	0,059008	0,000000	0,000000
3,903734	315,486384	183,608	0,056921	0,000000	0,000000
3,895781	309,443035	184,008	0,054371	0,000000	0,000000
3,887738	303,995575	184,408	0,052072	0,000000	0,000000
3,879689	298,799198	184,810	0,049879	0,000000	0,000000
3,871745	293,586622	185,210	0,047679	0,000000	0,000000
3,863750	287,864938	185,611	0,045265	0,000000	0,000000
3,855752	282,786582	186,011	0,043122	0,000000	0,000000
3,847737	276,805715	186,411	0,040598	0,000000	0,000000
3,839761	271,578097	186,811	0,038392	0,000000	0,000000
3,831737	265,096221	187,213	0,035656	0,000000	0,000000
3,823758	259,374537	187,615	0,033242	0,000000	0,000000
3,815707	255,048273	188,015	0,031416	0,000000	0,000000
3,807725	249,702634	188,416	0,029160	0,000000	0,000000
3,799750	242,562389	188,816	0,026147	0,000000	0,000000
3,791765	236,972610	189,217	0,023788	0,000000	0,000000
3,783765	231,729950	189,618	0,021576	0,000000	0,000000
3,775740	227,458068	190,019	0,019773	0,000000	0,000000
3,767778	220,850072	190,419	0,016984	0,000000	0,000000
3,759763	216,656870	190,822	0,015215	0,000000	0,000000
3,751734	209,987550	191,223	0,012400	0,000000	0,000000
3,743739	204,124704	191,626	0,009926	0,000000	0,000000
3,735724	200,284406	192,028	0,008306	0,000000	0,000000
3,727792	195,016291	192,429	0,006083	0,000000	0,000000
3,719773	189,240225	192,830	0,003645	0,000000	0,000000
3,711733	182,201801	193,231	0,000675	0,000000	0,000000
3,703728	178,588289	193,632	-0,000850	0,000000	0,000000
3,695732	173,172069	194,034	-0,003136	0,000000	0,000000
3,687782	167,371705	194,436	-0,005583	0,000000	0,000000
3,679780	163,022299	194,838	-0,007419	0,000000	0,000000
3,671785	157,331855	195,239	-0,009820	0,000000	0,000000
3,663770	152,213002	195,641	-0,011980	0,000000	0,000000
3,655697	146,553799	196,043	-0,014369	0,000000	0,000000
3,647748	141,068156	196,444	-0,016684	0,000000	0,000000
3,639776	135,909962	196,845	-0,018860	0,000000	0,000000
3,631787	130,549282	197,245	-0,021123	0,000000	0,000000
3,623760	123,683261	197,647	-0,024020	0,000000	0,000000
3,615782	119,513200	198,048	-0,025780	0,000000	0,000000
3,607814	114,129378	198,449	-0,028052	0,000000	0,000000
3,599758	107,262200	198,849	-0,030950	0,000000	0,000000
3,591810	103,963409	199,249	-0,032342	0,000000	0,000000
3,583788	96,963168	199,650	-0,035296	0,000000	0,000000
3,575785	92,300198	200,054	-0,037264	0,000000	0,000000
3,567774	86,821497	200,455	-0,039576	0,000000	0,000000
3,559756	81,475859	200,857	-0,041832	0,000000	0,000000
3,551776	76,122121	201,259	-0,044091	0,000000	0,000000
3,543799	70,807724	201,662	-0,046333	0,000000	0,000000
3,535780	65,642587	202,063	-0,048513	0,000000	0,000000
3,527793	60,430011	202,467	-0,050713	0,000000	0,000000
3,519834	53,933094	202,870	-0,053455	0,000000	0,000000
3,511790	49,802373	203,273	-0,055198	0,000000	0,000000
3,503801	43,453560	203,675	-0,057877	0,000000	0,000000
3,495789	38,460826	204,077	-0,059984	0,000000	0,000000
3,487796	32,919644	204,478	-0,062322	0,000000	0,000000
3,479804	27,808890	204,881	-0,064479	0,000000	0,000000
3,471780	21,977285	205,281	-0,066940	0,000000	0,000000
3,463766	16,772808	205,682	-0,069136	0,000000	0,000000
3,455814	11,200385	206,085	-0,071488	0,000000	0,000000
3,447793	5,964668	206,486	-0,073697	0,000000	0,000000
3,439794	-1,206818	206,887	-0,076724	0,000000	0,000000
3,431805	-5,713585	207,290	-0,078625	0,000000	0,000000
3,423830	-10,722517	207,693	-0,080739	0,000000	0,000000
3,415807	-17,345555	208,097	-0,083534	0,000000	0,000000
3,407808	-22,604414	208,497	-0,085753	0,000000	0,000000
3,399808	-26,413470	208,899	-0,087361	0,000000	0,000000
3,391830	-31,845888	209,301	-0,089653	0,000000	0,000000
3,383798	-39,158536	209,703	-0,092739	0,000000	0,000000
3,375787	-44,269291	210,104	-0,094896	0,000000	0,000000
3,367836	-49,763033	210,505	-0,097214	0,000000	0,000000
3,359823	-55,571497	210,907	-0,099666	0,000000	0,000000
3,351831	-59,434936	211,308	-0,101296	0,000000	0,000000
3,343831	-64,969176	211,710	-0,103631	0,000000	0,000000
3,335848	-70,659619	212,112	-0,106033	0,000000	0,000000
3,327847	-75,793515	212,513	-0,108199	0,000000	0,000000
3,319815	-80,480783	212,914	-0,110177	0,000000	0,000000
3,311865	-86,915220	213,314	-0,112893	0,000000	0,000000
3,303807	-91,892911	213,717	-0,114993	0,000000	0,000000
3,295865	-96,713242	214,118	-0,117027	0,000000	0,000000
3,287826	-100,302457	214,521	-0,118542	0,000000	0,000000
3,279848	-107,027316	214,921	-0,121380	0,000000	0,000000
3,271856	-111,542182	215,322	-0,123285	0,000000	0,000000
3,263840	-116,025807	215,723	-0,125177	0,000000	0,000000
3,255847	-122,279741	216,125	-0,127816	0,000000	0,000000
3,247853	-126,669644	216,528	-0,129669	0,000000	0,000000
3,239814	-132,250167	216,928	-0,132024	0,000000	0,000000
3,231839	-137,266042	217,329	-0,134141	0,000000	0,000000
3,223834	-144,156361	217,730	-0,137048	0,000000	0,000000
3,215857	-147,886737	218,132	-0,138623	0,000000	0,000000
3,207854	-152,872529	218,533	-0,140727	0,000000	0,000000
3,199806	-159,942193	218,933	-0,143710	0,000000	0,000000
3,191827	-165,310973	219,333	-0,145976	0,000000	0,000000
3,183857	-169,190610	219,734	-0,147613	0,000000	0,000000
3,175856	-175,437602	220,136	-0,150249	0,000000	0,000000
3,167909	-179,011774	220,536	-0,151757	0,000000	0,000000
3,159835	-184,185010	220,936	-0,153940	0,000000	0,000000
3,151868	-189,357089	221,336	-0,156123	0,000000	0,000000
3,143865	-196,263607	221,737	-0,159038	0,000000	0,000000
3,135855	-201,310723	222,138	-0,161167	0,000000	0,000000
3,127898	-205,221601	222,540	-0,162818	0,000000	0,000000
3,119873	-210,982626	222,941	-0,165249	0,000000	0,000000
3,111830	-216,069081	223,342	-0,167396	0,000000	0,000000
3,103873	-220,685769	223,743	-0,169344	0,000000	0,000000
3,095892	-227,316906	224,143	-0,172142	0,000000	0,000000
3,087879	-230,899178	224,544	-0,173654	0,000000	0,000000
3,079884	-236,087456	224,946	-0,175843	0,000000	0,000000
3,071903	-241,111430	225,349	-0,177963	0,000000	0,000000
3,063895	-246,379545	225,751	-0,180187	0,000000	0,000000
3,055861	-253,206226	226,152	-0,183067	0,000000	0,000000
3,047844	-256,772299	226,553	-0,184572	0,000000	0,000000
3,039860	-262,485884	226,955	-0,186983	0,000000	0,000000
3,031887	-268,097647	227,357	-0,189352	0,000000	0,000000
3,023879	-272,236467	227,757	-0,191098	0,000000	0,000000
3,015917	-277,746408	228,158	-0,193423	0,000000	0,000000
3,007880	-281,626046	228,562	-0,195061	0,000000	0,000000
2,999883	-287,183427	228,963	-0,197406	0,000000	0,000000
2,991899	-291,658953	229,364	-0,199294	0,000000	0,000000
2,983894	-297,004591	229,767	-0,201550	0,000000	0,000000
2,975879	-303,415886	230,169	-0,204256	0,000000	0,000000
2,967879	-307,311722	230,571	-0,205900	0,000000	0,000000
2,959902	-313,644337	230,972	-0,208572	0,000000	0,000000
2,951906	-317,673236	231,374	-0,210272	0,000000	0,000000
2,943867	-322,547949	231,776	-0,212330	0,000000	0,000000
2,935924	-327,752425	232,177	-0,214526	0,000000	0,000000
2,927956	-332,447793	232,578	-0,216507	0,000000	0,000000
2,919883	-338,020216	232,979	-0,218859	0,000000	0,000000
2,911871	-342,480700	233,380	-0,220741	0,000000	0,000000
2,903933	-349,205559	233,782	-0,223579	0,000000	0,000000
2,895936	-352,802873	234,182	-0,225097	0,000000	0,000000
2,887896	-357,818748	234,583	-0,227214	0,000000	0,000000
2,879913	-362,796440	234,984	-0,229314	0,000000	0,000000
2,871911	-368,079597	235,384	-0,231544	0,000000	0,000000
2,863898	-375,078680	235,786	-0,234498	0,000000	0,000000
2,855891	-377,915803	236,186	-0,235695	0,000000	0,000000
2,847978	-383,543765	236,589	-0,238070	0,000000	0,000000
2,839852	-388,175494	236,990	-0,240024	0,000000	0,000000
2,831886	-392,181252	237,391	-0,241715	0,000000	0,000000
2,823941	-398,310223	237,794	-0,244301	0,000000	0,000000
2,815888	-403,028732	238,196	-0,246292	0,000000	0,000000
2,807917	-406,908370	238,598	-0,247930	0,000000	0,000000
2,799934	-411,791182	238,999	-0,249990	0,000000	0,000000
2,791890	-417,435343	239,399	-0,252372	0,000000	0,000000
2,783907	-421,259442	239,800	-0,253986	0,000000	0,000000
2,775900	-427,749417	240,201	-0,256725	0,000000	0,000000
2,767929	-431,504091	240,603	-0,258309	0,000000	0,000000
2,759911	-436,457485	241,004	-0,260399	0,000000	0,000000
2,751888	-442,038007	241,406	-0,262754	0,000000	0,000000
2,743877	-447,360504	241,807	-0,265000	0,000000	0,000000
2,735867	-452,941027	242,209	-0,267355	0,000000	0,000000
2,727908	-455,512024	242,612	-0,268440	0,000000	0,000000
2,719915	-462,166303	243,015	-0,271249	0,000000	0,000000
2,711913	-467,017874	243,416	-0,273296	0,000000	0,000000
2,703913	-470,654528	243,818	-0,274831	0,000000	0,000000
2,695954	-476,509275	244,220	-0,277301	0,000000	0,000000
2,687878	-480,272049	244,621	-0,278889	0,000000	0,000000
2,679877	-486,377879	245,021	-0,281466	0,000000	0,000000
2,671954	-490,681002	245,422	-0,283282	0,000000	0,000000
2,663939	-495,030408	245,824	-0,285117	0,000000	0,000000
2,655932	-499,318489	246,226	-0,286927	0,000000	0,000000
2,647922	-504,161961	246,629	-0,288971	0,000000	0,000000
2,639933	-509,044774	247,029	-0,291031	0,000000	0,000000
2,631928	-514,359171	247,429	-0,293274	0,000000	0,000000
2,623904	-521,193952	247,829	-0,296158	0,000000	0,000000
2,615899	-524,375879	248,231	-0,297501	0,000000	0,000000
2,607948	-529,783999	248,631	-0,299783	0,000000	0,000000
2,599929	-534,126463	249,033	-0,301616	0,000000	0,000000
2,591927	-539,245316	249,433	-0,303776	0,000000	0,000000
2,583913	-543,657203	249,834	-0,305638	0,000000	0,000000
2,575925	-548,493733	250,235	-0,307679	0,000000	0,000000
2,567926	-553,149761	250,638	-0,309644	0,000000	0,000000
2,559926	-559,286832	251,039	-0,312233	0,000000	0,000000
2,551923	-562,343796	251,440	-0,313523	0,000000	0,000000
2,543965	-567,540173	251,842	-0,315716	0,000000	0,000000
2,535894	-571,043765	252,244	-0,317195	0,000000	0,000000
2,527933	-575,816656	252,646	-0,319209	0,000000	0,000000
2,519962	-579,728691	253,048	-0,320860	0,000000	0,000000
2,511932	-584,061898	253,449	-0,322688	0,000000	0,000000
2,503942	-589,328856	253,851	-0,324911	0,000000	0,000000
2,495925	-593,608838	254,252	-0,326717	0,000000	0,000000
2,487902	-598,844555	254,654	-0,328927	0,000000	0,000000
2,479923	-600,568582	255,055	-0,329654	0,000000	0,000000
2,471962	-605,774215	255,456	-0,331851	0,000000	0,000000
2,463942	-609,770716	255,857	-0,333538	0,000000	0,000000
2,455945	-612,310473	256,258	-0,334609	0,000000	0,000000
2,447973	-617,319405	256,659	-0,336723	0,000000	0,000000
2,439909	-622,547023	257,061	-0,338929	0,000000	0,000000
2,431942	-626,536582	257,462	-0,340613	0,000000	0,000000
2,423968	-630,846647	257,862	-0,342432	0,000000	0,000000
2,415928	-634,789923	258,263	-0,344096	0,000000	0,000000
2,407939	-639,367271	258,663	-0,346027	0,000000	0,000000
2,399924	-644,038340	259,064	-0,347999	0,000000	0,000000
2,391927	-647,479451	259,464	-0,349451	0,000000	0,000000
2,383943	-651,821914	259,866	-0,351283	0,000000	0,000000
2,375979	-655,990818	260,266	-0,353042	0,000000	0,000000
2,367926	-659,816073	260,667	-0,354657	0,000000	0,000000
2,359952	-665,984384	261,068	-0,357260	0,000000	0,000000
2,351944	-670,930835	261,469	-0,359347	0,000000	0,000000
2,343946	-674,786174	261,872	-0,360974	0,000000	0,000000
2,335950	-678,588289	262,272	-0,362579	0,000000	0,000000
2,327969	-681,707735	262,673	-0,363895	0,000000	0,000000
2,319917	-685,423069	263,074	-0,365463	0,000000	0,000000
2,311984	-688,119030	263,474	-0,366601	0,000000	0,000000
2,303951	-692,328430	263,876	-0,368377	0,000000	0,000000
2,295954	-696,544774	264,276	-0,370156	0,000000	0,000000
2,287940	-700,550531	264,679	-0,371847	0,000000	0,000000
2,279915	-704,312148	265,080	-0,373434	0,000000	0,000000
2,271935	-708,717093	265,481	-0,375293	0,000000	0,000000
2,263958	-713,302540	265,882	-0,377228	0,000000	0,000000
2,255986	-716,060982	266,285	-0,378392	0,000000	0,000000
2,247940	-719,981117	266,686	-0,380046	0,000000	0,000000
2,239937	-723,923236	267,087	-0,381710	0,000000	0,000000
2,231930	-729,401936	267,488	-0,384022	0,000000	0,000000
2,223895	-732,984208	267,888	-0,385534	0,000000	0,000000
2,215957	-735,053040	268,289	-0,386407	0,000000	0,000000
2,207923	-737,742058	268,691	-0,387542	0,000000	0,000000
2,199943	-741,354414	269,093	-0,389066	0,000000	0,000000
2,191926	-743,133979	269,496	-0,389817	0,000000	0,000000
2,183969	-746,826172	269,898	-0,391375	0,000000	0,000000
2,175971	-751,795764	270,299	-0,393472	0,000000	0,000000
2,167925	-755,518041	270,700	-0,395043	0,000000	0,000000
2,159924	-761,067323	271,104	-0,397385	0,000000	0,000000
2,151942	-764,249250	271,506	-0,398728	0,000000	0,000000
2,143943	-767,721601	271,907	-0,400193	0,000000	0,000000
2,135972	-772,456309	272,307	-0,402191	0,000000	0,000000
2,127918	-774,884988	272,709	-0,403216	0,000000	0,000000
2,119929	-779,282990	273,112	-0,405072	0,000000	0,000000
2,111877	-783,029565	273,514	-0,406653	0,000000	0,000000
2,103959	-786,791182	273,914	-0,408240	0,000000	0,000000
2,095928	-789,214075	274,315	-0,409263	0,000000	0,000000
2,087924	-791,972517	274,715	-0,410427	0,000000	0,000000
2,079927	-794,927660	275,116	-0,411674	0,000000	0,000000
2,071924	-798,030908	275,516	-0,412983	0,000000	0,000000
2,063915	-799,928493	275,917	-0,413784	0,000000	0,000000
2,055919	-801,220935	276,319	-0,414330	0,000000	0,000000
2,047930	-803,745649	276,720	-0,415395	0,000000	0,000000
2,039927	-806,870881	277,121	-0,416714	0,000000	0,000000
2,032001	-811,614846	277,521	-0,418716	0,000000	0,000000
2,023959	-814,898595	277,921	-0,420102	0,000000	0,000000
2,015939	-815,588205	278,321	-0,420393	0,000000	0,000000
2,007869	-817,681335	278,723	-0,421276	0,000000	0,000000
1,999991	-820,259275	279,124	-0,422364	0,000000	0,000000
1,991938	-823,166978	279,526	-0,423591	0,000000	0,000000
1,983965	-824,711660	279,926	-0,424243	0,000000	0,000000
1,975931	-826,859171	280,327	-0,425149	0,000000	0,000000
1,967938	-827,964168	280,729	-0,425615	0,000000	0,000000
1,959984	-829,540090	281,131	-0,426280	0,000000	0,000000
1,951913	-831,216677	281,532	-0,426988	0,000000	0,000000
1,943925	-832,251092	281,933	-0,427424	0,000000	0,000000
1,935951	-833,372288	282,334	-0,427897	0,000000	0,000000
1,927908	-835,324256	282,736	-0,428721	0,000000	0,000000
1,919987	-838,749167	283,137	-0,430167	0,000000	0,000000
1,911954	-840,215168	283,538	-0,430785	0,000000	0,000000
1,903931	-840,865438	283,938	-0,431060	0,000000	0,000000
1,895956	-841,477525	284,338	-0,431318	0,000000	0,000000
1,887950	-843,350813	284,741	-0,432108	0,000000	0,000000
1,879940	-843,844879	285,143	-0,432317	0,000000	0,000000
1,871950	-843,350813	285,544	-0,432108	0,000000	0,000000
1,863971	-844,377129	285,944	-0,432542	0,000000	0,000000
1,855945	-843,538257	286,345	-0,432188	0,000000	0,000000
1,847961	-845,537665	286,746	-0,433031	0,000000	0,000000
1,839950	-842,417062	287,147	-0,431714	0,000000	0,000000
1,831921	-836,907120	287,547	-0,429389	0,000000	0,000000
1,823924	-831,828764	287,948	-0,427246	0,000000	0,000000
1,815953	-826,576848	288,349	-0,425030	0,000000	0,000000
1,807963	-826,122121	288,752	-0,424838	0,000000	0,000000
1,799986	-823,552281	289,152	-0,423753	0,000000	0,000000
1,791966	-816,215334	289,553	-0,420657	0,000000	0,000000
1,783967	-811,998991	289,953	-0,418878	0,000000	0,000000
1,775956	-802,036665	290,356	-0,414674	0,000000	0,000000
1,767965	-788,735051	290,756	-0,409061	0,000000	0,000000
1,759946	-757,242067	291,157	-0,395771	0,000000	0,000000
1,751960	-698,245659	291,559	-0,370874	0,000000	0,000000
1,744009	-0,917552	291,959	-0,076602	0,000000	0,000000
1,735918	-0,720851	292,361	-0,076519	0,000000	0,000000
1,727966	-0,556548	292,763	-0,076449	0,000000	0,000000
1,719967	-0,674569	293,164	-0,076499	0,000000	0,000000
1,711985	-0,446627	293,564	-0,076403	0,000000	0,000000
1,703965	-0,462826	293,965	-0,076410	0,000000	0,000000
1,695984	-0,336706	294,367	-0,076356	0,000000	0,000000
1,687963	-0,344805	294,769	-0,076360	0,000000	0,000000
1,679954	-0,462826	295,169	-0,076410	0,000000	0,000000
1,671980	-0,211743	295,570	-0,076304	0,000000	0,000000
1,663993	-0,407287	295,971	-0,076386	0,000000	0,000000
1,655942	-0,470925	296,372	-0,076413	0,000000	0,000000
1,647974	-0,579689	296,774	-0,076459	0,000000	0,000000
1,639987	-0,180502	297,174	-0,076291	0,000000	0,000000
1,631977	-0,234884	297,576	-0,076313	0,000000	0,000000
1,623966	-0,055539	297,980	-0,076238	0,000000	0,000000
1,615970	-0,031241	298,380	-0,076228	0,000000	0,000000
1,607973	0,008099	298,780	-0,076211	0,000000	0,000000
1,599975	-0,234884	299,183	-0,076313	0,000000	0,000000
1,592018	-0,242984	299,586	-0,076317	0,000000	0,000000
1,584000	-0,203643	299,986	-0,076300	0,000000	0,000000
1,575953	-0,109921	300,388	-0,076261	0,000000	0,000000
1,567973	-0,234884	300,789	-0,076313	0,000000	0,000000
1,560000	-0,211743	301,191	-0,076304	0,000000	0,000000
1,552016	-0,234884	301,592	-0,076313	0,000000	0,000000
1,543965	-0,203643	301,993	-0,076300	0,000000	0,000000
1,535974	-0,133062	302,394	-0,076271	0,000000	0,000000
1,527947	-0,118021	302,796	-0,076264	0,000000	0,000000
1,519972	0,016199	303,197	-0,076208	0,000000	0,000000
1,511990	-0,367947	303,599	-0,076370	0,000000	0,000000
1,504004	-0,251083	304,002	-0,076320	0,000000	0,000000
1,495958	-0,141162	304,404	-0,076274	0,000000	0,000000
1,487968	-0,242984	304,805	-0,076317	0,000000	0,000000
1,479994	-0,172403	305,207	-0,076287	0,000000	0,000000
1,471985	-0,164303	305,607	-0,076284	0,000000	0,000000
1,463986	-0,219842	306,008	-0,076307	0,000000	0,000000
1,456020	0,047440	306,408	-0,076194	0,000000	0,000000
1,447967	-0,242984	306,811	-0,076317	0,000000	0,000000
1,439978	-0,431585	307,212	-0,076396	0,000000	0,000000
1,431950	-0,062481	307,614	-0,076241	0,000000	0,000000
1,423983	-0,070581	308,014	-0,076244	0,000000	0,000000
1,415977	-0,031241	308,416	-0,076228	0,000000	0,000000
1,407999	-0,055539	308,817	-0,076238	0,000000	0,000000
1,399971	-0,164303	309,217	-0,076284	0,000000	0,000000
1,391995	-0,172403	309,617	-0,076287	0,000000	0,000000
1,383946	-0,124963	310,018	-0,076267	0,000000	0,000000
1,375966	-0,282324	310,422	-0,076333	0,000000	0,000000
1,367976	-0,070581	310,823	-0,076244	0,000000	0,000000
1,359960	-0,259182	311,223	-0,076324	0,000000	0,000000
1,351926	-0,313564	311,626	-0,076347	0,000000	0,000000
1,343966	-0,078680	312,026	-0,076248	0,000000	0,000000