File: Nanoindentation Datenauswertung/data/PDMS/14.09/APM-PDMS-150ms,4um,20nms,9cycles,1,5um offset,75%,5x1-7
Quasi static measurement routine
Tip parameters (shape,radius, material...)
14.09.2022

Piezo position[nm]	MEMS displ.[nm]	Time[ms]	Cap [pf]	Temp [°C]	Rh [%]
eoh

X-Pos [um]	Y-Pos [um]
0,000489	0,000898

POC
1,835990
0,351140	-0,015042	1,812	-0,075682	22,270000	51,400000
0,369070	0,024298	2,714	-0,075665	22,270000	51,400000
0,387125	0,180502	3,614	-0,075599	22,270000	51,400000
0,405083	0,008099	4,516	-0,075672	22,280000	51,370000
0,423088	0,133062	5,416	-0,075619	22,280000	51,370000
0,441077	-0,047440	6,317	-0,075695	22,260000	51,370000
0,459068	0,124963	7,220	-0,075623	22,260000	51,370000
0,477130	0,195544	8,122	-0,075593	22,260000	51,370000
0,495081	-0,047440	9,023	-0,075695	22,270000	51,410000
0,513037	0,101822	9,926	-0,075632	22,270000	51,410000
0,531091	-0,133062	10,827	-0,075731	22,280000	51,410000
0,549111	0,062481	11,729	-0,075649	22,280000	51,410000
0,567069	0,234884	12,631	-0,075576	22,280000	51,400000
0,585094	0,093722	13,531	-0,075636	22,280000	51,400000
0,603083	-0,086780	14,433	-0,075712	22,280000	51,400000
0,621084	0,290423	15,333	-0,075553	22,280000	51,400000
0,639106	0,172403	16,234	-0,075603	22,280000	51,400000
0,657116	0,133062	17,138	-0,075619	22,270000	51,385000
0,675070	0,055539	18,040	-0,075652	22,270000	51,385000
0,693072	0,078680	18,942	-0,075642	22,270000	51,385000
0,711126	0,133062	19,844	-0,075619	22,270000	51,385000
0,729061	-0,101822	20,746	-0,075718	22,280000	51,410000
0,747100	0,039340	21,646	-0,075659	22,280000	51,410000
0,765073	-0,226785	22,551	-0,075771	22,280000	51,410000
0,783073	-0,062481	23,454	-0,075702	22,280000	51,410000
0,801066	0,016199	24,357	-0,075668	22,270000	51,370000
0,819092	0,093722	25,259	-0,075636	22,270000	51,370000
0,837113	-0,070581	26,162	-0,075705	22,270000	51,370000
0,855019	-0,062481	27,062	-0,075702	22,270000	51,385000
0,873082	-0,062481	27,964	-0,075702	22,270000	51,385000
0,891031	0,259182	28,867	-0,075566	22,270000	51,385000
0,909088	-0,031241	29,768	-0,075688	22,270000	51,385000
0,927112	0,055539	30,670	-0,075652	22,260000	51,400000
0,945066	-0,290423	31,573	-0,075798	22,260000	51,400000
0,963082	-0,023141	32,473	-0,075685	22,260000	51,400000
0,981065	0,133062	33,374	-0,075619	22,260000	51,400000
0,999106	0,000000	34,277	-0,075675	22,270000	51,370000
1,017074	0,024298	35,180	-0,075665	22,270000	51,370000
1,035078	-0,062481	36,084	-0,075702	22,270000	51,370000
1,053085	-0,133062	36,985	-0,075731	22,270000	51,385000
1,071080	-0,141162	37,887	-0,075735	22,270000	51,385000
1,089095	-0,086780	38,790	-0,075712	22,270000	51,410000
1,107093	-0,109921	39,694	-0,075722	22,270000	51,410000
1,125062	-0,101822	40,599	-0,075718	22,270000	51,370000
1,142997	-0,242984	41,500	-0,075778	22,270000	51,370000
1,161072	-0,141162	42,400	-0,075735	22,270000	51,400000
1,178989	-0,133062	43,303	-0,075731	22,270000	51,400000
1,197096	-0,141162	44,206	-0,075735	22,270000	51,400000
1,215097	-0,203643	45,106	-0,075761	22,280000	51,400000
1,233043	-0,086780	46,008	-0,075712	22,280000	51,400000
1,251064	0,290423	46,910	-0,075553	22,270000	51,400000
1,269077	-0,266125	47,811	-0,075788	22,270000	51,400000
1,287079	-0,023141	48,713	-0,075685	22,270000	51,400000
1,305074	-0,219842	49,618	-0,075768	22,270000	51,400000
1,323080	-0,242984	50,520	-0,075778	22,260000	51,370000
1,341095	-0,203643	51,422	-0,075761	22,260000	51,370000
1,359051	-0,274224	52,322	-0,075791	22,270000	51,400000
1,377060	-0,124963	53,223	-0,075728	22,270000	51,400000
1,395048	-0,344805	54,124	-0,075821	22,270000	51,400000
1,413048	-0,313564	55,024	-0,075808	22,270000	51,400000
1,431036	-0,454726	55,926	-0,075867	22,270000	51,400000
1,449037	-0,344805	56,828	-0,075821	22,260000	51,425000
1,467073	-0,118021	57,731	-0,075725	22,260000	51,425000
1,485033	-0,525307	58,632	-0,075897	22,270000	51,410000
1,503025	-0,415386	59,533	-0,075851	22,270000	51,410000
1,521089	-0,579689	60,436	-0,075920	22,270000	51,410000
1,539073	-0,563490	61,340	-0,075913	22,270000	51,410000
1,557074	-0,329763	62,240	-0,075814	22,270000	51,410000
1,575072	-0,477868	63,140	-0,075877	22,270000	51,370000
1,593060	-0,118021	64,042	-0,075725	22,270000	51,370000
1,611000	-0,673412	64,943	-0,075959	22,270000	51,385000
1,628964	-0,579689	65,847	-0,075920	22,270000	51,385000
1,647011	-0,438527	66,748	-0,075860	22,270000	51,360000
1,665061	-0,658370	67,648	-0,075953	22,270000	51,360000
1,683005	-0,838872	68,549	-0,076029	22,270000	51,370000
1,701028	-0,760191	69,452	-0,075996	22,270000	51,370000
1,719038	-1,034416	70,354	-0,076112	22,270000	51,370000
1,737050	-0,995076	71,256	-0,076095	22,270000	51,370000
1,755005	-4,899011	72,163	-0,077743	22,270000	51,370000
1,773061	-3,472351	73,066	-0,077141	22,270000	51,400000
1,791029	-1,332938	73,971	-0,076238	22,270000	51,400000
1,809006	0,423486	74,872	-0,075497	22,280000	51,410000
1,827025	1,858246	75,774	-0,074891	22,280000	51,410000
1,845043	-182,742150	76,674	-0,152792	22,270000	51,385000
1,862967	-180,461576	77,576	-0,151830	22,270000	51,385000
1,881011	-170,742234	78,478	-0,147729	22,270000	51,385000
1,899017	-160,991651	79,380	-0,143614	22,270000	51,385000
1,917018	-149,274058	80,281	-0,138669	22,270000	51,410000
1,935030	-140,926994	81,183	-0,135146	22,270000	51,410000
1,953019	-129,436186	82,087	-0,130297	22,270000	51,410000
1,970999	-118,424402	82,989	-0,125650	22,280000	51,400000
1,989034	-104,934186	83,891	-0,119958	22,280000	51,400000
2,006940	-95,928753	84,792	-0,116157	22,270000	51,385000
2,024989	-83,874454	85,695	-0,111070	22,270000	51,385000
2,043071	-72,446127	86,596	-0,106248	22,270000	51,385000
2,060975	-60,626712	87,498	-0,101260	22,270000	51,385000
2,079035	-46,557964	88,400	-0,095323	22,270000	51,400000
2,096990	-36,924245	89,302	-0,091257	22,270000	51,400000
2,115023	-22,463252	90,204	-0,085155	22,270000	51,400000
2,115009	-24,305298	91,105	-0,085932	22,270000	51,400000
2,115009	-25,418395	92,006	-0,086402	22,270000	51,400000
2,115014	-25,935602	92,911	-0,086620	22,270000	51,425000
2,114972	-26,813814	93,813	-0,086991	22,270000	51,425000
2,114987	-27,401603	94,716	-0,087239	22,270000	51,370000
2,114976	-28,051874	95,618	-0,087513	22,270000	51,370000
2,114983	-28,412878	96,518	-0,087666	22,270000	51,425000
2,115021	-28,388579	97,421	-0,087655	22,270000	51,425000
2,114995	-29,148771	98,323	-0,087976	22,280000	51,385000
2,115056	-29,196210	99,223	-0,087996	22,280000	51,385000
2,114995	-29,541016	100,124	-0,088142	22,280000	51,385000
2,100013	-39,025474	101,026	-0,092144	22,280000	51,385000
2,081973	-55,029991	101,929	-0,098898	22,280000	51,385000
2,063994	-65,948052	102,833	-0,103505	22,270000	51,385000
2,045974	-79,650011	103,733	-0,109288	22,270000	51,385000
2,060973	-70,204893	104,518	-0,105302	22,270000	51,385000
2,079003	-55,767041	105,420	-0,099209	22,270000	51,385000
2,097001	-42,496668	106,324	-0,093609	22,260000	51,385000
2,115032	-31,626046	107,224	-0,089021	22,260000	51,385000
2,132955	-18,348730	108,125	-0,083418	22,260000	51,385000
2,150997	-5,454402	109,028	-0,077977	22,270000	51,400000
2,169009	7,555632	109,932	-0,072487	22,270000	51,400000
2,187024	21,656778	110,834	-0,066536	22,280000	51,400000
2,204993	31,853988	111,735	-0,062233	22,280000	51,400000
2,222992	44,832781	112,638	-0,056756	22,280000	51,400000
2,240966	57,914553	113,541	-0,051235	22,280000	51,400000
2,258963	68,794431	114,444	-0,046644	22,270000	51,435000
2,276943	81,029232	115,346	-0,041481	22,270000	51,435000
2,295027	95,811889	116,248	-0,035243	22,270000	51,435000
2,313038	107,693785	117,149	-0,030229	22,280000	51,385000
2,330982	119,161452	118,050	-0,025389	22,280000	51,385000
2,349027	131,944702	118,952	-0,019995	22,260000	51,370000
2,366947	143,717834	119,852	-0,015026	22,260000	51,370000
2,385043	155,128804	120,753	-0,010211	22,280000	51,385000
2,394034	161,705559	121,655	-0,007436	22,280000	51,385000
2,393952	160,310140	122,557	-0,008024	22,280000	51,385000
2,393956	159,659869	123,459	-0,008299	22,280000	51,385000
2,394018	158,789757	124,362	-0,008666	22,260000	51,410000
2,394017	158,083947	125,263	-0,008964	22,260000	51,410000
2,393932	157,504258	126,166	-0,009208	22,260000	51,410000
2,393995	157,213835	127,069	-0,009331	22,280000	51,385000
2,393970	156,916469	127,971	-0,009457	22,280000	51,385000
2,394000	155,952634	128,872	-0,009863	22,260000	51,410000
2,393965	155,811473	129,773	-0,009923	22,260000	51,410000
2,393980	155,583531	130,676	-0,010019	22,260000	51,410000
2,387981	153,153695	131,579	-0,011044	22,260000	51,410000
2,369965	138,991225	132,482	-0,017021	22,280000	51,385000
2,351983	123,251675	133,383	-0,023663	22,280000	51,385000
2,333913	109,919977	134,284	-0,029289	22,270000	51,370000
2,315982	97,998741	135,187	-0,034320	22,270000	51,370000
2,297961	84,603405	136,090	-0,039973	22,270000	51,370000
2,280002	71,467250	136,994	-0,045516	22,270000	51,400000
2,261982	58,824006	137,894	-0,050852	22,270000	51,400000
2,265033	57,052540	138,682	-0,051599	22,270000	51,400000
2,283024	71,945118	139,583	-0,045314	22,270000	51,400000
2,301001	85,104414	140,484	-0,039761	22,270000	51,370000
2,319070	98,665210	141,387	-0,034039	22,270000	51,370000
2,337002	114,395503	142,291	-0,027400	22,270000	51,400000
2,354977	127,751500	143,191	-0,021764	22,270000	51,400000
2,373039	141,201218	144,092	-0,016088	22,270000	51,400000
2,390964	152,981293	144,995	-0,011117	22,270000	51,400000
2,409064	165,452135	145,898	-0,005854	22,270000	51,400000
2,427007	177,726276	146,798	-0,000675	22,280000	51,400000
2,445017	190,987393	147,698	0,004921	22,280000	51,400000
2,463039	203,364512	148,600	0,010145	22,280000	51,400000
2,480952	218,232792	149,500	0,016419	22,280000	51,400000
2,499007	230,710576	150,400	0,021685	22,280000	51,385000
2,516996	240,892745	151,303	0,025981	22,280000	51,385000
2,534976	253,276807	152,205	0,031208	22,280000	51,385000
2,553000	268,654195	153,106	0,037697	22,270000	51,370000
2,570953	280,614772	154,009	0,042744	22,270000	51,370000
2,588946	292,379804	154,912	0,047709	22,270000	51,385000
2,606973	303,949293	155,814	0,052591	22,270000	51,385000
2,625011	318,370946	156,715	0,058677	22,280000	51,400000
2,642958	328,497575	157,619	0,062951	22,280000	51,400000
2,661010	343,507016	158,521	0,069285	22,280000	51,400000
2,673022	350,890245	159,422	0,072400	22,280000	51,400000
2,673010	349,832688	160,324	0,071954	22,270000	51,370000
2,672920	348,977618	161,226	0,071593	22,270000	51,370000
2,672936	348,202384	162,129	0,071266	22,270000	51,370000
2,672999	347,410952	163,031	0,070932	22,270000	51,410000
2,672955	346,979367	163,933	0,070750	22,270000	51,410000
2,673022	346,697043	164,835	0,070631	22,260000	51,400000
2,673009	346,062972	165,739	0,070363	22,260000	51,400000
2,673004	345,920653	166,641	0,070303	22,270000	51,385000
2,672991	345,513366	167,542	0,070131	22,270000	51,385000
2,673023	345,294681	168,444	0,070039	22,270000	51,370000
2,670013	342,480700	169,346	0,068852	22,270000	51,370000
2,652004	330,630045	170,246	0,063851	22,270000	51,370000
2,634030	316,458318	171,149	0,057870	22,260000	51,385000
2,616004	302,883636	172,050	0,052142	22,260000	51,385000
2,598018	289,284656	172,950	0,046403	22,270000	51,400000
2,580016	272,878638	173,851	0,039479	22,270000	51,400000
2,562048	262,157277	174,752	0,034955	22,270000	51,410000
2,543956	248,722601	175,654	0,029286	22,270000	51,410000
2,525969	234,801957	176,556	0,023411	22,270000	51,410000
2,507992	221,563981	177,459	0,017825	22,270000	51,410000
2,489988	209,171819	178,359	0,012595	22,280000	51,400000
2,472025	195,682761	179,261	0,006903	22,280000	51,400000
2,468992	191,576338	180,052	0,005170	22,280000	51,400000
2,486948	204,876796	180,956	0,010783	22,270000	51,370000
2,505026	219,738133	181,856	0,017054	22,270000	51,370000
2,522984	232,568822	182,760	0,022469	22,270000	51,370000
2,540968	246,097221	183,662	0,028178	22,270000	51,370000
2,558989	259,860504	184,563	0,033986	22,260000	51,410000
2,577007	275,622038	185,464	0,040637	22,260000	51,410000
2,594947	289,009275	186,366	0,046287	22,270000	51,400000
2,612966	299,794274	187,268	0,050838	22,270000	51,400000
2,631024	312,892245	188,169	0,056365	22,270000	51,400000
2,648949	328,474434	189,072	0,062941	22,270000	51,400000
2,666982	341,500666	189,973	0,068438	22,270000	51,400000
2,684943	352,293765	190,876	0,072993	22,280000	51,385000
2,703013	365,523641	191,776	0,078576	22,280000	51,385000
2,720983	378,511691	192,678	0,084057	22,280000	51,385000
2,738974	393,371871	193,580	0,090328	22,280000	51,385000
2,757023	405,317406	194,482	0,095369	22,280000	51,385000
2,774946	417,685269	195,386	0,100588	22,280000	51,385000
2,793014	430,689518	196,288	0,106076	22,280000	51,385000
2,810939	445,604080	197,190	0,112370	22,270000	51,400000
2,828952	456,037332	198,093	0,116772	22,270000	51,400000
2,846992	471,140495	198,994	0,123146	22,270000	51,400000
2,864961	484,417811	199,894	0,128749	22,270000	51,400000
2,882918	497,147836	200,797	0,134121	22,270000	51,385000
2,900926	508,903612	201,701	0,139082	22,270000	51,385000
2,918981	520,834105	202,604	0,144117	22,270000	51,385000
2,936955	533,671736	203,506	0,149534	22,270000	51,385000
2,951896	546,408703	204,406	0,154909	22,270000	51,410000
2,951908	545,436769	205,308	0,154499	22,270000	51,410000
2,951909	544,990142	206,209	0,154311	22,270000	51,410000
2,951974	544,354913	207,111	0,154042	22,270000	51,410000
2,951977	543,602821	208,013	0,153725	22,270000	51,410000
2,951915	543,226775	208,916	0,153566	22,280000	51,400000
2,951987	542,686426	209,818	0,153338	22,280000	51,400000
2,951911	542,599646	210,719	0,153302	22,280000	51,400000
2,951971	542,396003	211,622	0,153216	22,280000	51,400000
2,951974	542,058140	212,524	0,153073	22,270000	51,370000
2,951972	541,933177	213,425	0,153021	22,270000	51,370000
2,951917	541,369687	214,329	0,152783	22,260000	51,400000
2,933904	526,938777	215,231	0,146693	22,260000	51,400000
2,915930	513,999324	216,133	0,141232	22,260000	51,400000
2,898022	501,474100	217,034	0,135947	22,260000	51,385000
2,879955	484,935019	217,936	0,128967	22,260000	51,385000
2,861975	471,587122	218,837	0,123334	22,270000	51,410000
2,843901	459,956309	219,739	0,118426	22,270000	51,410000
2,825916	446,176827	220,641	0,112611	22,270000	51,410000
2,807988	432,702810	221,543	0,106925	22,270000	51,410000
2,789951	418,461660	222,444	0,100916	22,260000	51,400000
2,771954	403,279815	223,344	0,094509	22,260000	51,400000
2,753933	392,000750	224,246	0,089749	22,260000	51,400000
2,735985	377,531657	225,146	0,083643	22,270000	51,410000
2,718043	365,485458	226,046	0,078560	22,270000	51,410000
2,699924	351,423652	226,947	0,072625	22,270000	51,410000
2,681959	338,734125	227,847	0,067271	22,270000	51,410000
2,678950	334,713326	228,640	0,065574	22,280000	51,385000
2,696887	347,997584	229,541	0,071180	22,280000	51,385000
2,714983	361,722684	230,444	0,076972	22,280000	51,410000
2,732927	376,198719	231,344	0,083081	22,280000	51,410000
2,750994	389,907620	232,245	0,088866	22,280000	51,410000
2,768980	403,146753	233,146	0,094453	22,270000	51,410000
2,786997	417,034999	234,050	0,100313	22,270000	51,410000
2,804941	430,257933	234,953	0,105894	22,270000	51,385000
2,822977	446,326089	235,854	0,112674	22,270000	51,385000
2,840928	457,605154	236,755	0,117434	22,270000	51,410000
2,858953	473,154945	237,658	0,123996	22,270000	51,410000
2,876965	484,222267	238,559	0,128667	22,270000	51,400000
2,894996	497,617604	239,463	0,134319	22,270000	51,400000
2,912949	513,528399	240,366	0,141034	22,270000	51,400000
2,931008	524,329597	241,271	0,145592	22,270000	51,400000
2,948977	538,821831	242,174	0,151708	22,270000	51,400000
2,966930	552,522632	243,074	0,157489	22,250000	51,365000
2,984952	565,055956	243,976	0,162778	22,250000	51,365000
3,002955	580,512024	244,878	0,169301	22,270000	51,410000
3,020903	591,014699	245,779	0,173733	22,270000	51,410000
3,038942	604,347554	246,680	0,179359	22,280000	51,400000
3,056989	617,907194	247,582	0,185082	22,280000	51,400000
3,074900	633,308881	248,485	0,191581	22,270000	51,385000
3,092933	644,031398	249,388	0,196106	22,270000	51,385000
3,110892	658,390569	250,290	0,202166	22,270000	51,385000
3,128896	671,126379	251,190	0,207540	22,270000	51,400000
3,146969	683,456059	252,092	0,212743	22,270000	51,400000
3,164899	696,764616	252,994	0,218359	22,270000	51,385000
3,182902	709,689027	253,898	0,223813	22,270000	51,385000
3,200947	725,749084	254,802	0,230591	22,260000	51,385000
3,218971	736,855746	255,704	0,235278	22,260000	51,385000
3,230870	747,069155	256,606	0,239588	22,260000	51,385000
3,230905	746,112263	257,507	0,239184	22,260000	51,385000
3,230880	745,603155	258,409	0,238969	22,270000	51,400000
3,230887	745,069748	259,310	0,238744	22,270000	51,400000
3,230912	744,654362	260,210	0,238569	22,270000	51,400000
3,230922	744,270216	261,111	0,238407	22,270000	51,400000
3,230925	743,948552	262,013	0,238271	22,270000	51,400000
3,230903	743,503082	262,914	0,238083	22,270000	51,385000
3,230899	743,235801	263,815	0,237970	22,270000	51,385000
3,230939	743,204560	264,716	0,237957	22,280000	51,385000
3,230865	742,922236	265,616	0,237838	22,280000	51,385000
3,227901	740,101313	266,517	0,236647	22,270000	51,410000
3,209932	726,627296	267,418	0,230961	22,270000	51,410000
3,191979	712,824672	268,318	0,225137	22,260000	51,400000
3,173931	699,915303	269,219	0,219689	22,260000	51,400000
3,155970	685,925235	270,120	0,213785	22,260000	51,400000
3,137961	671,597305	271,022	0,207739	22,260000	51,400000
3,119913	655,670311	271,924	0,201018	22,260000	51,400000
3,101870	644,117021	272,827	0,196142	22,270000	51,385000
3,083958	629,217500	273,728	0,189854	22,270000	51,385000
3,065907	614,065740	274,629	0,183460	22,270000	51,385000
3,047915	600,757183	275,530	0,177844	22,270000	51,385000
3,029935	587,519207	276,432	0,172258	22,270000	51,400000
3,011929	574,907203	277,336	0,166936	22,270000	51,400000
2,993929	562,092713	278,238	0,161528	22,270000	51,400000
2,975934	548,736717	279,139	0,155892	22,260000	51,370000
2,958030	535,193276	280,041	0,150176	22,260000	51,370000
2,939955	519,195701	280,942	0,143425	22,260000	51,370000
2,921920	508,386404	281,846	0,138864	22,260000	51,370000
2,903907	493,534323	282,748	0,132596	22,270000	51,410000
2,885966	481,503166	283,649	0,127519	22,270000	51,410000
2,894968	484,786915	284,438	0,128905	22,270000	51,410000
2,913011	499,412211	285,339	0,135077	22,270000	51,410000
2,930991	513,794524	286,240	0,141146	22,270000	51,410000
2,948977	530,097564	287,141	0,148026	22,260000	51,400000
2,966993	541,918135	288,042	0,153014	22,260000	51,400000
2,984907	555,650178	288,946	0,158809	22,260000	51,400000
3,002958	569,883229	289,848	0,164815	22,260000	51,400000
3,020936	583,396586	290,749	0,170518	22,270000	51,385000
3,038970	597,277890	291,649	0,176376	22,270000	51,385000
3,056917	610,468426	292,551	0,181942	22,270000	51,400000
3,074914	624,162285	293,451	0,187721	22,270000	51,400000
3,092912	640,010599	294,353	0,194409	22,260000	51,360000
3,110906	653,554040	295,254	0,200125	22,260000	51,360000
3,128952	665,796940	296,157	0,205291	22,260000	51,360000
3,146923	680,093630	297,059	0,211324	22,270000	51,370000
3,164971	691,795024	297,962	0,216262	22,270000	51,370000
3,182950	707,667636	298,864	0,222960	22,270000	51,370000
3,200879	718,656278	299,767	0,227598	22,270000	51,370000
3,218947	732,184677	300,670	0,233307	22,270000	51,370000
3,236918	745,391412	301,573	0,238880	22,270000	51,370000
3,254889	761,146003	302,474	0,245528	22,270000	51,385000
3,272937	774,227775	303,375	0,251049	22,270000	51,385000
3,290907	786,408194	304,277	0,256189	22,270000	51,385000
3,308999	799,176401	305,180	0,261577	22,270000	51,385000
3,326890	814,694951	306,081	0,268126	22,270000	51,385000
3,344900	825,386228	306,984	0,272638	22,260000	51,400000
3,362840	841,234542	307,886	0,279326	22,260000	51,400000
3,380857	852,058881	308,786	0,283894	22,260000	51,400000
3,398812	866,080189	309,687	0,289811	22,260000	51,400000
3,416841	880,017032	310,590	0,295692	22,270000	51,370000
3,434861	892,933344	311,493	0,301143	22,270000	51,370000
3,452873	905,850813	312,393	0,306594	22,270000	51,370000
3,470870	919,379212	313,293	0,312303	22,270000	51,370000
3,488889	931,966917	314,195	0,317615	22,270000	51,370000
3,506881	947,478525	315,096	0,324161	22,270000	51,385000
3,509828	948,293098	315,997	0,324504	22,270000	51,385000
3,509868	947,925152	316,900	0,324349	22,270000	51,385000
3,509858	947,547949	317,801	0,324190	22,270000	51,385000
3,509848	947,219342	318,704	0,324051	22,260000	51,400000
3,509837	946,702135	319,607	0,323833	22,260000	51,400000
3,509873	945,950043	320,509	0,323516	22,270000	51,370000
3,509877	945,871362	321,411	0,323482	22,270000	51,370000
3,509795	945,769541	322,313	0,323439	22,270000	51,370000
3,509851	945,580939	323,214	0,323360	22,270000	51,370000
3,509854	945,690860	324,116	0,323406	22,270000	51,370000
3,509831	945,173652	325,017	0,323188	22,280000	51,400000
3,497883	936,841630	325,920	0,319672	22,280000	51,400000
3,479818	922,224434	326,823	0,313503	22,280000	51,400000
3,461921	908,671736	327,724	0,307784	22,280000	51,400000
3,443831	894,602988	328,625	0,301847	22,260000	51,400000
3,425844	881,066490	329,526	0,296135	22,260000	51,400000
3,407875	866,942202	330,427	0,290174	22,270000	51,385000
3,389879	853,077098	331,329	0,284323	22,270000	51,385000
3,371878	838,844046	332,232	0,278317	22,270000	51,385000
3,353874	825,276307	333,132	0,272591	22,270000	51,400000
3,335895	809,451135	334,033	0,265913	22,270000	51,400000
3,317907	798,266949	334,933	0,261193	22,280000	51,410000
3,299901	783,804799	335,834	0,255090	22,280000	51,410000
3,281899	769,681668	336,737	0,249130	22,280000	51,410000
3,263908	756,678577	337,638	0,243643	22,280000	51,410000
3,245915	743,017115	338,541	0,237878	22,270000	51,370000
3,227937	729,769883	339,442	0,232288	22,270000	51,370000
3,209900	713,788507	340,344	0,225543	22,270000	51,385000
3,191896	700,118946	341,244	0,219775	22,270000	51,385000
3,174012	687,946627	342,147	0,214638	22,270000	51,385000
3,155928	673,956559	343,051	0,208734	22,270000	51,410000
3,137901	662,135987	343,953	0,203746	22,270000	51,410000
3,119990	648,545107	344,853	0,198011	22,280000	51,410000
3,101960	635,087289	345,754	0,192332	22,280000	51,410000
3,092938	624,584614	346,552	0,187899	22,270000	51,410000
3,110937	639,672736	347,453	0,194267	22,270000	51,410000
3,128925	653,742641	348,357	0,200204	22,280000	51,385000
3,146972	667,873871	349,259	0,206167	22,280000	51,385000
3,164920	682,108079	350,162	0,212174	22,280000	51,385000
3,182921	698,245659	351,064	0,218984	22,270000	51,435000
3,200923	712,730950	351,966	0,225097	22,270000	51,435000
3,218924	724,432344	352,869	0,230035	22,270000	51,385000
3,236915	737,953801	353,771	0,235741	22,270000	51,385000
3,254928	754,107579	354,673	0,242558	22,260000	51,360000
3,272928	766,875787	355,575	0,247946	22,260000	51,360000
3,290952	778,851405	356,478	0,253000	22,270000	51,400000
3,308880	792,717667	357,379	0,258852	22,270000	51,400000
3,326873	806,371029	358,280	0,264613	22,270000	51,400000
3,344905	819,915627	359,181	0,270329	22,270000	51,400000
3,362879	834,861430	360,081	0,276636	22,270000	51,400000
3,380898	846,885645	360,982	0,281710	22,270000	51,400000
3,398887	860,507766	361,884	0,287459	22,270000	51,400000
3,416875	874,146086	362,787	0,293214	22,280000	51,385000
3,434904	890,002499	363,689	0,299906	22,280000	51,385000
3,452884	903,545940	364,591	0,305621	22,270000	51,410000
3,470927	916,901936	365,493	0,311257	22,270000	51,410000
3,488853	928,330263	366,394	0,316080	22,270000	51,410000
3,506867	942,688278	367,296	0,322139	22,270000	51,410000
3,524880	955,112837	368,199	0,327382	22,270000	51,410000
3,542862	970,968093	369,100	0,334073	22,270000	51,410000
3,560867	982,380221	370,001	0,338889	22,270000	51,410000
3,578839	995,117187	370,902	0,344264	22,280000	51,370000
3,596812	1008,770549	371,804	0,350026	22,280000	51,370000
3,614850	1024,446460	372,708	0,356641	22,280000	51,370000
3,632804	1036,501916	373,609	0,361729	22,280000	51,370000
3,650841	1051,213992	374,512	0,367937	22,270000	51,400000
3,668848	1062,383136	375,413	0,372650	22,270000	51,400000
3,686835	1076,005258	376,313	0,378399	22,270000	51,400000
3,704827	1089,102072	377,216	0,383926	22,270000	51,400000
3,722850	1105,122788	378,116	0,390687	22,270000	51,400000
3,740846	1115,907787	379,017	0,395238	22,280000	51,425000
3,758860	1129,499824	379,918	0,400974	22,280000	51,425000
3,776817	1142,737800	380,820	0,406560	22,270000	51,400000
3,788835	1153,248574	381,724	0,410996	22,270000	51,400000
3,788823	1152,958151	382,624	0,410873	22,270000	51,385000
3,788839	1152,315980	383,525	0,410602	22,270000	51,385000
3,788819	1151,907537	384,428	0,410430	22,270000	51,385000
3,788818	1151,320905	385,331	0,410182	22,270000	51,385000
3,788826	1151,139246	386,232	0,410105	22,270000	51,385000
3,788879	1150,583855	387,132	0,409871	22,270000	51,385000
3,788818	1150,551457	388,034	0,409857	22,270000	51,385000
3,788857	1150,073589	388,936	0,409656	22,260000	51,370000
3,788855	1149,917386	389,837	0,409590	22,260000	51,370000
3,788834	1149,792423	390,738	0,409537	22,270000	51,385000
3,785850	1148,717510	391,640	0,409083	22,270000	51,385000
3,767844	1132,916636	392,541	0,402416	22,270000	51,425000
3,749843	1119,992225	393,444	0,396961	22,270000	51,425000
3,731827	1106,086622	394,346	0,391093	22,270000	51,425000
3,713788	1092,206476	395,248	0,385236	22,270000	51,425000
3,695872	1077,886645	396,151	0,379193	22,270000	51,425000
3,677859	1062,171394	397,051	0,372561	22,280000	51,385000
3,659893	1048,329430	397,953	0,366720	22,280000	51,385000
3,641855	1033,962159	398,855	0,360657	22,280000	51,385000
3,623829	1019,924652	399,756	0,354733	22,280000	51,385000
3,605861	1007,383229	400,656	0,349440	22,270000	51,410000
3,587863	994,380137	401,559	0,343953	22,270000	51,410000
3,569823	980,648095	402,460	0,338158	22,270000	51,400000
3,551870	966,320164	403,362	0,332112	22,270000	51,400000
3,533883	953,136571	404,264	0,326548	22,270000	51,400000
3,515899	939,294607	405,167	0,320707	22,280000	51,400000
3,497863	923,587456	406,068	0,314079	22,280000	51,400000
3,479871	912,199626	406,968	0,309273	22,280000	51,400000
3,461863	898,466427	407,871	0,303478	22,280000	51,400000
3,443906	884,734384	408,773	0,297683	22,280000	51,370000
3,425880	871,120362	409,676	0,291938	22,280000	51,370000
3,407954	855,844796	410,576	0,285491	22,270000	51,400000
3,389887	841,758692	411,479	0,279547	22,270000	51,400000
3,371920	830,856829	412,380	0,274946	22,280000	51,385000
3,353894	817,265949	413,281	0,269211	22,280000	51,385000
3,335928	801,488216	414,182	0,262553	22,280000	51,385000
3,317932	790,326015	415,082	0,257842	22,280000	51,385000
3,299890	776,759432	415,982	0,252117	22,280000	51,385000
3,314894	785,168978	416,787	0,255666	22,270000	51,360000
3,332904	800,163378	417,688	0,261994	22,270000	51,360000
3,350931	816,481459	418,590	0,268880	22,270000	51,400000
3,368940	828,129628	419,492	0,273795	22,270000	51,400000
3,386914	842,535082	420,394	0,279875	22,270000	51,385000
3,404904	856,478867	421,295	0,285759	22,270000	51,385000
3,422897	870,360171	422,196	0,291617	22,270000	51,385000
3,440856	886,482709	423,096	0,298420	22,270000	51,400000
3,458865	899,751925	423,998	0,304020	22,270000	51,400000
3,476912	913,445785	424,898	0,309799	22,270000	51,400000
3,494814	925,908527	425,800	0,315058	22,270000	51,400000
3,512847	941,999824	426,701	0,321849	22,270000	51,385000
3,530848	953,481376	427,602	0,326694	22,270000	51,385000
3,548839	967,268957	428,503	0,332512	22,270000	51,385000
3,566888	980,710576	429,404	0,338185	22,270000	51,385000
3,584806	994,066573	430,304	0,343821	22,270000	51,385000
3,602868	1007,885395	431,206	0,349652	22,260000	51,385000
3,620824	1023,819331	432,108	0,356376	22,260000	51,385000
3,638839	1035,114596	433,008	0,361143	22,280000	51,400000
3,656820	1050,563722	433,911	0,367663	22,280000	51,400000
3,674832	1064,208984	434,813	0,373421	22,270000	51,400000
3,692890	1076,169561	435,715	0,378468	22,270000	51,400000
3,710816	1090,074006	436,617	0,384336	22,280000	51,425000
3,728820	1103,257600	437,518	0,389899	22,280000	51,425000
3,746847	1116,598554	438,420	0,395529	22,270000	51,410000
3,764820	1132,877296	439,321	0,402399	22,270000	51,410000
3,782867	1143,882137	440,221	0,407043	22,270000	51,410000
3,800835	1159,917895	441,124	0,413810	22,270000	51,410000
3,818802	1173,124630	442,025	0,419383	22,270000	51,410000
3,836802	1184,357413	442,928	0,424124	22,270000	51,410000
3,854844	1197,932094	443,832	0,429852	22,270000	51,410000
3,872823	1211,672236	444,733	0,435650	22,270000	51,410000
3,890862	1227,520549	445,634	0,442338	22,270000	51,410000
3,908813	1241,010765	446,535	0,448031	22,280000	51,410000
3,926840	1254,436186	447,436	0,453697	22,280000	51,410000
3,944792	1267,800281	448,338	0,459336	22,280000	51,410000
3,962802	1278,616521	449,239	0,463901	22,280000	51,410000
3,980796	1294,778399	450,140	0,470721	22,280000	51,410000
3,998826	1305,876962	451,044	0,475405	22,270000	51,385000
4,016772	1320,784582	451,944	0,481696	22,270000	51,385000
4,034763	1332,973101	452,846	0,486839	22,280000	51,360000
4,052764	1345,905611	453,750	0,492297	22,280000	51,360000
4,067817	1359,425911	454,651	0,498002	22,280000	51,370000
4,067883	1358,869363	455,553	0,497768	22,280000	51,370000
4,067794	1357,811806	456,453	0,497321	22,280000	51,370000
4,067773	1357,348980	457,353	0,497126	22,280000	51,370000
4,067794	1357,153436	458,258	0,497043	22,280000	51,370000
4,067774	1356,971777	459,160	0,496967	22,270000	51,400000
4,067807	1356,362004	460,062	0,496709	22,270000	51,400000
4,067811	1356,110921	460,963	0,496604	22,260000	51,410000
4,067787	1355,867937	461,866	0,496501	22,260000	51,410000
4,067794	1355,664294	462,766	0,496415	22,260000	51,410000
4,067729	1355,178327	463,670	0,496210	22,260000	51,410000
4,067750	1355,170227	464,570	0,496207	22,270000	51,410000
4,049775	1343,053447	465,471	0,491093	22,270000	51,410000
4,031791	1326,514366	466,372	0,484114	22,270000	51,410000
4,013792	1312,719842	467,274	0,478292	22,270000	51,410000
3,995839	1297,623621	468,178	0,471922	22,270000	51,410000
3,977839	1285,671144	469,080	0,466878	22,280000	51,400000
3,959855	1271,476276	469,981	0,460888	22,280000	51,400000
3,941851	1255,141995	470,882	0,453995	22,270000	51,370000
3,923776	1242,907194	471,783	0,448832	22,270000	51,370000
3,905826	1227,277566	472,685	0,442236	22,270000	51,370000
3,887812	1213,248158	473,588	0,436315	22,270000	51,370000
3,869802	1201,005258	474,491	0,431149	22,270000	51,410000
3,851814	1185,290007	475,392	0,424517	22,270000	51,410000
3,833753	1174,027140	476,294	0,419764	22,270000	51,410000
3,815806	1160,083355	477,194	0,413880	22,270000	51,410000
3,797782	1146,445035	478,094	0,408125	22,270000	51,410000
3,779814	1132,062722	478,994	0,402055	22,270000	51,385000
3,761868	1119,090871	479,894	0,396581	22,270000	51,385000
3,743794	1102,497408	480,797	0,389579	22,270000	51,385000
3,725769	1088,906528	481,699	0,383843	22,270000	51,385000
3,707842	1075,714834	482,601	0,378276	22,270000	51,370000
3,689847	1063,957901	483,501	0,373315	22,270000	51,370000
3,671803	1050,186519	484,402	0,367503	22,270000	51,370000
3,653768	1035,451301	485,303	0,361285	22,270000	51,370000
3,635865	1020,598064	486,205	0,355017	22,270000	51,370000
3,617855	1009,507600	487,108	0,350337	22,280000	51,400000
3,599842	995,846138	488,010	0,344572	22,280000	51,400000
3,581846	982,529482	488,911	0,338952	22,270000	51,385000
3,563822	967,511941	489,815	0,332615	22,270000	51,385000
3,545806	955,144078	490,718	0,327396	22,280000	51,400000
3,527867	940,259599	491,620	0,321114	22,280000	51,400000
3,509861	925,774308	492,523	0,315001	22,270000	51,385000
3,524844	936,278140	493,335	0,319434	22,270000	51,385000
3,542891	951,036498	494,237	0,325662	22,270000	51,385000
3,560872	966,203301	495,138	0,332062	22,270000	51,385000
3,578848	980,199154	496,040	0,337969	22,270000	51,385000
3,596838	996,653769	496,941	0,344913	22,260000	51,400000
3,614867	1010,589455	497,841	0,350793	22,260000	51,400000
3,632842	1022,706235	498,742	0,355907	22,260000	51,400000
3,650912	1036,446377	499,646	0,361705	22,260000	51,400000
3,668866	1053,023641	500,546	0,368701	22,280000	51,400000
3,686841	1065,000417	501,447	0,373755	22,280000	51,400000
3,704841	1080,848730	502,350	0,380443	22,270000	51,400000
3,722860	1093,483875	503,252	0,385775	22,270000	51,400000
3,740877	1106,345805	504,153	0,391203	22,270000	51,400000
3,758876	1122,210317	505,053	0,397897	22,270000	51,385000
3,776792	1133,699969	505,954	0,402746	22,270000	51,385000
3,794858	1147,055965	506,854	0,408382	22,270000	51,400000
3,812802	1160,365679	507,754	0,413999	22,270000	51,400000
3,830871	1174,457568	508,658	0,419946	22,270000	51,400000
3,848847	1190,855487	509,559	0,426866	22,270000	51,400000
3,866835	1202,438861	510,461	0,431754	22,260000	51,370000
3,884801	1215,615512	511,362	0,437314	22,260000	51,370000
3,902863	1231,260182	512,264	0,443917	22,260000	51,370000
3,920785	1244,247075	513,166	0,449397	22,270000	51,370000
3,938851	1258,982292	514,066	0,455615	22,270000	51,370000
3,956788	1270,794765	514,968	0,460600	22,270000	51,400000
3,974785	1284,362504	515,868	0,466326	22,270000	51,400000
3,992847	1297,114512	516,769	0,471707	22,280000	51,370000
4,010825	1310,956476	517,670	0,477548	22,280000	51,370000
4,028803	1327,079014	518,573	0,484352	22,280000	51,370000
4,046749	1340,576172	519,474	0,490048	22,280000	51,370000
4,064765	1353,814148	520,376	0,495634	22,270000	51,425000
4,082756	1367,523049	521,277	0,501419	22,270000	51,425000
4,100823	1380,008933	522,178	0,506688	22,270000	51,425000
4,118872	1392,118770	523,078	0,511799	22,280000	51,410000
4,136802	1407,080772	523,981	0,518113	22,280000	51,410000
4,154810	1419,857079	524,882	0,523504	22,280000	51,410000
4,172776	1433,620362	525,782	0,529312	22,280000	51,410000
4,190788	1446,795857	526,682	0,534873	22,280000	51,385000
4,208793	1462,832772	527,583	0,541640	22,280000	51,385000
4,226769	1473,672153	528,484	0,546214	22,270000	51,370000
4,244740	1489,584105	529,385	0,552929	22,270000	51,370000
4,262814	1502,625380	530,288	0,558433	22,270000	51,370000
4,280822	1514,508433	531,190	0,563447	22,270000	51,370000
4,298743	1530,286165	532,091	0,570105	22,270000	51,370000
4,316751	1542,921310	532,992	0,575438	22,270000	51,400000
4,334722	1554,795107	533,893	0,580448	22,270000	51,400000
4,346755	1565,878629	534,797	0,585125	22,270000	51,400000
4,346815	1565,204060	535,698	0,584841	22,270000	51,400000
4,346695	1564,961076	536,601	0,584738	22,270000	51,370000
4,346775	1564,090964	537,502	0,584371	22,270000	51,370000
4,346728	1563,746159	538,403	0,584226	22,280000	51,400000
4,346779	1563,519374	539,303	0,584130	22,280000	51,400000
4,346749	1563,166469	540,204	0,583981	22,280000	51,400000
4,346795	1562,805465	541,105	0,583829	22,280000	51,400000
4,346802	1562,398178	542,008	0,583657	22,280000	51,400000
4,346782	1562,398178	542,908	0,583657	22,270000	51,410000
4,346775	1562,147095	543,810	0,583551	22,270000	51,410000
4,343811	1562,077671	544,711	0,583521	22,270000	51,410000
4,325813	1546,996492	545,614	0,577157	22,270000	51,410000
4,307734	1529,768957	546,517	0,569887	22,270000	51,400000
4,289708	1515,974434	547,419	0,564066	22,270000	51,400000
4,271790	1504,178160	548,319	0,559088	22,270000	51,400000
4,253701	1489,834031	549,219	0,553035	22,270000	51,370000
4,235793	1475,364938	550,121	0,546929	22,270000	51,370000
4,217833	1458,882553	551,024	0,539973	22,270000	51,370000
4,199796	1447,760849	551,926	0,535280	22,270000	51,370000
4,181806	1433,574080	552,826	0,529293	22,270000	51,410000
4,163760	1419,817739	553,728	0,523488	22,270000	51,410000
4,145770	1403,044931	554,631	0,516410	22,270000	51,410000
4,127783	1391,655945	555,534	0,511604	22,270000	51,410000
4,109797	1375,784490	556,434	0,504906	22,270000	51,385000
4,091829	1361,855746	557,335	0,499028	22,270000	51,385000
4,073790	1348,970675	558,237	0,493590	22,270000	51,385000
4,055766	1335,003749	559,138	0,487696	22,270000	51,400000
4,037805	1321,851396	560,039	0,482146	22,270000	51,400000
4,019774	1308,331096	560,940	0,476440	22,270000	51,400000
4,001838	1292,286082	561,843	0,469669	22,270000	51,400000
3,983862	1278,217334	562,743	0,463732	22,260000	51,385000
3,965867	1267,165053	563,643	0,459068	22,260000	51,385000
3,947799	1253,684094	564,546	0,453379	22,260000	51,385000
3,929813	1237,121871	565,446	0,446390	22,260000	51,385000
3,911785	1223,279908	566,346	0,440549	22,260000	51,385000
3,893825	1209,815147	567,248	0,434867	22,280000	51,410000
3,875812	1197,132563	568,150	0,429515	22,280000	51,410000
3,857823	1182,287424	569,051	0,423250	22,270000	51,410000
3,839831	1171,055798	569,954	0,418510	22,270000	51,410000
3,821833	1157,614179	570,855	0,412838	22,270000	51,410000
3,803844	1141,381720	571,757	0,405988	22,270000	51,410000
3,785790	1127,986384	572,659	0,400335	22,280000	51,385000
3,767865	1116,707318	573,560	0,395575	22,280000	51,385000
3,749882	1103,305039	574,462	0,389919	22,280000	51,385000
3,731810	1089,611180	575,363	0,384141	22,280000	51,385000
3,713816	1073,716584	576,266	0,377433	22,280000	51,385000
3,695898	1062,171394	577,168	0,372561	22,270000	51,400000
3,677905	1048,180169	578,068	0,366657	22,270000	51,400000
3,659825	1035,372621	578,970	0,361252	22,270000	51,400000
3,641870	1019,156361	579,871	0,354409	22,270000	51,400000
3,623840	1005,847804	580,771	0,348792	22,270000	51,400000
3,605873	992,311306	581,673	0,343080	22,270000	51,400000
3,587847	978,915969	582,573	0,337427	22,270000	51,400000
3,569888	965,450052	583,474	0,331745	22,270000	51,400000
3,551895	951,811732	584,376	0,325989	22,280000	51,400000
3,533870	938,942860	585,278	0,320559	22,280000	51,400000
3,515877	926,519457	586,180	0,315316	22,280000	51,400000
3,497903	911,650020	587,080	0,309041	22,270000	51,400000
3,479872	900,003008	587,983	0,304126	22,270000	51,400000
3,461849	884,437019	588,883	0,297557	22,280000	51,400000
3,443881	870,939860	589,784	0,291861	22,280000	51,400000
3,425913	858,516458	590,687	0,286619	22,270000	51,410000
3,407874	844,165386	591,588	0,280562	22,270000	51,410000
3,389967	830,888070	592,488	0,274959	22,270000	51,400000
3,371906	817,477692	593,390	0,269300	22,270000	51,400000
3,353926	804,105497	594,290	0,263657	22,270000	51,400000
3,335874	790,930002	595,191	0,258097	22,270000	51,385000
3,317859	777,667728	596,091	0,252500	22,270000	51,385000
3,299909	765,879554	596,993	0,247526	22,260000	51,410000
3,281920	750,479025	597,895	0,241027	22,260000	51,410000
3,263985	739,599147	598,799	0,236436	22,260000	51,410000
3,245916	726,180669	599,701	0,230773	22,260000	51,410000
3,227968	710,450376	600,603	0,224135	22,270000	51,435000
3,209896	699,406194	601,504	0,219474	22,270000	51,435000
3,191892	684,137570	602,406	0,213031	22,270000	51,370000
3,173896	672,357496	603,308	0,208060	22,270000	51,370000
3,155950	657,606080	604,211	0,201834	22,270000	51,370000
3,137939	644,642328	605,112	0,196364	22,270000	51,400000
3,119975	633,340121	606,014	0,191594	22,270000	51,400000
3,101975	618,385062	606,916	0,185283	22,280000	51,410000
3,083950	605,020966	607,818	0,179644	22,280000	51,410000
3,065939	594,165386	608,720	0,175063	22,260000	51,385000
3,047942	578,701218	609,622	0,168537	22,260000	51,385000
3,029953	565,862430	610,523	0,163119	22,260000	51,385000
3,011980	552,177827	611,424	0,157344	22,260000	51,385000
2,993935	541,235467	612,325	0,152726	22,260000	51,385000
2,976002	528,562139	613,228	0,147378	22,260000	51,425000
2,958006	515,276724	614,129	0,141771	22,260000	51,425000
2,940003	499,976859	615,032	0,135315	22,270000	51,385000
2,922008	488,008183	615,934	0,130264	22,270000	51,385000
2,903950	473,632813	616,835	0,124198	22,270000	51,425000
2,885973	460,755841	617,736	0,118764	22,270000	51,425000
2,867960	450,370029	618,637	0,114381	22,270000	51,425000
2,849965	436,708568	619,539	0,108616	22,270000	51,425000
2,832022	423,611754	620,443	0,103089	22,280000	51,385000
2,814051	410,796107	621,343	0,097681	22,280000	51,385000
2,795991	397,863596	622,244	0,092223	22,280000	51,385000
2,777956	384,766782	623,144	0,086696	22,270000	51,400000
2,759973	369,419478	624,044	0,080220	22,270000	51,400000
2,741972	358,618280	624,948	0,075662	22,280000	51,435000
2,723962	342,989809	625,849	0,069066	22,280000	51,435000
2,705992	330,394004	626,751	0,063751	22,270000	51,360000
[...]
4,023320	1317,940518	435,618	0,480889	22,270000	51,410000
4,041284	1330,535166	436,519	0,486204	22,260000	51,410000
4,059303	1342,661202	437,419	0,491321	22,260000	51,410000
4,077268	1358,650678	438,320	0,498069	22,270000	51,410000
4,095264	1370,235208	439,224	0,502958	22,270000	51,410000
4,113262	1384,069072	440,127	0,508795	22,270000	51,400000
4,131299	1397,526890	441,028	0,514475	22,270000	51,400000
4,149268	1411,344555	441,929	0,520306	22,270000	51,400000
4,167288	1424,434427	442,831	0,525830	22,270000	51,400000
4,185295	1440,799948	443,734	0,532736	22,270000	51,400000
4,203221	1453,653779	444,636	0,538160	22,260000	51,425000
4,221269	1467,213418	445,537	0,543882	22,260000	51,425000
4,239210	1480,381970	446,439	0,549439	22,260000	51,410000
4,257248	1493,150178	447,339	0,554828	22,260000	51,410000
4,275232	1506,623038	448,241	0,560513	22,270000	51,410000
4,293219	1520,285656	449,144	0,566279	22,270000	51,410000
4,311243	1534,205143	450,046	0,572153	22,270000	51,410000
4,329246	1547,326255	450,948	0,577690	22,270000	51,410000
4,347228	1560,987717	451,848	0,583455	22,270000	51,410000
4,365227	1576,844130	452,748	0,590146	22,260000	51,425000
4,383196	1590,239466	453,649	0,595799	22,260000	51,425000
4,398164	1601,682835	454,549	0,600628	22,260000	51,425000
4,398218	1600,757183	455,450	0,600238	22,260000	51,425000
4,398175	1600,349896	456,352	0,600066	22,260000	51,400000
4,398207	1599,934510	457,253	0,599891	22,260000	51,400000
4,398240	1599,394161	458,155	0,599663	22,270000	51,400000
4,398201	1599,080596	459,057	0,599530	22,270000	51,400000
4,398183	1598,750833	459,959	0,599391	22,270000	51,400000
4,398252	1598,704551	460,859	0,599372	22,280000	51,400000
4,398201	1598,484708	461,762	0,599279	22,280000	51,400000
4,398205	1598,038081	462,665	0,599090	22,270000	51,400000
4,398203	1598,123704	463,567	0,599126	22,270000	51,400000
4,398175	1597,645836	464,468	0,598925	22,270000	51,400000
4,380265	1585,654019	465,369	0,593864	22,270000	51,400000
4,362255	1568,551448	466,269	0,586647	22,270000	51,400000
4,344207	1556,747075	467,171	0,581666	22,270000	51,400000
4,326234	1540,076089	468,075	0,574630	22,270000	51,410000
4,308227	1525,497075	468,975	0,568478	22,270000	51,410000
4,290242	1511,835614	469,878	0,562713	22,270000	51,410000
4,272192	1497,131637	470,779	0,556508	22,270000	51,410000
4,254236	1485,116678	471,681	0,551438	22,270000	51,410000
4,236237	1471,320997	472,584	0,545616	22,270000	51,410000
4,218219	1457,221009	473,485	0,539666	22,270000	51,410000
4,200222	1443,684510	474,388	0,533953	22,270000	51,400000
4,182329	1429,395920	475,289	0,527923	22,270000	51,400000
4,164267	1415,796940	476,190	0,522185	22,270000	51,385000
4,146293	1399,869946	477,094	0,515463	22,270000	51,385000
4,128260	1386,388987	477,994	0,509774	22,270000	51,385000
4,110260	1373,041090	478,895	0,504142	22,270000	51,400000
4,092289	1360,532065	479,797	0,498863	22,270000	51,400000
4,074211	1346,345296	480,700	0,492876	22,270000	51,400000
4,056244	1332,831939	481,602	0,487173	22,270000	51,400000
4,038279	1316,435177	482,505	0,480254	22,270000	51,400000
4,020324	1303,886811	483,405	0,474958	22,270000	51,400000
4,002285	1288,641328	484,307	0,468525	22,270000	51,425000
3,984292	1277,292839	485,208	0,463736	22,270000	51,425000
3,966286	1263,685760	486,110	0,457994	22,270000	51,425000
3,948288	1248,643920	487,012	0,451646	22,270000	51,425000
3,930327	1235,719509	487,913	0,446192	22,270000	51,425000
3,912329	1220,192860	488,815	0,439640	22,260000	51,425000
3,894300	1209,015616	489,718	0,434923	22,260000	51,425000
3,876299	1194,922569	490,621	0,428976	22,270000	51,425000
3,858238	1179,254758	491,521	0,422364	22,270000	51,425000
3,840274	1165,828181	492,422	0,416698	22,270000	51,410000
3,855282	1176,041590	493,209	0,421008	22,270000	51,410000
3,873343	1193,206642	494,111	0,428251	22,280000	51,360000
3,891295	1205,300281	495,012	0,433355	22,280000	51,360000
3,909315	1219,957975	495,913	0,439541	22,280000	51,360000
3,927343	1233,877462	496,813	0,445415	22,280000	51,360000
3,945334	1248,088529	497,713	0,451412	22,280000	51,360000
3,963290	1264,869437	498,615	0,458493	22,260000	51,425000
3,981299	1278,828264	499,516	0,464384	22,260000	51,425000
3,999305	1292,404102	500,418	0,470113	22,260000	51,425000
4,017261	1304,372778	501,322	0,475164	22,260000	51,425000
4,035330	1318,551448	502,225	0,481147	22,280000	51,385000
4,053268	1332,299689	503,129	0,486949	22,280000	51,385000
4,071240	1348,640912	504,029	0,493845	22,270000	51,425000
4,089373	1360,171060	504,931	0,498710	22,270000	51,425000
4,107315	1376,324839	505,831	0,505527	22,270000	51,425000
4,125273	1387,792506	506,732	0,510367	22,270000	51,425000
4,143284	1404,181169	507,635	0,517283	22,270000	51,425000
4,161314	1417,685269	508,535	0,522981	22,270000	51,425000
4,179181	1431,755174	509,438	0,528919	22,270000	51,425000
4,197255	1443,958734	510,339	0,534069	22,270000	51,410000
4,215263	1459,242400	511,240	0,540519	22,270000	51,410000
4,233242	1470,718167	512,141	0,545361	22,270000	51,410000
4,251236	1487,106829	513,041	0,552277	22,270000	51,410000
4,269185	1500,603988	513,945	0,557973	22,270000	51,410000
4,287247	1512,157277	514,847	0,562849	22,270000	51,385000
4,305202	1525,677577	515,748	0,568554	22,270000	51,385000
4,323217	1540,232292	516,650	0,574696	22,270000	51,410000
4,341246	1555,517115	517,553	0,581146	22,270000	51,410000
4,359227	1569,515283	518,453	0,587054	22,280000	51,435000
4,377206	1580,653186	519,353	0,591754	22,280000	51,435000
4,395232	1594,620113	520,253	0,597648	22,280000	51,435000
4,413190	1608,007350	521,154	0,603297	22,280000	51,435000
4,431201	1624,326588	522,054	0,610184	22,270000	51,400000
4,449214	1638,355996	522,956	0,616104	22,270000	51,400000
4,467192	1649,321497	523,858	0,620732	22,270000	51,400000
4,485182	1663,186602	524,759	0,626583	22,270000	51,410000
4,503211	1679,317239	525,660	0,633390	22,270000	51,410000
4,521235	1693,009941	526,563	0,639168	22,260000	51,385000
4,539164	1706,084771	527,465	0,644686	22,260000	51,385000
4,557213	1718,625037	528,366	0,649978	22,280000	51,450000
4,575131	1732,294598	529,267	0,655747	22,280000	51,450000
4,593172	1745,838039	530,168	0,661462	22,280000	51,450000
4,611197	1758,967250	531,070	0,667002	22,280000	51,450000
4,629146	1773,075339	531,971	0,672956	22,280000	51,450000
4,647118	1786,298273	532,872	0,678536	22,260000	51,370000
4,665111	1800,092797	533,775	0,684357	22,260000	51,370000
4,677145	1811,567406	534,677	0,689200	22,280000	51,425000
4,677116	1810,682252	535,578	0,688826	22,280000	51,425000
4,677148	1809,953301	536,478	0,688519	22,280000	51,425000
4,677159	1809,890819	537,380	0,688492	22,280000	51,425000
4,677158	1809,521716	538,281	0,688336	22,270000	51,385000
4,677116	1809,091288	539,181	0,688155	22,270000	51,385000
4,677115	1808,800865	540,082	0,688032	22,270000	51,400000
4,677146	1808,589122	540,985	0,687943	22,270000	51,400000
4,677137	1808,518541	541,885	0,687913	22,270000	51,400000
4,677140	1808,024474	542,787	0,687705	22,270000	51,400000
4,677149	1808,173736	543,690	0,687768	22,270000	51,400000
4,674120	1807,930752	544,591	0,687665	22,260000	51,425000
4,656150	1792,246742	545,493	0,681046	22,260000	51,425000
4,638151	1777,856330	546,393	0,674974	22,260000	51,425000
4,620163	1764,053706	547,296	0,669149	22,260000	51,425000
4,602120	1749,538331	548,198	0,663023	22,270000	51,435000
4,584123	1735,625787	549,101	0,657152	22,270000	51,435000
4,566220	1721,242317	550,002	0,651083	22,270000	51,435000
4,548182	1704,814314	550,902	0,644150	22,260000	51,400000
4,530188	1692,618854	551,803	0,639003	22,260000	51,400000
4,512170	1676,534499	552,705	0,632216	22,280000	51,400000
4,494230	1664,370279	553,605	0,627083	22,280000	51,400000
4,476219	1649,431418	554,505	0,620778	22,270000	51,425000
4,458175	1636,216584	555,408	0,615202	22,270000	51,425000
4,440168	1621,379545	556,308	0,608940	22,280000	51,410000
4,422195	1607,090955	557,208	0,602911	22,280000	51,410000
4,404222	1594,478951	558,108	0,597588	22,260000	51,410000
4,386231	1580,096638	559,008	0,591519	22,260000	51,410000
4,368198	1566,066073	559,909	0,585598	22,260000	51,410000
4,350245	1552,443952	560,811	0,579850	22,260000	51,410000
4,332204	1538,601988	561,712	0,574008	22,260000	51,410000
4,314253	1524,454560	562,617	0,568038	22,260000	51,410000
4,296245	1508,433844	563,518	0,561277	22,260000	51,410000
4,278251	1494,568739	564,420	0,555426	22,260000	51,410000
4,260239	1481,651270	565,321	0,549975	22,260000	51,410000
4,242293	1468,922403	566,223	0,544604	22,270000	51,450000
4,224241	1454,791173	567,124	0,538640	22,270000	51,450000
4,206292	1441,294015	568,025	0,532944	22,270000	51,410000
4,188298	1425,406361	568,926	0,526240	22,270000	51,410000
4,170325	1413,829930	569,828	0,521354	22,270000	51,410000
4,152297	1397,425068	570,729	0,514432	22,260000	51,400000
4,134247	1386,287165	571,631	0,509731	22,260000	51,400000
4,116285	1370,783657	572,533	0,503189	22,260000	51,400000
4,098263	1358,979284	573,436	0,498208	22,260000	51,400000
4,080272	1344,197784	574,336	0,491970	22,270000	51,450000
4,062296	1331,209734	575,237	0,486489	22,270000	51,450000
4,044301	1317,760016	576,138	0,480813	22,270000	51,370000
4,026239	1303,980534	577,039	0,474998	22,270000	51,370000
4,008323	1290,460234	577,940	0,469292	22,270000	51,370000
3,990289	1273,835530	578,840	0,462277	22,260000	51,425000
3,972325	1263,231033	579,740	0,457802	22,260000	51,425000
3,954329	1249,600813	580,641	0,452050	22,280000	51,400000
3,936297	1233,556955	581,542	0,445279	22,280000	51,400000
3,918311	1222,419052	582,443	0,440579	22,280000	51,400000
3,900291	1206,099813	583,344	0,433692	22,280000	51,400000
3,882309	1195,032490	584,247	0,429022	22,280000	51,400000
3,864328	1181,159286	585,149	0,423167	22,280000	51,400000
3,846357	1167,489725	586,050	0,417399	22,260000	51,425000
3,828295	1153,138653	586,951	0,411343	22,260000	51,425000
3,810326	1140,355404	587,853	0,405948	22,260000	51,425000
3,792375	1124,561473	588,755	0,399283	22,270000	51,410000
3,774344	1111,346638	589,657	0,393707	22,270000	51,410000
3,756350	1099,996992	590,557	0,388917	22,270000	51,410000
3,738370	1086,829597	591,458	0,383360	22,270000	51,410000
3,720264	1070,738300	592,362	0,376570	22,270000	51,410000
3,702333	1059,546014	593,264	0,371847	22,270000	51,410000
3,684330	1044,229950	594,165	0,365383	22,270000	51,435000
3,666309	1031,806548	595,066	0,360141	22,270000	51,435000
3,648356	1019,023299	595,968	0,354746	22,270000	51,435000
3,630370	1005,769124	596,869	0,349153	22,270000	51,435000
3,612347	992,028982	597,769	0,343354	22,270000	51,435000
3,594349	976,141328	598,669	0,336650	22,260000	51,400000
3,576347	962,895253	599,573	0,331060	22,260000	51,400000
3,558345	952,164636	600,474	0,326532	22,260000	51,400000
3,540352	936,003916	601,376	0,319712	22,260000	51,400000
3,522374	923,721675	602,279	0,314529	22,260000	51,400000
3,504412	910,741725	603,181	0,309051	22,260000	51,400000
3,486344	895,896586	604,085	0,302787	22,260000	51,400000
3,468358	884,986624	604,985	0,298183	22,260000	51,400000
3,450391	871,433927	605,887	0,292463	22,260000	51,400000
3,432376	855,390070	606,789	0,285693	22,280000	51,435000
3,414400	843,868021	607,691	0,280831	22,280000	51,435000
3,396470	829,594472	608,593	0,274807	22,270000	51,410000
3,378477	817,610754	609,494	0,269750	22,270000	51,410000
3,360429	804,121695	610,395	0,264058	22,260000	51,400000
3,342388	788,555706	611,298	0,257489	22,260000	51,400000
3,324427	777,825089	612,199	0,252960	22,280000	51,425000
3,306453	764,336030	613,102	0,247268	22,280000	51,425000
3,288439	749,835697	614,004	0,241149	22,280000	51,425000
3,270474	735,147919	614,905	0,234951	22,270000	51,425000
3,252486	722,089288	615,805	0,229440	22,270000	51,425000
3,234484	709,133636	616,707	0,223973	22,270000	51,425000
3,216430	697,242484	617,611	0,218955	22,270000	51,425000
3,198494	682,492225	618,511	0,212730	22,260000	51,385000
3,180436	670,868354	619,411	0,207825	22,260000	51,385000
3,162455	658,789757	620,314	0,202728	22,270000	51,410000
3,144499	645,527483	621,216	0,197131	22,270000	51,410000
3,126476	629,483625	622,120	0,190360	22,280000	51,410000
3,108464	616,472434	623,021	0,184870	22,280000	51,410000
3,090434	603,766708	623,922	0,179508	22,280000	51,410000
3,072490	589,901603	624,824	0,173657	22,270000	51,435000
3,054481	576,914710	625,727	0,168176	22,270000	51,435000
3,036457	565,580106	626,627	0,163393	22,270000	51,425000
3,018486	552,342130	627,528	0,157807	22,270000	51,425000
3,000434	539,386478	628,431	0,152339	22,270000	51,425000
2,982481	523,929252	629,331	0,145816	22,270000	51,425000
2,964489	512,838789	630,233	0,141136	22,260000	51,425000
2,946469	497,202218	631,134	0,134538	22,260000	51,425000
2,928485	486,777066	632,035	0,130138	22,260000	51,400000
2,910419	473,530991	632,936	0,124548	22,260000	51,400000
2,892504	460,724600	633,839	0,119144	22,260000	51,400000
2,874507	447,541006	634,741	0,113581	22,280000	51,435000
2,856465	434,741558	635,644	0,108179	22,280000	51,435000
2,838456	421,071997	636,546	0,102411	22,280000	51,435000
2,820494	408,719176	637,447	0,097198	22,280000	51,435000
2,802491	395,323839	638,348	0,091545	22,270000	51,400000
2,784456	379,726609	639,248	0,084963	22,270000	51,400000
2,766506	367,052123	640,148	0,079614	22,270000	51,400000
2,748493	354,237633	641,049	0,074207	22,270000	51,400000
2,730501	341,187102	641,950	0,068699	22,270000	51,400000
2,712503	327,737383	642,853	0,063023	22,260000	51,400000
2,694517	316,474517	643,757	0,058271	22,260000	51,400000
2,676480	304,128638	644,658	0,053061	22,270000	51,400000
2,658522	290,946201	645,558	0,047498	22,270000	51,400000
2,640487	278,068072	646,458	0,042063	22,270000	51,400000
2,622530	262,674485	647,360	0,035567	22,270000	51,400000
2,604523	251,983209	648,261	0,031055	22,260000	51,425000
2,586505	236,323497	649,162	0,024447	22,260000	51,425000
2,568530	223,382887	650,063	0,018986	22,260000	51,425000
2,550524	213,310639	650,965	0,014735	22,260000	51,425000
2,532557	199,147012	651,868	0,008758	22,260000	51,425000
2,514484	187,460660	652,769	0,003827	22,270000	51,400000
2,496535	175,688685	653,671	-0,001141	22,270000	51,400000
2,478564	161,477618	654,571	-0,007138	22,280000	51,425000
2,460495	148,137820	655,471	-0,012768	22,280000	51,425000
2,442514	136,796273	656,372	-0,017554	22,260000	51,400000
2,424538	125,008099	657,275	-0,022528	22,260000	51,400000
2,406498	112,247991	658,175	-0,027913	22,260000	51,385000
2,388488	96,862504	659,077	-0,034406	22,260000	51,385000
2,370537	85,199293	659,980	-0,039328	22,260000	51,385000
2,352515	73,176235	660,883	-0,044401	22,280000	51,435000
2,334503	61,880970	661,785	-0,049168	22,280000	51,435000
2,316477	47,019633	662,685	-0,055439	22,270000	51,425000
2,298528	36,792339	663,586	-0,059755	22,270000	51,425000
2,280530	24,721842	664,488	-0,064849	22,270000	51,435000
2,262515	10,275890	665,391	-0,070945	22,270000	51,435000
2,244504	-2,508516	666,291	-0,076340	22,270000	51,435000
2,226534	-14,108088	667,195	-0,081235	22,270000	51,435000
2,208496	-26,296607	668,097	-0,086379	22,260000	51,410000
2,190496	-38,342806	668,997	-0,091462	22,260000	51,410000
2,172506	-49,190286	669,898	-0,096040	22,260000	51,410000
2,154502	-60,579273	670,800	-0,100846	22,260000	51,410000
2,136534	-75,455652	671,703	-0,107124	22,260000	51,410000
2,118501	-84,547865	672,603	-0,110961	22,260000	51,425000
2,100511	-97,347314	673,503	-0,116362	22,260000	51,425000
2,082516	-112,176253	674,405	-0,122620	22,270000	51,425000
2,064520	-121,652612	675,305	-0,126619	22,270000	51,425000
2,046506	-136,152945	676,208	-0,132738	22,260000	51,385000
2,028549	-146,985384	677,109	-0,137310	22,260000	51,385000
2,010541	-158,240151	678,010	-0,142059	22,260000	51,385000
1,992519	-169,911461	678,912	-0,146984	22,260000	51,410000
1,974575	-181,620955	679,814	-0,151926	22,260000	51,410000
1,956548	-194,098739	680,716	-0,157191	22,270000	51,410000
1,938550	-206,177336	681,619	-0,162289	22,270000	51,410000
1,920466	-217,323339	682,523	-0,166992	22,280000	51,425000
1,902533	-230,820498	683,425	-0,172688	22,280000	51,425000
1,884527	-241,306974	684,326	-0,177113	22,280000	51,425000
1,866520	-250,461669	685,226	-0,180977	22,280000	51,425000
1,848568	-263,387237	686,128	-0,186431	22,260000	51,400000
1,830572	-272,666895	687,031	-0,190347	22,260000	51,400000
1,812575	-283,663637	687,933	-0,194988	22,260000	51,400000
1,794560	-295,914636	688,836	-0,200158	22,270000	51,410000
1,776552	-310,045866	689,738	-0,206121	22,270000	51,410000
1,758523	-319,906370	690,638	-0,210282	22,270000	51,425000
1,740549	-334,140579	691,541	-0,216289	22,270000	51,425000
1,722545	-345,106080	692,441	-0,220917	22,270000	51,425000
1,704487	-356,275224	693,343	-0,225630	22,270000	51,425000
1,686590	-367,162045	694,248	-0,230224	22,270000	51,425000
1,668552	-378,103247	695,151	-0,234841	22,270000	51,425000
1,650558	-390,181844	696,051	-0,239938	22,270000	51,410000
1,632562	-401,774474	696,951	-0,244831	22,270000	51,410000
1,614546	-413,405287	697,851	-0,249739	22,270000	51,410000
1,596554	-426,557640	698,751	-0,255289	22,270000	51,410000
1,578545	-435,610514	699,655	-0,259109	22,270000	51,410000
1,560534	-448,206318	700,556	-0,264425	22,270000	51,370000
1,542530	-456,114855	701,457	-0,267762	22,270000	51,370000
1,524573	-467,581365	702,359	-0,272601	22,260000	51,400000
1,506536	-478,288840	703,262	-0,277120	22,260000	51,400000
1,488588	-488,893337	704,163	-0,281595	22,270000	51,425000
1,470548	-500,054382	705,065	-0,286305	22,270000	51,425000
1,452573	-510,886821	705,965	-0,290876	22,270000	51,425000
1,434616	-520,583022	706,868	-0,294968	22,270000	51,425000
1,416535	-532,880304	707,771	-0,300157	22,270000	51,425000
1,398597	-542,654028	708,673	-0,304282	22,260000	51,410000
1,380593	-551,887404	709,575	-0,308178	22,260000	51,410000
1,362614	-562,178336	710,477	-0,312521	22,260000	51,410000
1,344560	-573,997751	711,379	-0,317509	22,260000	51,410000
1,326562	-584,046856	712,282	-0,321750	22,270000	51,435000
1,308579	-594,157287	713,183	-0,326016	22,270000	51,435000
1,290551	-602,183844	714,086	-0,329403	22,270000	51,435000
1,272563	-611,330439	714,987	-0,333263	22,270000	51,435000
1,254587	-619,207735	715,889	-0,336587	22,270000	51,435000
1,236569	-628,848397	716,792	-0,340656	22,280000	51,410000
1,218589	-637,642088	717,693	-0,344367	22,280000	51,410000
1,200577	-648,129721	718,594	-0,348792	22,260000	51,410000
1,182554	-654,407953	719,495	-0,351442	22,260000	51,410000
1,164605	-663,876213	720,397	-0,355438	22,260000	51,410000
1,146592	-672,176994	721,298	-0,358940	22,260000	51,410000
1,128603	-678,972434	722,201	-0,361808	22,280000	51,400000
1,110556	-687,029075	723,103	-0,365208	22,280000	51,400000
1,092562	-694,515283	724,003	-0,368367	22,280000	51,400000
1,074580	-701,639329	724,904	-0,371374	22,270000	51,410000
1,056577	-705,159120	725,807	-0,372859	22,270000	51,410000
1,038575	-707,063648	726,707	-0,373663	22,270000	51,400000
1,020557	-712,071423	727,609	-0,375776	22,270000	51,400000
1,002577	-716,789933	728,509	-0,377767	22,270000	51,425000
0,984573	-719,055465	729,409	-0,378723	22,270000	51,425000
0,966609	-723,437269	730,314	-0,380572	22,260000	51,465000
0,948553	-725,349896	731,216	-0,381379	22,260000	51,465000
0,930539	-728,303882	732,118	-0,382626	22,270000	51,425000
0,912613	-728,436945	733,018	-0,382682	22,270000	51,425000
0,894597	-717,707485	733,918	-0,378154	22,270000	51,425000
0,876544	-707,973101	734,819	-0,374046	22,270000	51,425000
0,858583	-660,200218	735,721	-0,353886	22,270000	51,425000
0,840554	-0,023141	736,624	-0,075292	22,270000	51,400000
0,822550	0,321664	737,525	-0,075146	22,270000	51,400000
0,804545	0,204800	738,426	-0,075195	22,270000	51,385000
0,786565	0,251083	739,327	-0,075176	22,270000	51,385000
0,768556	0,361004	740,228	-0,075129	22,270000	51,410000
0,750629	0,180502	741,130	-0,075206	22,270000	51,410000
0,732623	0,234884	742,033	-0,075183	22,270000	51,410000
0,714578	0,101822	742,936	-0,075239	22,270000	51,410000
0,696529	0,055539	743,839	-0,075258	22,270000	51,410000
0,678568	0,234884	744,742	-0,075183	22,270000	51,400000
0,666566	0,525307	745,343	-0,075060	22,270000	51,400000