File: Nanoindentation Datenauswertung/data/PDMS/14.09/APM-PDMS-150ms,4um,7nms,9cycles,1,5um offset,75%,5x1-8
Quasi static measurement routine
Tip parameters (shape,radius, material...)
14.09.2022

Piezo position[nm]	MEMS displ.[nm]	Time[ms]	Cap [pf]	Temp [°C]	Rh [%]
eoh

X-Pos [um]	Y-Pos [um]
0,000274	0,001057

POC
1,831998
0,343108	-0,070581	2,703	-0,075278	22,270000	51,370000
0,355110	-0,093722	4,507	-0,075288	22,270000	51,410000
0,367098	-0,085623	6,311	-0,075285	22,270000	51,410000
0,379140	-0,016199	8,116	-0,075255	22,260000	51,400000
0,391114	-0,219842	9,918	-0,075341	22,270000	51,370000
0,403126	-0,016199	11,723	-0,075255	22,270000	51,370000
0,415109	0,023141	13,526	-0,075239	22,270000	51,400000
0,427108	-0,031241	15,331	-0,075262	22,270000	51,385000
0,439139	-0,242984	17,132	-0,075351	22,270000	51,385000
0,451072	-0,313564	18,936	-0,075381	22,270000	51,425000
0,463109	-0,118021	20,740	-0,075298	22,270000	51,425000
0,475115	-0,195544	22,545	-0,075331	22,270000	51,400000
0,487129	-0,321664	24,348	-0,075384	22,270000	51,400000
0,499109	0,000000	26,149	-0,075249	22,270000	51,400000
0,511111	-0,328606	27,952	-0,075387	22,270000	51,400000
0,523130	-0,164303	29,755	-0,075318	22,260000	51,410000
0,535125	-0,085623	31,559	-0,075285	22,270000	51,410000
0,547139	-0,211743	33,364	-0,075338	22,270000	51,410000
0,559114	-0,211743	35,166	-0,075338	22,270000	51,410000
0,571115	-0,227942	36,972	-0,075345	22,270000	51,410000
0,583133	-0,195544	38,776	-0,075331	22,270000	51,410000
0,595137	-0,290423	40,578	-0,075371	22,250000	51,405000
0,607134	-0,384145	42,380	-0,075411	22,250000	51,405000
0,619091	-0,156204	44,186	-0,075314	22,280000	51,400000
0,631128	-0,101822	45,989	-0,075292	22,280000	51,400000
0,643121	-0,188602	47,792	-0,075328	22,260000	51,385000
0,655102	-0,352905	49,592	-0,075397	22,270000	51,370000
0,667108	-0,124963	51,396	-0,075301	22,270000	51,410000
0,679157	-0,101822	53,202	-0,075292	22,270000	51,425000
0,691136	-0,423486	55,006	-0,075427	22,260000	51,370000
0,703145	-0,085623	56,806	-0,075285	22,280000	51,385000
0,715121	-0,234884	58,610	-0,075348	22,270000	51,425000
0,727137	-0,328606	60,413	-0,075387	22,270000	51,425000
0,739139	-0,251083	62,216	-0,075354	22,270000	51,425000
0,751163	-0,266125	64,019	-0,075361	22,270000	51,385000
0,763093	-0,227942	65,823	-0,075345	22,260000	51,385000
0,775133	-0,219842	67,629	-0,075341	22,260000	51,425000
0,787125	-0,367947	69,434	-0,075404	22,260000	51,425000
0,799082	-0,548449	71,236	-0,075480	22,270000	51,370000
0,811153	-0,446627	73,038	-0,075437	22,270000	51,370000
0,823094	-0,180502	74,840	-0,075325	22,270000	51,400000
0,835097	-0,251083	76,642	-0,075354	22,260000	51,425000
0,847130	-0,234884	78,443	-0,075348	22,260000	51,425000
0,859130	-0,070581	80,247	-0,075278	22,260000	51,425000
0,871121	-0,211743	82,050	-0,075338	22,270000	51,410000
0,883121	-0,133062	83,851	-0,075305	22,260000	51,425000
0,895118	-0,195544	85,655	-0,075331	22,260000	51,425000
0,907144	-0,297366	87,458	-0,075374	22,270000	51,370000
0,919100	-0,203643	89,262	-0,075334	22,260000	51,400000
0,931119	-0,282324	91,065	-0,075368	22,270000	51,400000
0,943125	-0,415386	92,870	-0,075424	22,270000	51,410000
0,955101	-0,423486	94,675	-0,075427	22,270000	51,410000
0,967140	-0,219842	96,476	-0,075341	22,270000	51,410000
0,979162	-0,290423	98,278	-0,075371	22,270000	51,410000
0,991080	-0,203643	100,082	-0,075334	22,270000	51,410000
1,003129	-0,219842	101,884	-0,075341	22,280000	51,360000
1,015099	-0,720851	103,688	-0,075553	22,280000	51,360000
1,027114	-0,361004	105,491	-0,075401	22,260000	51,385000
1,039077	-0,234884	107,295	-0,075348	22,270000	51,385000
1,051129	-0,321664	109,095	-0,075384	22,260000	51,425000
1,063123	-0,525307	110,897	-0,075470	22,270000	51,400000
1,075107	-0,400344	112,700	-0,075417	22,280000	51,400000
1,087110	-0,494067	114,501	-0,075457	22,280000	51,400000
1,099107	-0,078680	116,302	-0,075282	22,280000	51,400000
1,111086	-0,525307	118,103	-0,075470	22,260000	51,385000
1,123105	-0,595888	119,906	-0,075500	22,270000	51,400000
1,135117	-0,477868	121,707	-0,075450	22,260000	51,400000
1,147154	-0,305465	123,509	-0,075377	22,270000	51,370000
1,159099	-0,423486	125,316	-0,075427	22,270000	51,370000
1,171129	-0,485967	127,118	-0,075454	22,280000	51,385000
1,183167	-0,689610	128,922	-0,075540	22,280000	51,385000
1,195100	-0,548449	130,724	-0,075480	22,280000	51,400000
1,207118	-0,431585	132,528	-0,075431	22,280000	51,400000
1,219065	-0,502166	134,330	-0,075460	22,280000	51,400000
1,231096	-0,517208	136,132	-0,075467	22,270000	51,400000
1,243136	-0,446627	137,934	-0,075437	22,270000	51,400000
1,255087	-0,650270	139,735	-0,075523	22,270000	51,385000
1,267051	-0,352905	141,538	-0,075397	22,270000	51,410000
1,279090	-0,643328	143,342	-0,075520	22,270000	51,410000
1,291123	-0,697710	145,142	-0,075543	22,260000	51,400000
1,303076	-0,681511	146,944	-0,075536	22,260000	51,400000
1,315132	-0,525307	148,746	-0,075470	22,280000	51,385000
1,327084	-0,603988	150,547	-0,075503	22,280000	51,400000
1,339061	-0,838872	152,349	-0,075603	22,280000	51,400000
1,351165	-0,836558	154,154	-0,075602	22,280000	51,400000
1,363098	-0,776390	155,956	-0,075576	22,260000	51,410000
1,375144	-0,674569	157,757	-0,075533	22,270000	51,400000
1,387145	-0,720851	159,562	-0,075553	22,260000	51,410000
1,399115	-0,720851	161,363	-0,075553	22,260000	51,410000
1,411099	-0,533407	163,166	-0,075474	22,270000	51,400000
1,423099	-0,713909	164,968	-0,075550	22,270000	51,400000
1,435106	-0,720851	166,770	-0,075553	22,270000	51,400000
1,447088	-0,737050	168,574	-0,075560	22,270000	51,400000
1,459095	-0,697710	170,378	-0,075543	22,270000	51,400000
1,471114	-0,689610	172,181	-0,075540	22,280000	51,410000
1,483125	-1,050615	173,985	-0,075692	22,280000	51,410000
1,495114	-0,986976	175,787	-0,075665	22,280000	51,370000
1,507112	-1,019374	177,592	-0,075679	22,280000	51,370000
1,519087	-0,886311	179,395	-0,075623	22,270000	51,400000
1,531095	-1,144337	181,202	-0,075731	22,270000	51,400000
1,543138	-0,807631	183,005	-0,075589	22,270000	51,400000
1,555129	-1,285499	184,808	-0,075791	22,260000	51,400000
1,567121	-1,003175	186,612	-0,075672	22,260000	51,400000
1,579067	-1,003175	188,414	-0,075672	22,260000	51,400000
1,591104	-1,050615	190,219	-0,075692	22,270000	51,385000
1,603121	-1,293598	192,021	-0,075794	22,270000	51,385000
1,615104	-1,198719	193,824	-0,075754	22,270000	51,385000
1,627104	-1,238059	195,626	-0,075771	22,270000	51,425000
1,639078	-1,098054	197,429	-0,075712	22,270000	51,410000
1,651103	-1,457901	199,235	-0,075864	22,260000	51,385000
1,663094	-1,332938	201,036	-0,075811	22,270000	51,400000
1,675102	-1,528482	202,841	-0,075894	22,270000	51,400000
1,687077	-1,449802	204,643	-0,075860	22,260000	51,410000
1,699112	-1,559723	206,446	-0,075907	22,260000	51,410000
1,711093	-1,763366	208,246	-0,075993	22,270000	51,400000
1,723103	-1,833947	210,049	-0,076022	22,270000	51,400000
1,735095	-2,085030	211,850	-0,076128	22,270000	51,410000
1,747116	-6,309473	213,652	-0,077911	22,260000	51,410000
1,759086	-5,150094	215,453	-0,077422	22,260000	51,370000
1,771055	-3,644753	217,254	-0,076787	22,270000	51,435000
1,783037	-2,570997	219,055	-0,076333	22,270000	51,385000
1,795112	-1,308640	220,858	-0,075801	22,270000	51,385000
1,807048	-0,016199	222,662	-0,075255	22,270000	51,385000
1,819055	1,223017	224,463	-0,074732	22,270000	51,385000
1,831058	-193,582688	226,265	-0,156940	22,270000	51,385000
1,843092	-193,707651	228,068	-0,156993	22,270000	51,385000
1,855049	-188,754258	229,871	-0,154903	22,270000	51,410000
1,867076	-182,883312	231,676	-0,152425	22,260000	51,400000
1,879104	-176,731200	233,479	-0,149829	22,270000	51,410000
1,891120	-169,794598	235,282	-0,146902	22,260000	51,370000
1,903047	-163,249084	237,086	-0,144140	22,270000	51,410000
1,915086	-155,709651	238,889	-0,140958	22,260000	51,400000
1,927062	-147,902936	240,694	-0,137664	22,260000	51,425000
1,939083	-140,331106	242,498	-0,134468	22,270000	51,385000
1,951052	-132,877296	244,305	-0,131323	22,270000	51,385000
1,963047	-126,003175	246,106	-0,128422	22,270000	51,370000
1,975049	-118,071497	247,908	-0,125075	22,250000	51,395000
1,987058	-109,716334	249,710	-0,121549	22,250000	51,395000
1,999104	-102,426827	251,515	-0,118473	22,270000	51,410000
1,999070	-103,116438	253,318	-0,118764	22,270000	51,400000
1,999058	-103,899770	255,121	-0,119094	22,270000	51,425000
1,999062	-104,300115	256,925	-0,119263	22,270000	51,370000
1,999088	-104,495659	258,730	-0,119346	22,260000	51,400000
1,999039	-105,005924	260,534	-0,119561	22,260000	51,400000
1,994067	-109,284749	262,337	-0,121367	22,260000	51,400000
1,982047	-117,656111	264,142	-0,124899	22,270000	51,410000
1,970079	-127,547856	265,944	-0,129074	22,270000	51,410000
1,958070	-136,326505	267,746	-0,132778	22,270000	51,410000
1,967015	-128,895836	269,434	-0,129643	22,270000	51,385000
1,979083	-120,869279	271,235	-0,126255	22,270000	51,410000
1,991099	-111,942526	273,037	-0,122488	22,280000	51,385000
2,003067	-103,351322	274,837	-0,118863	22,270000	51,370000
2,015035	-94,894337	276,641	-0,115294	22,270000	51,370000
2,027073	-86,366771	278,443	-0,111695	22,270000	51,370000
2,039056	-78,763700	280,250	-0,108487	22,270000	51,370000
2,051045	-70,188694	282,054	-0,104868	22,270000	51,370000
2,063070	-62,618021	283,856	-0,101673	22,270000	51,385000
2,075052	-54,435260	285,658	-0,098220	22,270000	51,435000
2,087106	-46,502425	287,463	-0,094873	22,270000	51,385000
2,099062	-38,225942	289,267	-0,091380	22,270000	51,385000
2,111037	-30,269966	291,069	-0,088022	22,260000	51,410000
2,123068	-22,863596	292,872	-0,084897	22,260000	51,410000
2,135048	-13,723943	294,676	-0,081040	22,260000	51,400000
2,147072	-6,122029	296,480	-0,077832	22,260000	51,400000
2,159072	1,206818	298,283	-0,074739	22,260000	51,400000
2,166085	5,776066	300,085	-0,072811	22,280000	51,385000
2,166076	5,306298	301,888	-0,073009	22,280000	51,385000
2,166021	4,538007	303,693	-0,073333	22,260000	51,370000
2,166042	4,279982	305,498	-0,073442	22,280000	51,425000
2,166053	3,738476	307,300	-0,073671	22,260000	51,370000
2,166037	3,323089	309,103	-0,073846	22,260000	51,385000
2,156069	-4,710410	310,906	-0,077236	22,280000	51,370000
2,144060	-13,136154	312,708	-0,080792	22,280000	51,370000
2,132080	-22,988559	314,510	-0,084950	22,280000	51,370000
2,120072	-31,476785	316,311	-0,088532	22,280000	51,370000
2,108042	-40,334114	318,114	-0,092270	22,260000	51,425000
2,096051	-49,403186	319,916	-0,096097	22,270000	51,400000
2,084068	-57,750250	321,718	-0,099619	22,270000	51,400000
2,091013	-52,811898	323,404	-0,097535	22,270000	51,385000
2,103080	-43,665303	325,208	-0,093675	22,270000	51,400000
2,115049	-34,925994	327,014	-0,089987	22,260000	51,410000
2,127044	-25,543358	328,818	-0,086028	22,260000	51,410000
2,139039	-16,734625	330,622	-0,082311	22,270000	51,410000
2,151028	-8,245242	332,423	-0,078728	22,270000	51,410000
2,163023	0,407287	334,224	-0,075077	22,270000	51,425000
2,175044	8,895512	336,027	-0,071495	22,270000	51,435000
2,187045	16,647845	337,833	-0,068223	22,270000	51,400000
2,199039	24,979867	339,636	-0,064707	22,280000	51,400000
2,211018	32,857163	341,440	-0,061383	22,280000	51,400000
2,223011	41,862596	343,243	-0,057583	22,260000	51,385000
2,235095	49,731792	345,046	-0,054262	22,260000	51,385000
2,247065	58,032574	346,850	-0,050759	22,270000	51,370000
2,259071	65,808048	348,653	-0,047478	22,270000	51,400000
2,271087	74,751000	350,455	-0,043704	22,270000	51,400000
2,283059	82,800698	352,258	-0,040307	22,280000	51,425000
2,294995	90,371371	354,061	-0,037112	22,280000	51,400000
2,307068	98,578430	355,865	-0,033648	22,280000	51,400000
2,319079	106,102821	357,668	-0,030473	22,270000	51,425000
2,331015	114,661628	359,471	-0,026861	22,280000	51,370000
2,333103	115,679845	361,276	-0,026432	22,280000	51,370000
2,333061	115,093213	363,080	-0,026679	22,270000	51,385000
2,333050	114,755350	364,882	-0,026822	22,260000	51,400000
2,333074	114,128221	366,687	-0,027086	22,270000	51,370000
2,333020	114,050698	368,488	-0,027119	22,270000	51,370000
2,330066	111,565323	370,291	-0,028168	22,270000	51,370000
2,318046	102,661711	372,097	-0,031925	22,270000	51,385000
2,306026	92,856746	373,900	-0,036063	22,270000	51,400000
2,294047	83,858255	375,704	-0,039860	22,270000	51,400000
2,282058	75,762274	377,508	-0,043277	22,270000	51,385000
2,270055	65,854330	379,315	-0,047458	22,270000	51,385000
2,258077	57,765292	381,116	-0,050872	22,270000	51,360000
2,246035	48,493733	382,923	-0,054784	22,270000	51,400000
2,234066	39,879388	384,725	-0,058419	22,280000	51,410000
2,222041	31,571664	386,527	-0,061925	22,270000	51,425000
2,210080	23,106580	388,334	-0,065498	22,270000	51,425000
2,217090	27,762607	390,019	-0,063533	22,280000	51,400000
2,229069	36,759941	391,824	-0,059736	22,280000	51,400000
2,241022	45,883396	393,629	-0,055886	22,270000	51,385000
2,253054	55,023049	395,434	-0,052029	22,260000	51,385000
2,265053	64,240225	397,237	-0,048139	22,260000	51,385000
2,277053	72,344305	399,041	-0,044719	22,280000	51,400000
2,289031	81,695701	400,845	-0,040773	22,280000	51,400000
2,300993	89,501259	402,648	-0,037479	22,260000	51,385000
2,313047	98,335447	404,452	-0,033751	22,260000	51,385000
2,325031	107,396420	406,256	-0,029927	22,270000	51,400000
2,337025	114,865271	408,060	-0,026775	22,270000	51,400000
2,349077	123,463418	409,863	-0,023147	22,270000	51,400000
2,361084	132,218926	411,668	-0,019452	22,270000	51,400000
2,373039	139,963159	413,472	-0,016184	22,270000	51,385000
2,385020	147,840455	415,274	-0,012860	22,260000	51,370000
2,397083	157,026390	417,079	-0,008983	22,280000	51,410000
2,409054	165,381554	418,883	-0,005458	22,280000	51,410000
2,421095	172,694202	420,689	-0,002372	22,280000	51,370000
2,433063	181,292349	422,494	0,001257	22,280000	51,370000
2,445094	189,969176	424,294	0,004918	22,280000	51,370000
2,457019	197,705310	426,098	0,008183	22,280000	51,370000
2,469081	206,185436	427,901	0,011762	22,280000	51,370000
2,481119	214,259432	429,704	0,015169	22,260000	51,385000
2,493055	222,347314	431,507	0,018582	22,270000	51,385000
2,500041	227,630471	433,311	0,020812	22,270000	51,385000
2,500029	226,540516	435,117	0,020352	22,270000	51,385000
2,500091	226,062648	436,918	0,020150	22,270000	51,410000
2,500029	225,717843	438,720	0,020004	22,270000	51,370000
2,500041	225,466760	440,522	0,019898	22,270000	51,370000
2,500021	225,075672	442,324	0,019733	22,270000	51,370000
2,490018	216,876712	444,127	0,016273	22,280000	51,410000
2,478091	208,764533	445,930	0,012850	22,280000	51,410000
2,466073	198,033916	447,732	0,008322	22,260000	51,410000
2,454025	189,075922	449,537	0,004542	22,260000	51,410000
2,442035	180,822580	451,342	0,001059	22,270000	51,410000
2,430072	171,910869	453,148	-0,002702	22,270000	51,410000
2,418100	163,492067	454,948	-0,006255	22,270000	51,400000
2,406080	153,560982	456,750	-0,010446	22,260000	51,400000
2,394058	144,634229	458,553	-0,014213	22,270000	51,400000
2,382037	136,756933	460,360	-0,017537	22,270000	51,400000
2,370063	128,040766	462,162	-0,021215	22,270000	51,400000
2,358062	119,756183	463,965	-0,024711	22,270000	51,425000
2,345997	110,655870	465,770	-0,028552	22,270000	51,425000
2,334100	101,642337	467,571	-0,032355	22,270000	51,425000
2,343078	109,230367	469,260	-0,029153	22,270000	51,410000
2,355096	118,024058	471,063	-0,025442	22,270000	51,370000
2,367064	127,257433	472,866	-0,021546	22,260000	51,410000
2,379044	135,981700	474,669	-0,017864	22,260000	51,410000
2,391032	145,425661	476,474	-0,013879	22,260000	51,410000
2,403056	154,439194	478,277	-0,010075	22,270000	51,400000
2,415061	163,265283	480,080	-0,006351	22,270000	51,400000
2,427062	171,628545	481,882	-0,002821	22,270000	51,400000
2,439008	180,156111	483,685	0,000777	22,270000	51,385000
2,451060	189,169644	485,488	0,004581	22,270000	51,385000
2,463066	197,736550	487,292	0,008196	22,270000	51,385000
2,475046	206,201635	489,096	0,011769	22,280000	51,370000
2,487050	214,454976	490,898	0,015251	22,260000	51,435000
2,499055	223,045024	492,703	0,018876	22,260000	51,435000
2,511041	232,536424	494,507	0,022882	22,260000	51,435000
2,523039	239,935852	496,311	0,026004	22,280000	51,385000
2,535059	248,886904	498,112	0,029782	22,260000	51,410000
2,547050	256,913461	499,912	0,033169	22,270000	51,385000
2,559078	265,283666	501,715	0,036701	22,270000	51,400000
2,571074	273,294024	503,517	0,040082	22,270000	51,400000
2,583038	282,315656	505,322	0,043889	22,270000	51,410000
2,595030	290,020549	507,127	0,047140	22,270000	51,410000
2,607039	298,892921	508,931	0,050884	22,270000	51,410000
2,619072	306,730876	510,732	0,054192	22,270000	51,400000
2,631040	315,690027	512,532	0,057973	22,280000	51,385000
2,642982	324,084531	514,334	0,061515	22,280000	51,385000
2,655053	331,789424	516,138	0,064767	22,280000	51,385000
2,667028	340,026566	517,943	0,068243	22,270000	51,370000
2,667042	339,862263	519,747	0,068173	22,270000	51,410000
2,667026	339,266375	521,551	0,067922	22,270000	51,385000
2,667021	339,102072	523,355	0,067853	22,270000	51,385000
2,667028	338,584864	525,158	0,067634	22,280000	51,410000
2,666988	338,044515	526,963	0,067406	22,280000	51,425000
2,662031	333,858255	528,767	0,065640	22,280000	51,425000
2,650049	324,719759	530,570	0,061783	22,270000	51,410000
2,638055	316,074172	532,372	0,058135	22,270000	51,410000
2,626033	306,691536	534,173	0,054175	22,270000	51,410000
2,614030	296,973350	535,976	0,050074	22,270000	51,400000
2,602055	288,562648	537,779	0,046525	22,270000	51,435000
2,590048	279,289933	539,585	0,042612	22,270000	51,435000
2,578069	270,668644	541,389	0,038974	22,270000	51,400000
2,566043	261,835614	543,195	0,035246	22,270000	51,400000
2,554079	251,920727	544,998	0,031062	22,270000	51,370000
2,542010	243,360763	546,800	0,027450	22,270000	51,410000
2,530047	235,053040	548,604	0,023944	22,270000	51,410000
2,518049	225,678503	550,408	0,019988	22,270000	51,410000
2,506117	217,354580	552,213	0,016475	22,270000	51,425000
2,494079	208,685852	554,015	0,012817	22,270000	51,410000
2,482084	199,844722	555,816	0,009086	22,270000	51,425000
2,470044	191,819322	557,619	0,005699	22,270000	51,370000
2,458081	183,416719	559,421	0,002153	22,270000	51,370000
2,469081	191,261617	561,103	0,005464	22,270000	51,400000
2,481072	200,980959	562,906	0,009565	22,270000	51,370000
2,493031	210,041932	564,709	0,013389	22,270000	51,370000
2,505061	218,859921	566,515	0,017110	22,270000	51,370000
2,517098	228,045857	568,317	0,020987	22,270000	51,400000
2,529058	237,717760	570,118	0,025068	22,270000	51,385000
2,541072	246,880554	571,923	0,028935	22,270000	51,410000
2,553047	254,976535	573,727	0,032352	22,270000	51,410000
2,565024	263,582781	575,531	0,035983	22,270000	51,410000
2,577010	272,180928	577,335	0,039612	22,250000	51,405000
2,589055	280,967676	579,136	0,043320	22,270000	51,410000
2,601046	290,286674	580,940	0,047252	22,270000	51,410000
2,613054	298,564314	582,746	0,050746	22,270000	51,410000
2,625029	307,106922	584,547	0,054351	22,260000	51,370000
2,637031	316,811223	586,350	0,058446	22,260000	51,370000
2,649080	324,312472	588,150	0,061611	22,260000	51,370000
2,661039	333,741391	589,954	0,065590	22,270000	51,400000
2,673074	342,323339	591,756	0,069212	22,270000	51,400000
2,685062	350,067573	593,560	0,072480	22,270000	51,400000
2,697024	359,708235	595,364	0,076548	22,270000	51,400000
2,709013	367,741734	597,170	0,079938	22,270000	51,400000
2,721052	376,590964	598,972	0,083673	22,280000	51,385000
2,733083	384,437019	600,776	0,086984	22,270000	51,410000
2,745047	392,823423	602,578	0,090523	22,270000	51,410000
2,757047	401,774474	604,384	0,094300	22,270000	51,410000
2,769056	410,145836	606,189	0,097833	22,260000	51,400000
2,781074	418,540340	607,992	0,101375	22,260000	51,400000
2,793095	427,726276	609,794	0,105252	22,270000	51,425000
2,805054	435,626712	611,599	0,108586	22,270000	51,425000
2,817075	444,170477	613,403	0,112191	22,260000	51,425000
2,829062	452,564981	615,208	0,115734	22,270000	51,410000
2,834042	456,475859	617,009	0,117384	22,270000	51,410000
2,834062	456,029232	618,817	0,117196	22,270000	51,360000
2,834038	455,620788	620,620	0,117023	22,270000	51,385000
2,834033	455,134821	622,427	0,116818	22,270000	51,385000
2,834037	454,712493	624,232	0,116640	22,260000	51,400000
2,834019	454,515792	626,036	0,116557	22,280000	51,400000
2,822018	444,648345	627,844	0,112393	22,280000	51,400000
2,810049	436,143920	629,646	0,108804	22,270000	51,400000
2,798070	426,816823	631,449	0,104868	22,280000	51,370000
2,785986	417,772049	633,252	0,101051	22,280000	51,370000
2,774032	407,865262	635,055	0,096871	22,260000	51,400000
2,762051	398,756850	636,857	0,093027	22,280000	51,385000
2,750030	390,393587	638,659	0,089498	22,280000	51,385000
2,738049	380,877888	640,462	0,085482	22,280000	51,385000
2,726058	372,499583	642,265	0,081946	22,270000	51,400000
2,714052	363,587872	644,067	0,078186	22,270000	51,385000
2,702041	354,558140	645,872	0,074375	22,270000	51,400000
2,690074	345,913711	647,674	0,070727	22,280000	51,400000
2,678023	336,962659	649,479	0,066950	22,270000	51,410000
2,666061	326,749250	651,285	0,062640	22,270000	51,425000
2,654058	318,410286	653,088	0,059121	22,270000	51,410000
2,642065	309,654778	654,892	0,055426	22,270000	51,410000
2,630021	301,111013	656,695	0,051820	22,270000	51,410000
2,618059	292,670227	658,495	0,048258	22,270000	51,410000
2,606005	284,353247	660,298	0,044749	22,270000	51,400000
2,594040	275,457735	662,100	0,040995	22,270000	51,400000
2,583106	266,961410	663,903	0,037409	22,270000	51,400000
2,595012	276,477109	665,591	0,041425	22,270000	51,345000
2,607079	285,646845	667,396	0,045294	22,270000	51,345000
2,619068	294,880221	669,199	0,049191	22,260000	51,400000
2,631054	304,261700	671,003	0,053150	22,280000	51,400000
2,643061	313,652436	672,805	0,057113	22,260000	51,410000
2,655079	322,649770	674,609	0,060910	22,280000	51,410000
2,667034	331,843806	676,413	0,064790	22,280000	51,410000
2,679079	340,653695	678,218	0,068507	22,270000	51,410000
2,691048	349,150020	680,020	0,072093	22,270000	51,410000
2,703082	358,680761	681,823	0,076115	22,270000	51,410000
2,715045	366,237550	683,627	0,079304	22,270000	51,450000
2,727056	375,359847	685,432	0,083153	22,270000	51,410000
2,739058	384,185936	687,234	0,086878	22,270000	51,410000
2,751009	392,792182	689,040	0,090510	22,260000	51,435000
2,763055	401,617113	690,842	0,094234	22,280000	51,400000
2,775039	411,462576	692,645	0,098389	22,270000	51,400000
2,787084	419,378055	694,450	0,101729	22,270000	51,400000
2,799028	427,938018	696,255	0,105341	22,260000	51,410000
2,811045	436,715510	698,057	0,109045	22,260000	51,410000
2,823050	445,589038	699,859	0,112790	22,270000	51,400000
2,835074	454,673152	701,665	0,116624	22,270000	51,400000
2,847054	462,762191	703,468	0,120037	22,270000	51,385000
2,859007	471,580180	705,273	0,123758	22,260000	51,410000
2,871001	480,272049	707,074	0,127426	22,260000	51,410000
2,883008	489,748408	708,876	0,131425	22,270000	51,370000
2,895036	498,346555	710,678	0,135054	22,270000	51,400000
2,907040	506,419394	712,482	0,138460	22,270000	51,400000
2,919049	515,127462	714,286	0,142135	22,270000	51,385000
2,931048	523,796190	716,090	0,145793	22,280000	51,385000
2,943040	532,927744	717,890	0,149647	22,280000	51,385000
2,955020	541,792015	719,694	0,153388	22,280000	51,360000
2,967020	549,841714	721,494	0,156785	22,270000	51,400000
2,979034	558,699043	723,295	0,160522	22,270000	51,370000
2,990987	566,975526	725,100	0,164015	22,270000	51,370000
3,001034	574,969685	726,900	0,167389	22,260000	51,385000
3,001018	574,271975	728,703	0,167094	22,270000	51,385000
3,001044	573,191277	730,507	0,166638	22,270000	51,385000
3,000989	573,403019	732,307	0,166728	22,270000	51,410000
3,001016	572,948293	734,109	0,166536	22,270000	51,410000
3,001031	572,508609	735,912	0,166350	22,270000	51,410000
2,994057	566,975526	737,719	0,164015	22,260000	51,425000
2,982007	557,523465	739,522	0,160026	22,270000	51,410000
2,969987	548,336373	741,322	0,156149	22,270000	51,410000
2,958034	539,276557	743,127	0,152326	22,260000	51,410000
2,946028	529,424152	744,928	0,148168	22,270000	51,400000
2,934059	520,198876	746,733	0,144275	22,270000	51,370000
2,921984	512,078597	748,536	0,140849	22,270000	51,370000
2,910035	502,586039	750,343	0,136843	22,270000	51,400000
2,897974	492,851655	752,146	0,132735	22,260000	51,370000
2,886052	485,107422	753,948	0,129467	22,270000	51,385000
2,874042	475,161295	755,753	0,125270	22,280000	51,410000
2,862025	466,390745	757,554	0,121568	22,280000	51,410000
2,850036	457,400354	759,357	0,117774	22,260000	51,400000
2,838069	449,076431	761,160	0,114262	22,260000	51,400000
2,826025	439,867354	762,962	0,110375	22,270000	51,400000
2,814020	430,210493	764,762	0,106300	22,260000	51,425000
2,802005	421,557964	766,566	0,102649	22,260000	51,425000
2,790028	413,421486	768,372	0,099215	22,260000	51,425000
2,778039	404,330430	770,175	0,095379	22,270000	51,385000
2,766031	394,649271	771,977	0,091293	22,270000	51,400000
2,754063	387,093639	773,780	0,088105	22,270000	51,400000
2,742043	378,096305	775,583	0,084308	22,260000	51,400000
2,730046	368,933510	777,388	0,080441	22,260000	51,370000
2,718039	360,624630	779,195	0,076935	22,280000	51,425000
2,711084	353,915969	780,883	0,074104	22,280000	51,425000
2,723076	363,619113	782,685	0,078199	22,280000	51,400000
2,735022	373,267874	784,486	0,082271	22,280000	51,400000
2,747057	383,190860	786,291	0,086458	22,280000	51,400000
2,759089	391,851488	788,092	0,090113	22,280000	51,360000
2,771075	401,492150	789,896	0,094181	22,280000	51,410000
2,783040	409,894753	791,698	0,097727	22,280000	51,410000
2,795023	419,151270	793,501	0,101633	22,270000	51,410000
2,807036	428,189101	795,305	0,105447	22,270000	51,385000
2,819053	437,585623	797,110	0,109413	22,270000	51,385000
2,831059	446,153686	798,914	0,113028	22,270000	51,360000
2,842987	455,738809	800,719	0,117073	22,270000	51,410000
2,855034	464,118271	802,525	0,120609	22,270000	51,410000
2,867029	473,053123	804,327	0,124380	22,260000	51,400000
2,878997	481,792432	806,128	0,128068	22,260000	51,400000
2,891069	491,549957	807,931	0,132186	22,280000	51,400000
2,903037	499,223610	809,734	0,135424	22,270000	51,400000
2,915028	509,131554	811,535	0,139605	22,270000	51,370000
2,927002	516,953310	813,338	0,142906	22,270000	51,385000
2,939009	526,460910	815,138	0,146918	22,270000	51,385000
2,951032	535,168978	816,940	0,150593	22,260000	51,435000
2,963022	543,540340	818,743	0,154125	22,270000	51,400000
2,974982	552,389570	820,547	0,157860	22,270000	51,400000
2,987065	562,240818	822,350	0,162017	22,270000	51,400000
2,999017	570,306715	824,158	0,165421	22,270000	51,385000
3,011013	579,124704	825,961	0,169142	22,270000	51,385000
3,023020	588,601063	827,764	0,173141	22,270000	51,385000
3,035042	597,261691	829,567	0,176796	22,270000	51,425000
3,047027	605,209568	831,376	0,180150	22,280000	51,410000
3,059043	613,995159	833,181	0,183857	22,280000	51,410000
3,071017	622,593306	834,984	0,187486	22,270000	51,385000
3,083023	631,404352	836,786	0,191204	22,270000	51,410000
3,094967	639,994400	838,589	0,194829	22,270000	51,385000
3,107007	648,607588	840,392	0,198464	22,270000	51,385000
3,119021	658,711076	842,195	0,202728	22,270000	51,385000
3,130995	666,220425	843,997	0,205896	22,270000	51,370000
3,142939	675,178419	845,802	0,209677	22,280000	51,410000
3,155017	683,464159	847,608	0,213173	22,280000	51,410000
3,166987	692,226609	849,411	0,216871	22,270000	51,400000
3,167962	693,261025	851,214	0,217308	22,280000	51,400000
3,168012	692,673236	853,016	0,217060	22,280000	51,400000
3,168003	692,093546	854,820	0,216815	22,260000	51,400000
3,167997	692,124787	856,623	0,216828	22,280000	51,370000
3,167991	692,100489	858,428	0,216818	22,280000	51,370000
3,163976	688,981043	860,235	0,215501	22,270000	51,400000
3,152060	678,854414	862,042	0,211228	22,270000	51,400000
3,139984	669,605996	863,845	0,207325	22,270000	51,410000
3,127943	660,505684	865,649	0,203485	22,270000	51,410000
3,116011	651,836956	867,451	0,199827	22,270000	51,425000
3,103986	642,737800	869,255	0,195987	22,260000	51,370000
3,092043	632,657453	871,057	0,191733	22,260000	51,370000
3,080007	623,424078	872,859	0,187836	22,270000	51,385000
3,068022	614,881470	874,662	0,184231	22,270000	51,385000
3,056022	606,094722	876,466	0,180523	22,270000	51,385000
3,044044	595,787591	878,270	0,176174	22,270000	51,370000
3,032024	587,197543	880,073	0,172549	22,270000	51,400000
3,020035	578,356413	881,880	0,168818	22,270000	51,400000
3,008032	569,766366	883,682	0,165193	22,280000	51,410000
2,996073	560,234468	885,486	0,161170	22,280000	51,385000
2,984084	551,887404	887,290	0,157648	22,280000	51,385000
2,972064	543,023132	889,093	0,153907	22,280000	51,360000
2,960053	533,507433	890,896	0,149892	22,270000	51,385000
2,948021	524,392078	892,700	0,146045	22,270000	51,385000
2,936070	515,393587	894,503	0,142248	22,270000	51,385000
2,923990	507,524391	896,305	0,138927	22,270000	51,400000
2,912060	498,400937	898,108	0,135077	22,270000	51,425000
2,900028	489,121279	899,910	0,131161	22,280000	51,400000
2,888035	479,801124	901,716	0,127228	22,280000	51,360000
2,876072	471,430919	903,520	0,123695	22,280000	51,360000
2,864074	462,424328	905,324	0,119895	22,270000	51,410000
2,852022	453,779899	907,127	0,116247	22,270000	51,370000
2,840017	445,392337	908,931	0,112707	22,270000	51,360000
2,839025	443,637070	910,620	0,111966	22,270000	51,410000
2,851086	453,277733	912,426	0,116035	22,270000	51,410000
2,863077	462,683510	914,227	0,120004	22,270000	51,410000
2,875042	472,268633	916,029	0,124049	22,280000	51,385000
2,887024	481,643171	917,833	0,128005	22,270000	51,385000
2,899053	491,354414	919,635	0,132103	22,260000	51,385000
2,911025	500,086780	921,437	0,135788	22,260000	51,370000
2,923037	509,374537	923,242	0,139708	22,260000	51,370000
2,935036	518,215668	925,044	0,143438	22,270000	51,360000
2,947024	527,174819	926,848	0,147219	22,270000	51,360000
2,959029	536,610680	928,652	0,151201	22,270000	51,400000
2,971038	545,476109	930,453	0,154942	22,270000	51,400000
2,983011	554,325339	932,254	0,158677	22,270000	51,360000
2,995037	563,918561	934,058	0,162725	22,270000	51,400000
3,007041	572,148761	935,863	0,166198	22,270000	51,370000
3,019019	581,201635	937,667	0,170019	22,270000	51,410000
3,031045	590,065906	939,470	0,173759	22,270000	51,370000
3,043002	598,711493	941,272	0,177408	22,270000	51,370000
3,054985	608,470176	943,078	0,181526	22,280000	51,385000
3,067042	617,145846	944,881	0,185187	22,280000	51,385000
3,078972	626,567822	946,687	0,189163	22,270000	51,385000
3,091022	634,389579	948,490	0,192464	22,270000	51,385000
3,102988	644,438685	950,292	0,196705	22,270000	51,410000
3,115033	652,480284	952,093	0,200098	22,270000	51,370000
3,127031	661,611837	953,895	0,203952	22,270000	51,370000
3,139001	670,201885	955,696	0,207577	22,270000	51,400000
3,151006	678,768791	957,500	0,211192	22,270000	51,370000
3,163043	687,633062	959,302	0,214933	22,270000	51,400000
3,175029	696,748417	961,104	0,218779	22,270000	51,400000
3,186993	706,365938	962,910	0,222838	22,270000	51,410000
3,199044	714,282574	964,716	0,226179	22,270000	51,410000
3,211023	722,974443	966,520	0,229847	22,270000	51,410000
3,222976	732,685686	968,327	0,233945	22,280000	51,400000
3,235008	740,562981	970,131	0,237269	22,280000	51,400000
3,247001	749,482792	971,933	0,241033	22,270000	51,370000
3,259014	758,841130	973,739	0,244982	22,270000	51,410000
3,270960	767,212493	975,544	0,248515	22,270000	51,410000
3,283016	775,661378	977,350	0,252081	22,270000	51,410000
3,295017	785,349480	979,153	0,256169	22,270000	51,360000
3,306980	793,124954	980,957	0,259450	22,270000	51,410000
3,318979	802,427753	982,760	0,263376	22,270000	51,435000
3,330977	811,637987	984,564	0,267263	22,270000	51,435000
3,334985	813,777399	986,364	0,268166	22,270000	51,410000
3,334948	813,495076	988,167	0,268046	22,270000	51,370000
3,334974	812,790423	989,970	0,267749	22,260000	51,360000
3,334984	812,861004	991,772	0,267779	22,270000	51,410000
3,334994	812,500000	993,574	0,267626	22,270000	51,385000
3,333988	812,132053	995,377	0,267471	22,270000	51,385000
3,321979	801,997325	997,183	0,263194	22,270000	51,370000
3,309980	792,537165	998,985	0,259202	22,270000	51,360000
3,298033	783,287591	1000,789	0,255299	22,270000	51,360000
3,285972	774,415220	1002,594	0,251555	22,270000	51,360000
3,273980	764,342972	1004,400	0,247304	22,270000	51,370000
3,261970	755,769124	1006,206	0,243686	22,280000	51,370000
3,249984	746,363346	1008,007	0,239717	22,280000	51,370000
3,238011	736,330439	1009,811	0,235483	22,270000	51,385000
3,225971	728,077098	1011,615	0,232000	22,270000	51,385000
3,214005	718,640079	1013,418	0,228018	22,270000	51,360000
3,202007	710,237476	1015,222	0,224472	22,280000	51,385000
3,190012	699,907203	1017,023	0,220112	22,280000	51,385000
3,177980	690,933011	1018,827	0,216325	22,270000	51,370000
3,165979	682,710910	1020,631	0,212855	22,280000	51,400000
3,153979	673,101488	1022,434	0,208800	22,280000	51,400000
3,142031	664,542682	1024,238	0,205188	22,270000	51,410000
3,130010	655,693452	1026,040	0,201454	22,280000	51,370000
3,118004	645,864188	1027,846	0,197306	22,260000	51,335000
3,106048	636,952477	1029,648	0,193545	22,260000	51,335000
3,094026	627,759599	1031,453	0,189666	22,260000	51,400000
3,082002	619,442619	1033,257	0,186156	22,260000	51,400000
3,070023	609,967417	1035,061	0,182158	22,270000	51,400000
3,058057	601,822840	1036,865	0,178721	22,270000	51,400000
3,046021	592,025974	1038,666	0,174586	22,280000	51,360000
3,034076	584,148678	1040,471	0,171262	22,280000	51,360000
3,021990	574,641079	1042,274	0,167250	22,270000	51,370000
3,009995	565,924911	1044,079	0,163572	22,280000	51,385000
2,997993	556,464751	1045,882	0,159580	22,270000	51,385000
2,986078	548,516875	1047,683	0,156226	22,270000	51,400000
2,974008	539,660702	1049,484	0,152488	22,270000	51,400000
2,962048	530,693452	1051,285	0,148704	22,270000	51,410000
2,950011	521,993483	1053,090	0,145033	22,270000	51,400000
2,938019	512,509025	1054,895	0,141030	22,270000	51,400000
2,926026	503,416812	1056,699	0,137193	22,270000	51,400000
2,914072	494,701801	1058,503	0,133516	22,270000	51,400000
2,902043	485,875713	1060,306	0,129791	22,260000	51,385000
2,890058	477,935936	1062,106	0,126440	22,260000	51,385000
2,878069	468,091630	1063,908	0,122286	22,270000	51,425000
2,866009	459,916969	1065,712	0,118836	22,270000	51,370000
2,854074	451,890412	1067,516	0,115449	22,270000	51,385000
2,842066	442,978701	1069,316	0,111688	22,270000	51,400000
2,830033	434,395596	1071,117	0,108066	22,270000	51,400000
2,818046	424,716751	1072,921	0,103982	22,280000	51,400000
2,806057	415,913803	1074,722	0,100267	22,270000	51,425000
2,794064	408,052707	1076,525	0,096950	22,270000	51,425000
2,782076	398,530065	1078,333	0,092931	22,270000	51,370000
2,770064	389,751416	1080,134	0,089227	22,270000	51,370000
2,758113	381,818582	1081,938	0,085879	22,270000	51,385000
2,746110	372,233459	1083,744	0,081834	22,270000	51,385000
2,734040	363,972018	1085,547	0,078348	22,270000	51,385000
2,722047	355,891079	1087,351	0,074938	22,260000	51,345000
2,710078	346,838205	1089,155	0,071117	22,270000	51,385000
2,698132	338,491142	1090,958	0,067595	22,270000	51,385000
2,686077	329,735634	1092,762	0,063900	22,270000	51,385000
2,674064	320,424735	1094,568	0,059971	22,270000	51,385000
2,662047	312,342639	1096,373	0,056560	22,260000	51,370000
2,650051	303,744492	1098,176	0,052932	22,270000	51,360000
2,638068	294,441693	1099,980	0,049006	22,280000	51,370000
2,626066	286,313315	1101,782	0,045576	22,280000	51,385000
2,614076	277,542765	1103,584	0,041875	22,280000	51,385000
2,602096	269,266282	1105,386	0,038382	22,260000	51,400000
2,590087	260,793098	1107,188	0,034806	22,260000	51,400000
2,578109	252,461076	1108,988	0,031290	22,270000	51,410000
2,566082	243,871029	1110,791	0,027665	22,270000	51,410000
2,554036	234,998658	1112,596	0,023921	22,270000	51,410000
2,542055	227,082022	1114,400	0,020580	22,270000	51,410000
2,530029	218,710660	1116,202	0,017047	22,270000	51,370000
2,518091	209,673985	1118,004	0,013234	22,270000	51,400000
2,506107	201,992234	1119,805	0,009992	22,270000	51,400000
2,494079	193,456568	1121,606	0,006390	22,270000	51,400000
2,482070	184,639736	1123,408	0,002669	22,270000	51,400000
2,470069	176,550698	1125,212	-0,000744	22,280000	51,360000
2,458048	168,046273	1127,014	-0,004333	22,280000	51,360000
2,446094	159,533749	1128,816	-0,007925	22,270000	51,345000
2,434071	150,324672	1130,622	-0,011812	22,270000	51,400000
2,422121	142,243733	1132,425	-0,015222	22,270000	51,400000
2,410032	133,371362	1134,229	-0,018966	22,270000	51,400000
2,398072	125,595888	1136,033	-0,022247	22,270000	51,385000
2,386070	117,130804	1137,836	-0,025819	22,270000	51,385000
2,374088	108,508359	1139,640	-0,029458	22,260000	51,410000
2,362095	100,553540	1141,443	-0,032815	22,270000	51,400000
2,350049	92,009775	1143,248	-0,036420	22,270000	51,400000
2,338064	82,941860	1145,052	-0,040247	22,270000	51,370000
2,326044	74,774141	1146,853	-0,043694	22,260000	51,385000
2,314054	67,156028	1148,656	-0,046909	22,260000	51,410000
2,302088	59,434936	1150,460	-0,050167	22,260000	51,410000
2,290072	50,413303	1152,263	-0,053974	22,270000	51,360000
2,278120	42,897012	1154,068	-0,057146	22,280000	51,385000
2,266066	34,737393	1155,871	-0,060589	22,270000	51,425000
2,254090	26,390329	1157,676	-0,064112	22,280000	51,400000
2,242054	18,246908	1159,479	-0,067548	22,280000	51,400000
2,230043	8,982292	1161,283	-0,071458	22,270000	51,385000
2,218100	1,034416	1163,083	-0,074812	22,270000	51,370000
2,205993	-6,701718	1164,889	-0,078077	22,270000	51,385000
2,194088	-14,469092	1166,695	-0,081354	22,270000	51,385000
2,182066	-23,435186	1168,500	-0,085138	22,270000	51,385000
2,170086	-31,391162	1170,303	-0,088496	22,250000	51,380000
2,158107	-39,009275	1172,106	-0,091710	22,250000	51,380000
2,146091	-47,341297	1173,912	-0,095227	22,270000	51,385000
2,134034	-55,696460	1175,714	-0,098752	22,270000	51,410000
2,122048	-64,475109	1177,517	-0,102457	22,270000	51,410000
2,110117	-72,674069	1179,318	-0,105917	22,260000	51,400000
2,098069	-80,488883	1181,122	-0,109215	22,260000	51,385000
2,086099	-88,545524	1182,924	-0,112615	22,280000	51,410000
2,074037	-96,979367	1184,727	-0,116174	22,270000	51,385000
2,062064	-105,099646	1186,530	-0,119601	22,270000	51,385000
2,050144	-113,149345	1188,332	-0,122998	22,270000	51,370000
2,038085	-120,759358	1190,138	-0,126209	22,270000	51,370000
2,026105	-129,780991	1191,940	-0,130016	22,270000	51,370000
2,014045	-136,991817	1193,743	-0,133059	22,270000	51,370000
2,002108	-145,198876	1195,550	-0,136522	22,260000	51,385000
1,990089	-151,868196	1197,355	-0,139337	22,270000	51,360000
1,978093	-160,592463	1199,157	-0,143019	22,270000	51,385000
1,966074	-167,787091	1200,958	-0,146055	22,270000	51,385000
1,954127	-175,836789	1202,762	-0,149452	22,270000	51,400000
1,942142	-183,329939	1204,565	-0,152614	22,270000	51,400000
1,930110	-190,650687	1206,367	-0,155703	22,270000	51,400000
1,918062	-199,837780	1208,170	-0,159580	22,270000	51,370000
1,906105	-208,091121	1209,972	-0,163063	22,270000	51,360000
1,894070	-215,042765	1211,775	-0,165997	22,260000	51,370000
1,882069	-223,883896	1213,578	-0,169728	22,260000	51,370000
1,870076	-230,428253	1215,383	-0,172489	22,270000	51,400000
1,858111	-238,893337	1217,189	-0,176062	22,270000	51,400000
1,846059	-246,371445	1218,996	-0,179217	22,260000	51,385000
1,834102	-254,585447	1220,802	-0,182684	22,260000	51,370000
1,822119	-261,262867	1222,602	-0,185501	22,260000	51,370000
1,810145	-269,767291	1224,404	-0,189090	22,270000	51,425000
1,798101	-276,672653	1226,210	-0,192004	22,280000	51,385000
1,786081	-285,395762	1228,014	-0,195686	22,270000	51,400000
1,774097	-292,975692	1229,822	-0,198884	22,260000	51,370000
1,762150	-300,593806	1231,626	-0,202099	22,270000	51,400000
1,750099	-308,416719	1233,430	-0,205400	22,260000	51,400000
1,738106	-316,959327	1235,233	-0,209005	22,280000	51,370000
1,726138	-323,888987	1237,036	-0,211930	22,260000	51,400000
1,714101	-331,444618	1238,839	-0,215118	22,270000	51,370000
1,702096	-338,231959	1240,642	-0,217982	22,270000	51,385000
1,690144	-345,286582	1242,444	-0,220959	22,270000	51,385000
1,678112	-352,183844	1244,247	-0,223870	22,270000	51,385000
1,666110	-360,366604	1246,050	-0,227323	22,270000	51,360000
1,654132	-368,298282	1247,855	-0,230670	22,270000	51,360000
1,642112	-375,838872	1249,657	-0,233853	22,270000	51,400000
[...]
3,385518	846,211076	833,395	0,281625	22,260000	51,305000
3,397565	854,840464	835,195	0,285266	22,270000	51,265000
3,409522	863,673495	836,999	0,288994	22,270000	51,265000
3,421548	872,875629	838,803	0,292877	22,270000	51,305000
3,433469	881,999084	840,609	0,296727	22,260000	51,265000
3,445429	890,165645	842,412	0,300173	22,260000	51,305000
3,457477	899,932427	844,216	0,304295	22,270000	51,255000
3,469495	908,177670	846,021	0,307774	22,260000	51,240000
3,481498	917,787091	847,821	0,311830	22,260000	51,240000
3,493465	925,710669	849,623	0,315173	22,260000	51,280000
3,494517	926,605080	851,428	0,315551	22,260000	51,280000
3,494540	926,362096	853,230	0,315448	22,260000	51,265000
3,494570	926,025391	855,033	0,315306	22,260000	51,265000
3,494531	925,820590	856,838	0,315220	22,280000	51,265000
3,494528	925,577607	858,640	0,315117	22,270000	51,305000
3,490460	922,873547	860,441	0,313976	22,270000	51,265000
3,478513	913,428429	862,242	0,309990	22,270000	51,265000
3,466512	904,015708	864,044	0,306018	22,270000	51,265000
3,454483	893,654195	865,848	0,301646	22,260000	51,280000
3,442560	885,039849	867,650	0,298010	22,260000	51,280000
3,430522	874,991901	869,453	0,293770	22,270000	51,265000
3,418533	866,377555	871,254	0,290135	22,260000	51,280000
3,406485	856,541349	873,055	0,285984	22,260000	51,280000
3,394522	847,316073	874,857	0,282091	22,270000	51,265000
3,382511	838,051457	876,658	0,278181	22,260000	51,280000
3,370494	828,982385	878,460	0,274354	22,260000	51,280000
3,358551	819,788350	880,265	0,270474	22,270000	51,265000
3,346548	811,567406	882,068	0,267005	22,260000	51,320000
3,334513	801,432677	883,869	0,262728	22,260000	51,265000
3,322568	793,264959	885,673	0,259281	22,260000	51,265000
3,310574	783,545616	887,476	0,255180	22,270000	51,280000
3,298533	774,477701	889,279	0,251353	22,270000	51,280000
3,286546	765,534749	891,087	0,247579	22,270000	51,295000
3,274537	757,115947	892,892	0,244026	22,270000	51,295000
3,262533	747,852488	894,694	0,240117	22,260000	51,305000
3,250557	738,430511	896,499	0,236141	22,260000	51,305000
3,238564	730,106589	898,304	0,232628	22,260000	51,280000
3,226531	721,250417	900,110	0,228891	22,270000	51,295000
3,214585	711,820340	901,912	0,224912	22,270000	51,295000
3,202533	702,721184	903,718	0,221072	22,270000	51,295000
3,190609	693,996918	905,520	0,217390	22,270000	51,280000
3,178523	684,536758	907,325	0,213398	22,270000	51,280000
3,166527	675,296440	909,128	0,209499	22,270000	51,280000
3,165588	675,257100	910,811	0,209482	22,270000	51,265000
3,177535	684,403695	912,611	0,213342	22,260000	51,280000
3,189566	694,615947	914,415	0,217651	22,260000	51,305000
3,201563	703,591297	916,218	0,221439	22,270000	51,265000
3,213553	712,785332	918,023	0,225319	22,270000	51,295000
3,225510	722,127471	919,826	0,229261	22,270000	51,295000
3,237610	731,721851	921,632	0,233310	22,270000	51,280000
3,249546	741,173911	923,432	0,237299	22,270000	51,280000
3,261556	750,305465	925,233	0,241152	22,260000	51,295000
3,273512	758,974193	927,036	0,244811	22,270000	51,265000
3,285546	768,716677	928,842	0,248922	22,270000	51,265000
3,297497	777,715168	930,646	0,252719	22,270000	51,295000
3,309524	786,037933	932,448	0,256231	22,280000	51,320000
3,321524	794,997084	934,252	0,260012	22,280000	51,305000
3,333517	804,763866	936,055	0,264134	22,270000	51,280000
3,345536	813,902362	937,862	0,267990	22,270000	51,295000
3,357540	822,304965	939,666	0,271536	22,270000	51,295000
3,369534	831,154195	941,469	0,275271	22,270000	51,265000
3,381486	839,995325	943,272	0,279001	22,270000	51,265000
3,393529	849,855830	945,077	0,283163	22,270000	51,295000
3,405512	858,312815	946,880	0,286731	22,270000	51,280000
3,417510	867,835456	948,682	0,290750	22,270000	51,280000
3,429570	876,018217	950,486	0,294203	22,270000	51,265000
3,441525	885,299032	952,288	0,298120	22,260000	51,265000
3,453470	894,014042	954,094	0,301797	22,260000	51,265000
3,465475	903,529741	955,898	0,305813	22,260000	51,255000
3,477467	912,613855	957,702	0,309646	22,260000	51,255000
3,489469	921,408703	959,505	0,313358	22,260000	51,255000
3,501466	930,461576	961,307	0,317178	22,270000	51,280000
3,513481	939,631313	963,111	0,321048	22,270000	51,295000
3,525462	947,994576	964,912	0,324577	22,270000	51,265000
3,537433	957,384155	966,714	0,328540	22,270000	51,265000
3,549479	966,194044	968,516	0,332257	22,270000	51,265000
3,561456	975,043274	970,320	0,335992	22,260000	51,305000
3,573433	983,759442	972,125	0,339670	22,260000	51,305000
3,585465	992,318248	973,928	0,343282	22,270000	51,280000
3,597428	1002,045690	975,733	0,347387	22,270000	51,280000
3,609434	1010,878721	977,537	0,351114	22,270000	51,280000
3,621446	1018,795357	979,343	0,354455	22,260000	51,255000
3,633423	1028,012533	981,146	0,358345	22,260000	51,280000
3,645527	1036,305215	982,949	0,361844	22,270000	51,265000
3,657458	1046,400604	984,750	0,366104	22,270000	51,255000
3,661457	1048,782999	986,552	0,367110	22,270000	51,255000
3,661474	1048,641838	988,355	0,367050	22,270000	51,280000
3,661452	1048,469435	990,156	0,366978	22,270000	51,265000
3,661440	1048,006609	991,960	0,366782	22,260000	51,280000
3,661492	1047,764783	993,764	0,366680	22,260000	51,280000
3,660515	1047,050874	995,566	0,366379	22,260000	51,295000
3,648456	1037,715677	997,369	0,362439	22,270000	51,265000
3,636499	1028,294857	999,175	0,358464	22,270000	51,280000
3,624427	1018,857838	1000,980	0,354481	22,280000	51,295000
3,612481	1009,443961	1002,782	0,350509	22,260000	51,255000
3,600481	999,678336	1004,584	0,346388	22,270000	51,295000
3,588508	990,193878	1006,386	0,342385	22,270000	51,295000
3,576468	980,788100	1008,188	0,338416	22,260000	51,280000
3,564499	972,025650	1009,992	0,334718	22,270000	51,320000
3,552424	963,138237	1011,794	0,330968	22,270000	51,320000
3,540509	953,661878	1013,595	0,326969	22,270000	51,280000
3,528472	944,397262	1015,397	0,323059	22,270000	51,295000
3,516467	935,148845	1017,198	0,319156	22,270000	51,295000
3,504466	925,515125	1019,000	0,315091	22,270000	51,295000
3,492413	917,630887	1020,802	0,311764	22,260000	51,265000
3,480496	907,299458	1022,606	0,307404	22,270000	51,295000
3,468505	898,826274	1024,409	0,303828	22,260000	51,265000
3,456486	889,774558	1026,211	0,300008	22,260000	51,295000
3,444457	880,023974	1028,018	0,295894	22,270000	51,265000
3,432462	871,582031	1029,820	0,292331	22,270000	51,265000
3,420583	862,474776	1031,626	0,288488	22,270000	51,280000
3,408527	853,085197	1033,428	0,284525	22,270000	51,265000
3,396511	844,901279	1035,231	0,281072	22,280000	51,305000
3,384543	835,033833	1037,034	0,276908	22,270000	51,305000
3,372531	826,670570	1038,841	0,273378	22,270000	51,280000
3,360522	817,696377	1040,645	0,269591	22,270000	51,265000
3,348525	808,847147	1042,450	0,265857	22,270000	51,265000
3,336499	800,099739	1044,252	0,262166	22,260000	51,280000
3,324530	790,294774	1046,054	0,258028	22,260000	51,280000
3,312545	781,632988	1047,860	0,254373	22,260000	51,280000
3,300522	773,082281	1049,661	0,250764	22,270000	51,320000
3,288518	763,574682	1051,466	0,246752	22,270000	51,295000
3,276514	754,295024	1053,271	0,242836	22,270000	51,280000
3,264552	746,448969	1055,073	0,239525	22,270000	51,280000
3,252515	737,443535	1056,877	0,235725	22,270000	51,280000
3,240551	727,566832	1058,680	0,231557	22,270000	51,280000
3,228473	718,851822	1060,483	0,227879	22,260000	51,265000
3,216539	710,707244	1062,286	0,224442	22,260000	51,265000
3,204583	701,654371	1064,090	0,220622	22,270000	51,295000
3,192520	692,515875	1065,896	0,216765	22,270000	51,295000
3,180572	683,612263	1067,698	0,213008	22,270000	51,295000
3,168561	674,198386	1069,500	0,209035	22,270000	51,295000
3,156557	665,953144	1071,300	0,205556	22,270000	51,295000
3,144579	657,072673	1073,105	0,201808	22,280000	51,305000
3,132538	648,208401	1074,911	0,198067	22,270000	51,295000
3,120526	638,559640	1076,715	0,193996	22,270000	51,295000
3,108475	630,047116	1078,520	0,190403	22,270000	51,265000
3,096579	621,440869	1080,322	0,186771	22,270000	51,280000
3,084588	611,910128	1082,126	0,182750	22,270000	51,280000
3,072585	603,249500	1083,930	0,179095	22,270000	51,265000
3,060482	594,728877	1085,733	0,175499	22,270000	51,265000
3,048591	586,013866	1087,534	0,171821	22,270000	51,265000
3,036609	577,352081	1089,335	0,168166	22,270000	51,265000
3,024580	568,394087	1091,140	0,164386	22,270000	51,265000
3,012550	559,050791	1092,942	0,160443	22,270000	51,265000
3,000572	550,225859	1094,744	0,156719	22,270000	51,255000
2,988611	542,183103	1096,550	0,153325	22,270000	51,265000
2,976566	532,558640	1098,353	0,149263	22,270000	51,265000
2,964567	523,881813	1100,155	0,145602	22,270000	51,280000
2,952561	515,792774	1101,957	0,142188	22,260000	51,295000
2,940618	506,826681	1103,760	0,138404	22,260000	51,295000
2,928593	498,627721	1105,564	0,134944	22,270000	51,280000
2,916571	489,441786	1107,368	0,131068	22,270000	51,265000
2,904571	479,989725	1109,173	0,127079	22,270000	51,265000
2,892615	471,774567	1110,974	0,123612	22,270000	51,305000
2,880584	463,380063	1112,776	0,120070	22,270000	51,305000
2,868570	454,295949	1114,576	0,116236	22,260000	51,240000
2,856604	445,203736	1116,380	0,112399	22,260000	51,280000
2,844606	437,280158	1118,183	0,109056	22,260000	51,280000
2,832615	428,729451	1119,984	0,105447	22,270000	51,265000
2,820590	419,880221	1121,786	0,101713	22,270000	51,265000
2,808622	411,187195	1123,588	0,098044	22,260000	51,280000
2,796586	402,432844	1125,391	0,094350	22,270000	51,280000
2,784552	393,841640	1127,194	0,090725	22,270000	51,265000
2,772594	385,345314	1128,999	0,087139	22,270000	51,265000
2,760615	376,630304	1130,803	0,083461	22,280000	51,265000
2,748657	367,561232	1132,605	0,079634	22,250000	51,260000
2,736631	359,574015	1134,411	0,076264	22,250000	51,260000
2,724620	351,007109	1136,215	0,072648	22,270000	51,295000
2,712605	341,789933	1138,020	0,068759	22,270000	51,305000
2,700632	333,544690	1139,823	0,065279	22,270000	51,305000
2,688646	324,891005	1141,627	0,061627	22,260000	51,305000
2,676598	315,603247	1143,430	0,057708	22,260000	51,305000
2,664665	307,522308	1145,233	0,054298	22,270000	51,295000
2,652630	298,563157	1147,035	0,050517	22,260000	51,280000
2,640635	289,354080	1148,838	0,046631	22,260000	51,280000
2,628567	281,570507	1150,642	0,043346	22,270000	51,265000
2,616606	271,828023	1152,446	0,039235	22,270000	51,265000
2,604611	263,848906	1154,251	0,035868	22,280000	51,240000
2,592592	255,580522	1156,055	0,032378	22,260000	51,305000
2,580574	246,542691	1157,860	0,028564	22,260000	51,305000
2,568650	237,882063	1159,663	0,024910	22,260000	51,305000
2,556634	229,824265	1161,468	0,021509	22,270000	51,265000
2,544635	220,779491	1163,270	0,017692	22,270000	51,295000
2,532695	212,941536	1165,075	0,014385	22,270000	51,295000
2,520689	203,865521	1166,880	0,010555	22,270000	51,255000
2,508621	196,019466	1168,683	0,007244	22,280000	51,295000
2,496585	187,045274	1170,483	0,003457	22,280000	51,295000
2,484600	178,345305	1172,284	-0,000215	22,260000	51,255000
2,472670	169,895263	1174,088	-0,003781	22,270000	51,280000
2,460616	161,383896	1175,890	-0,007373	22,270000	51,280000
2,448614	153,529741	1177,691	-0,010687	22,270000	51,280000
2,436680	144,069581	1179,496	-0,014679	22,270000	51,280000
2,424648	135,768800	1181,299	-0,018182	22,270000	51,295000
2,412622	127,719102	1183,102	-0,021579	22,250000	51,250000
2,400640	118,807390	1184,904	-0,025340	22,250000	51,250000
2,388626	110,068082	1186,706	-0,029028	22,260000	51,295000
2,376625	101,704819	1188,510	-0,032557	22,280000	51,295000
2,364665	94,242910	1190,312	-0,035706	22,270000	51,255000
2,352653	85,895846	1192,113	-0,039229	22,260000	51,295000
2,340656	77,187778	1193,916	-0,042903	22,270000	51,280000
2,328626	68,738892	1195,720	-0,046469	22,270000	51,280000
2,316610	61,104580	1197,523	-0,049690	22,270000	51,280000
2,304663	52,826940	1199,325	-0,053184	22,260000	51,305000
2,292664	43,210576	1201,130	-0,057242	22,270000	51,265000
2,280576	35,764866	1202,932	-0,060384	22,260000	51,255000
2,268623	27,682770	1204,733	-0,063794	22,260000	51,280000
2,256595	19,429428	1206,536	-0,067277	22,260000	51,280000
2,244653	11,090464	1208,337	-0,070796	22,270000	51,295000
2,232695	3,502434	1210,143	-0,073999	22,270000	51,305000
2,220676	-5,478701	1211,947	-0,077789	22,270000	51,265000
2,208669	-12,846888	1213,752	-0,080898	22,270000	51,265000
2,196596	-21,249491	1215,553	-0,084444	22,270000	51,265000
2,184642	-29,126787	1217,355	-0,087768	22,260000	51,280000
2,172609	-37,654352	1219,159	-0,091367	22,260000	51,280000
2,160668	-45,186843	1220,962	-0,094545	22,260000	51,265000
2,148672	-53,141662	1222,764	-0,097902	22,270000	51,255000
2,136657	-61,458642	1224,565	-0,101412	22,280000	51,255000
2,124695	-69,820748	1226,369	-0,104941	22,270000	51,280000
2,112692	-77,745483	1228,174	-0,108285	22,280000	51,295000
2,100620	-85,434177	1229,977	-0,111530	22,270000	51,265000
2,088644	-92,950468	1231,782	-0,114702	22,270000	51,265000
2,076586	-100,773382	1233,585	-0,118003	22,270000	51,265000
2,064591	-108,337113	1235,389	-0,121195	22,270000	51,255000
2,052634	-116,841538	1237,193	-0,124784	22,270000	51,280000
2,040659	-123,761941	1238,998	-0,127704	22,260000	51,280000
2,028699	-132,501250	1240,798	-0,131392	22,280000	51,280000
2,016645	-140,355404	1242,601	-0,134707	22,280000	51,280000
2,004683	-148,224600	1244,406	-0,138027	22,270000	51,280000
1,992664	-157,042589	1246,207	-0,141749	22,270000	51,280000
1,980646	-164,637561	1248,013	-0,144954	22,270000	51,265000
1,968615	-172,263774	1249,815	-0,148172	22,270000	51,265000
1,956590	-180,328514	1251,616	-0,151575	22,260000	51,265000
1,944666	-189,131461	1253,419	-0,155290	22,270000	51,305000
1,932654	-196,490392	1255,224	-0,158396	22,270000	51,305000
1,920704	-203,536915	1257,026	-0,161369	22,270000	51,265000
1,908674	-212,143161	1258,830	-0,165001	22,260000	51,280000
1,896658	-218,954800	1260,631	-0,167875	22,260000	51,280000
1,884624	-227,316906	1262,432	-0,171404	22,260000	51,280000
1,872670	-235,179160	1264,236	-0,174722	22,260000	51,255000
1,860660	-242,641069	1266,039	-0,177871	22,270000	51,255000
1,848689	-250,408444	1267,842	-0,181149	22,270000	51,255000
1,836674	-257,964075	1269,644	-0,184337	22,270000	51,255000
1,824661	-265,747649	1271,446	-0,187622	22,270000	51,265000
1,812662	-273,515023	1273,250	-0,190900	22,270000	51,265000
1,800670	-283,021466	1275,052	-0,194912	22,260000	51,295000
1,788685	-290,412794	1276,855	-0,198031	22,270000	51,265000
1,776685	-298,180169	1278,658	-0,201309	22,260000	51,295000
1,764651	-306,637154	1280,461	-0,204877	22,270000	51,265000
1,752685	-314,389486	1282,265	-0,208149	22,270000	51,265000
1,740686	-320,746399	1284,069	-0,210832	22,280000	51,265000
1,728621	-328,921060	1285,872	-0,214281	22,280000	51,265000
1,716664	-336,030065	1287,676	-0,217281	22,270000	51,255000
1,704681	-343,296431	1289,480	-0,220348	22,270000	51,280000
1,692675	-351,572914	1291,283	-0,223840	22,270000	51,280000
1,680634	-358,571997	1293,087	-0,226794	22,270000	51,295000
1,668668	-366,347471	1294,893	-0,230075	22,260000	51,265000
1,656687	-373,299115	1296,696	-0,233009	22,270000	51,255000
1,644637	-380,197534	1298,500	-0,235920	22,270000	51,255000
1,632668	-388,215992	1300,303	-0,239304	22,270000	51,295000
1,620670	-395,190777	1302,107	-0,242247	22,260000	51,240000
1,608662	-402,417802	1303,910	-0,245297	22,270000	51,280000
1,596627	-410,145836	1305,713	-0,248558	22,270000	51,280000
1,584662	-416,988716	1307,515	-0,251446	22,270000	51,280000
1,572734	-425,124037	1309,317	-0,254879	22,270000	51,280000
1,560711	-431,520290	1311,122	-0,257578	22,260000	51,295000
1,548671	-438,268291	1312,925	-0,260426	22,270000	51,280000
1,536680	-444,280398	1314,725	-0,262963	22,270000	51,280000
1,524656	-452,346296	1316,526	-0,266367	22,260000	51,255000
1,512660	-459,855645	1318,330	-0,269536	22,260000	51,255000
1,500701	-468,061547	1320,134	-0,272999	22,260000	51,255000
1,488669	-475,389237	1321,935	-0,276091	22,270000	51,295000
1,476710	-482,475100	1323,739	-0,279081	22,270000	51,295000
1,464695	-488,933834	1325,543	-0,281807	22,270000	51,265000
1,452623	-495,987300	1327,346	-0,284783	22,270000	51,280000
1,440692	-503,731533	1329,147	-0,288051	22,270000	51,295000
1,428700	-511,388987	1330,951	-0,291283	22,270000	51,295000
1,416682	-517,949543	1332,753	-0,294051	22,270000	51,255000
1,404704	-524,518198	1334,554	-0,296823	22,270000	51,280000
1,392662	-530,521049	1336,359	-0,299356	22,270000	51,280000
1,380652	-536,807381	1338,164	-0,302009	22,270000	51,295000
1,368715	-544,810797	1339,965	-0,305387	22,270000	51,295000
1,356677	-550,790507	1341,769	-0,307910	22,270000	51,295000
1,344691	-557,695868	1343,572	-0,310824	22,270000	51,295000
1,332729	-563,119030	1345,373	-0,313113	22,270000	51,265000
1,320675	-570,079930	1347,178	-0,316050	22,280000	51,265000
1,308690	-577,369437	1348,980	-0,319126	22,270000	51,305000
1,296728	-582,933760	1350,782	-0,321475	22,260000	51,305000
1,284686	-589,251333	1352,586	-0,324141	22,270000	51,295000
1,272709	-595,051698	1354,388	-0,326588	22,260000	51,255000
1,260698	-601,157527	1356,189	-0,329165	22,260000	51,255000
1,248675	-607,498241	1357,992	-0,331841	22,270000	51,280000
1,236726	-612,287332	1359,794	-0,333862	22,270000	51,280000
1,224719	-619,545598	1361,597	-0,336925	22,270000	51,280000
1,212759	-626,364179	1363,398	-0,339802	22,270000	51,305000
1,200693	-632,407527	1365,200	-0,342353	22,270000	51,305000
1,188693	-637,761265	1367,001	-0,344612	22,270000	51,255000
1,176694	-641,397919	1368,805	-0,346146	22,270000	51,255000
1,164669	-646,311972	1370,610	-0,348220	22,270000	51,295000
1,152684	-650,670635	1372,414	-0,350060	22,260000	51,280000
1,140685	-656,461743	1374,218	-0,352503	22,260000	51,280000
1,128684	-661,556298	1376,023	-0,354653	22,270000	51,265000
1,116691	-666,667052	1377,827	-0,356810	22,270000	51,265000
1,104627	-672,483616	1379,633	-0,359265	22,280000	51,265000
1,092725	-678,345305	1381,437	-0,361738	22,270000	51,265000
1,080680	-683,996408	1383,241	-0,364123	22,280000	51,280000
1,068691	-690,055956	1385,044	-0,366680	22,260000	51,265000
1,056702	-695,981283	1386,847	-0,369181	22,260000	51,265000
1,044691	-701,044598	1388,651	-0,371317	22,260000	51,280000
1,032664	-706,546440	1390,456	-0,373639	22,260000	51,265000
1,020729	-706,405278	1392,260	-0,373580	22,270000	51,240000
1,008695	-710,496658	1394,060	-0,375306	22,280000	51,295000
0,996708	-713,443702	1395,864	-0,376550	22,280000	51,295000
0,984691	-715,709234	1397,666	-0,377506	22,280000	51,295000
0,972686	-716,078338	1399,469	-0,377662	22,270000	51,295000
0,960749	-718,436436	1401,273	-0,378657	22,270000	51,265000
0,948747	-720,749408	1403,080	-0,379633	22,270000	51,265000
0,936724	-719,824913	1404,881	-0,379243	22,270000	51,280000
0,924684	-719,518291	1406,685	-0,379113	22,270000	51,280000
0,912700	-714,118271	1408,487	-0,376834	22,270000	51,265000
0,900723	-699,987041	1410,290	-0,370871	22,270000	51,265000
0,888678	-677,076005	1412,090	-0,361203	22,260000	51,295000
0,876677	-621,238383	1413,893	-0,337639	22,260000	51,295000
0,864723	0,000000	1415,696	-0,075477	22,270000	51,295000
0,852701	0,164303	1417,502	-0,075407	22,270000	51,280000
0,840732	-0,118021	1419,305	-0,075526	22,270000	51,295000
0,828688	-0,031241	1421,109	-0,075490	22,270000	51,265000
0,816616	0,046283	1422,913	-0,075457	22,280000	51,265000
0,804693	0,195544	1424,714	-0,075394	22,270000	51,265000
0,792666	0,031241	1426,516	-0,075463	22,270000	51,265000
0,780696	0,069424	1428,320	-0,075447	22,270000	51,255000
0,768734	0,234884	1430,124	-0,075377	22,270000	51,255000
0,756727	0,164303	1431,928	-0,075407	22,270000	51,295000
0,744674	0,336706	1433,732	-0,075334	22,270000	51,295000
0,732654	0,116864	1435,537	-0,075427	22,270000	51,295000
0,720667	0,023141	1437,341	-0,075467	22,270000	51,305000
0,708703	0,148104	1439,144	-0,075414	22,270000	51,280000
0,696710	0,226785	1440,947	-0,075381	22,280000	51,265000
0,684700	0,148104	1442,749	-0,075414	22,280000	51,265000
0,672690	0,305465	1444,552	-0,075348	22,270000	51,255000
0,660682	0,218685	1446,354	-0,075384	22,270000	51,255000
0,658660	0,226785	1446,655	-0,075381	22,270000	51,255000