File: Nanoindentation Datenauswertung/data/PDMS/14.09/APM-PDMS-150ms,3um,20nms,9cycles,1,5um offset,25%,9x1-6
Quasi static measurement routine
Tip parameters (shape,radius, material...)
14.09.2022

Piezo position[nm]	MEMS displ.[nm]	Time[ms]	Cap [pf]	Temp [°C]	Rh [%]
eoh

X-Pos [um]	Y-Pos [um]
0,000018	0,000753

POC
1,825984
0,344165	-0,321664	1,956	-0,075788	22,270000	51,475000
0,365129	-0,134219	3,008	-0,075708	22,270000	51,475000
0,386122	-0,070581	4,061	-0,075682	22,270000	51,465000
0,407173	-0,165460	5,113	-0,075722	22,270000	51,465000
0,428175	-0,016199	6,164	-0,075659	22,280000	51,515000
0,449160	-0,024298	7,216	-0,075662	22,280000	51,515000
0,470147	-0,290423	8,268	-0,075774	22,280000	51,515000
0,491146	0,203643	9,319	-0,075566	22,280000	51,530000
0,512183	0,015042	10,370	-0,075646	22,280000	51,530000
0,533195	-0,173560	11,423	-0,075725	22,270000	51,490000
0,554126	-0,180502	12,475	-0,075728	22,270000	51,490000
0,575136	-0,118021	13,525	-0,075702	22,270000	52,490000
0,596121	-0,086780	14,575	-0,075688	22,270000	52,490000
0,617142	0,000000	15,626	-0,075652	22,270000	51,515000
0,638144	-0,086780	16,676	-0,075688	22,270000	51,515000
0,659125	-0,180502	17,728	-0,075728	22,260000	51,515000
0,680081	-0,196701	18,780	-0,075735	22,260000	51,515000
0,701128	-0,142319	19,830	-0,075712	22,270000	51,490000
0,722137	-0,337863	20,881	-0,075794	22,270000	51,490000
0,743198	-0,173560	21,934	-0,075725	22,280000	51,490000
0,764111	-0,196701	22,984	-0,075735	22,280000	51,490000
0,785154	-0,227942	24,035	-0,075748	22,280000	51,490000
0,806185	-0,094879	25,088	-0,075692	22,280000	51,490000
0,827121	-0,298523	26,139	-0,075778	22,250000	51,500000
0,848193	-0,236041	27,192	-0,075751	22,250000	51,500000
0,869125	-0,306622	28,244	-0,075781	22,250000	51,500000
0,890122	-0,219842	29,295	-0,075745	22,250000	51,500000
0,911101	-0,188602	30,345	-0,075731	22,270000	51,490000
0,932179	-0,188602	31,396	-0,075731	22,270000	51,490000
0,953115	-0,485967	32,448	-0,075857	22,270000	51,490000
0,974133	-0,290423	33,502	-0,075774	22,270000	51,515000
0,995129	-0,211743	34,554	-0,075741	22,270000	51,515000
1,016132	-0,180502	35,604	-0,075728	22,270000	51,515000
1,037073	-0,385303	36,659	-0,075814	22,270000	51,515000
1,058101	-0,149261	37,711	-0,075715	22,270000	51,465000
1,079161	-0,267282	38,762	-0,075765	22,270000	51,465000
1,100113	-0,008099	39,814	-0,075655	22,270000	51,490000
1,121141	-0,337863	40,866	-0,075794	22,270000	51,490000
1,142092	-0,369104	41,920	-0,075808	22,270000	51,490000
1,163066	-0,400344	42,970	-0,075821	22,270000	51,490000
1,184168	-0,196701	44,022	-0,075735	22,280000	51,505000
1,205096	-0,510265	45,076	-0,075867	22,280000	51,505000
1,226192	-0,470925	46,128	-0,075851	22,270000	51,475000
1,247102	-0,337863	47,179	-0,075794	22,270000	51,475000
1,268085	-0,126120	48,232	-0,075705	22,270000	51,475000
1,289116	-0,518365	49,284	-0,075871	22,270000	51,475000
1,310078	-0,142319	50,336	-0,075712	22,280000	51,505000
1,331123	-0,439685	51,386	-0,075837	22,280000	51,475000
1,352048	-0,282324	52,438	-0,075771	22,280000	51,475000
1,373068	-0,830772	53,488	-0,076002	22,280000	51,490000
1,394030	-0,479025	54,538	-0,075854	22,280000	51,490000
1,415126	-0,345962	55,590	-0,075798	22,280000	51,490000
1,436142	-0,658370	56,641	-0,075930	22,280000	51,490000
1,457181	-0,290423	57,694	-0,075774	22,270000	51,505000
1,478071	-0,603988	58,745	-0,075907	22,270000	51,505000
1,499014	-0,423486	59,797	-0,075831	22,270000	51,505000
1,520082	-0,541506	60,848	-0,075880	22,270000	51,505000
1,541012	-0,415386	61,899	-0,075827	22,280000	51,515000
1,562067	-0,423486	62,951	-0,075831	22,280000	51,515000
1,583111	-0,580846	64,003	-0,075897	22,280000	51,515000
1,604121	-0,321664	65,056	-0,075788	22,280000	51,515000
1,625068	-0,525307	66,106	-0,075874	22,260000	51,515000
1,646133	-0,619030	67,158	-0,075913	22,260000	51,515000
1,667121	-0,830772	68,214	-0,076002	22,270000	51,475000
1,688110	-0,761348	69,265	-0,075973	22,270000	51,475000
1,709059	-0,870113	70,318	-0,076019	22,280000	51,515000
1,730067	-0,722008	71,371	-0,075957	22,280000	51,515000
1,751129	-5,133896	72,423	-0,077818	22,280000	51,515000
1,772091	-3,017624	73,474	-0,076925	22,280000	51,475000
1,793044	-1,254258	74,526	-0,076181	22,280000	51,475000
1,814120	1,418561	75,578	-0,075053	22,270000	51,505000
1,835101	4,168904	76,632	-0,073893	22,270000	51,505000
1,856063	-169,449793	77,686	-0,147160	22,270000	51,505000
1,877060	-169,472934	78,736	-0,147169	22,270000	51,505000
1,898143	-157,983283	79,786	-0,142321	22,270000	51,515000
1,919122	-146,131470	80,839	-0,137319	22,270000	51,515000
1,940039	-134,492558	81,890	-0,132408	22,280000	51,505000
1,961021	-121,175902	82,943	-0,126788	22,280000	51,505000
1,982105	-109,983616	83,995	-0,122065	22,270000	51,505000
1,994099	-101,847138	85,048	-0,118631	22,270000	51,505000
1,994076	-102,717250	86,101	-0,118999	22,270000	51,505000
1,994096	-104,316314	87,152	-0,119673	22,270000	51,505000
1,994023	-105,327588	88,204	-0,120100	22,270000	51,515000
1,994037	-105,946618	89,258	-0,120361	22,270000	51,515000
1,994042	-106,573747	90,310	-0,120626	22,270000	51,515000
1,994088	-107,028473	91,363	-0,120818	22,270000	51,490000
1,994018	-107,560723	92,413	-0,121042	22,270000	51,490000
1,994038	-107,616262	93,464	-0,121066	22,270000	51,490000
1,994102	-108,243391	94,514	-0,121331	22,270000	51,490000
1,976009	-119,678660	95,565	-0,126156	22,280000	51,515000
1,955038	-137,400261	96,616	-0,133635	22,280000	51,515000
1,934058	-151,046681	97,666	-0,139394	22,280000	51,490000
1,913074	-166,926235	98,720	-0,146095	22,280000	51,490000
1,892080	-181,355987	99,771	-0,152184	22,270000	51,490000
1,871087	-196,741475	100,823	-0,158677	22,270000	51,490000
1,883070	-191,137811	101,756	-0,156312	22,270000	51,490000
1,904086	-174,818572	102,808	-0,149425	22,270000	51,490000
1,925080	-156,619104	103,860	-0,141745	22,280000	51,475000
1,946104	-141,813305	104,910	-0,135497	22,280000	51,475000
1,967102	-126,364179	105,965	-0,128978	22,280000	51,475000
1,988108	-112,232949	107,017	-0,123014	22,280000	51,475000
2,009103	-98,633970	108,070	-0,117275	22,280000	51,465000
2,030023	-81,656361	109,121	-0,110111	22,280000	51,465000
2,051053	-69,648345	110,174	-0,105043	22,260000	51,475000
2,072070	-55,023049	111,225	-0,098872	22,260000	51,475000
2,093062	-38,603145	112,275	-0,091942	22,280000	51,475000
2,114128	-24,620020	113,328	-0,086042	22,280000	51,475000
2,135068	-9,735541	114,380	-0,079760	22,280000	51,475000
2,156110	1,857089	115,432	-0,074868	22,280000	51,475000
2,162080	6,982885	116,485	-0,072705	22,280000	51,475000
2,162047	5,799208	117,539	-0,073205	22,280000	51,475000
2,162018	5,086456	118,594	-0,073505	22,280000	51,475000
2,162042	4,436186	119,645	-0,073780	22,270000	51,490000
2,162052	3,996501	120,698	-0,073965	22,270000	51,490000
2,162050	3,534832	121,749	-0,074160	22,270000	51,475000
2,162056	3,055808	122,800	-0,074362	22,270000	51,475000
2,162051	2,727201	123,851	-0,074501	22,270000	51,515000
2,162054	2,515458	124,902	-0,074590	22,270000	51,515000
2,159101	-0,462826	125,953	-0,075847	22,280000	51,490000
2,137997	-14,327931	127,006	-0,081698	22,280000	51,490000
2,117034	-30,624028	128,057	-0,088575	22,270000	51,475000
2,096088	-48,039007	129,108	-0,095924	22,270000	51,475000
2,075078	-61,010858	130,158	-0,101398	22,270000	51,475000
2,054009	-78,717417	131,208	-0,108871	22,270000	51,475000
2,033061	-91,807289	132,261	-0,114395	22,270000	51,530000
2,012069	-108,721259	133,312	-0,121532	22,270000	51,530000
1,991084	-123,911202	134,364	-0,127942	22,280000	51,490000
1,970044	-137,541423	135,415	-0,133694	22,270000	51,505000
1,949079	-152,974350	136,465	-0,140207	22,270000	51,505000
1,928020	-165,828181	137,518	-0,145631	22,270000	51,505000
1,910082	-179,991808	138,568	-0,151608	22,270000	51,505000
1,931142	-165,263533	139,500	-0,145393	22,270000	51,475000
1,952056	-147,487550	140,550	-0,137892	22,270000	51,475000
1,973097	-130,519198	141,603	-0,130731	22,270000	51,475000
1,994081	-115,219333	142,654	-0,124274	22,270000	51,475000
2,015074	-99,259941	143,707	-0,117540	22,260000	51,515000
2,036052	-87,072580	144,759	-0,112396	22,260000	51,515000
2,057049	-70,816980	145,812	-0,105537	22,270000	51,490000
2,078097	-54,082355	146,864	-0,098475	22,270000	51,490000
2,099083	-39,566980	147,914	-0,092349	22,270000	51,505000
2,120062	-26,570831	148,965	-0,086865	22,270000	51,505000
2,141039	-11,749991	150,016	-0,080610	22,270000	51,505000
2,162186	3,244409	151,068	-0,074283	22,270000	51,505000
2,183061	19,734893	152,119	-0,067324	22,280000	51,475000
2,204047	32,190693	153,172	-0,062067	22,280000	51,475000
2,225063	46,517467	154,224	-0,056021	22,270000	51,505000
2,246083	60,876638	155,276	-0,049962	22,270000	51,505000
2,266998	77,611263	156,329	-0,042900	22,260000	51,475000
2,288048	89,383238	157,382	-0,037932	22,280000	51,450000
2,309032	105,929262	158,434	-0,030950	22,280000	51,450000
2,330055	120,460836	159,488	-0,024817	22,280000	51,450000
2,330076	118,306381	160,539	-0,025727	22,280000	51,450000
2,330101	117,679252	161,591	-0,025991	22,270000	51,505000
2,330066	116,784842	162,642	-0,026369	22,270000	51,505000
2,330029	115,907787	163,694	-0,026739	22,270000	51,490000
2,330025	115,484301	164,747	-0,026917	22,270000	51,490000
2,330035	115,037674	165,800	-0,027106	22,270000	51,515000
2,330060	114,410545	166,852	-0,027371	22,270000	51,515000
2,330062	113,995159	167,904	-0,027546	22,270000	51,505000
2,330022	113,877138	168,956	-0,027596	22,270000	51,505000
2,321095	108,813824	170,006	-0,029732	22,260000	51,465000
2,300058	92,636904	171,058	-0,036559	22,260000	51,465000
2,279112	74,946544	172,110	-0,044024	22,270000	51,465000
2,258037	58,463002	173,161	-0,050980	22,270000	51,465000
2,237057	44,378055	174,211	-0,056924	22,270000	51,465000
2,216041	29,995742	175,263	-0,062994	22,270000	51,465000
2,195050	12,548365	176,315	-0,070356	22,280000	51,490000
2,174067	-0,446627	177,366	-0,075840	22,280000	51,450000
2,153027	-18,271207	178,419	-0,083362	22,280000	51,450000
2,132062	-30,584688	179,473	-0,088559	22,280000	51,450000
2,111009	-45,398586	180,525	-0,094810	22,280000	51,450000
2,090006	-60,815314	181,578	-0,101316	22,280000	51,505000
2,068997	-75,151344	182,629	-0,107366	22,280000	51,505000
2,048078	-89,697960	183,682	-0,113504	22,270000	51,515000
2,027034	-105,915377	184,734	-0,120348	22,270000	51,515000
2,006086	-118,933510	185,785	-0,125842	22,280000	51,475000
1,985018	-132,831013	186,837	-0,131707	22,280000	51,475000
1,964049	-147,323247	187,888	-0,137822	22,270000	51,490000
1,958062	-153,225433	188,822	-0,140313	22,270000	51,490000
1,979081	-137,384062	189,873	-0,133628	22,260000	51,490000
2,000012	-118,925411	190,924	-0,125838	22,260000	51,490000
2,021114	-105,421310	191,974	-0,120140	22,270000	51,475000
2,042052	-89,556798	193,026	-0,113445	22,270000	51,475000
2,063078	-74,288174	194,077	-0,107001	22,270000	51,490000
2,084028	-56,645253	195,130	-0,099556	22,270000	51,490000
2,105077	-43,602821	196,182	-0,094052	22,270000	51,475000
2,126014	-27,825089	197,234	-0,087394	22,270000	51,475000
2,147055	-11,021040	198,285	-0,080303	22,270000	51,465000
2,168087	1,277399	199,339	-0,075113	22,280000	51,530000
2,188994	17,352497	200,390	-0,068329	22,280000	51,530000
2,210026	31,288183	201,441	-0,062448	22,280000	51,530000
2,231025	45,985217	202,493	-0,056246	22,280000	51,530000
2,252048	62,985967	203,546	-0,049072	22,270000	51,505000
2,273076	75,314490	204,597	-0,043869	22,270000	51,505000
2,293997	89,901603	205,649	-0,037713	22,280000	51,490000
2,315115	104,581281	206,701	-0,031519	22,280000	51,490000
2,336086	121,943035	207,755	-0,024192	22,270000	51,490000
2,357020	134,483301	208,808	-0,018900	22,270000	51,490000
2,378050	148,325265	209,860	-0,013059	22,270000	51,490000
2,399017	163,209743	210,911	-0,006777	22,270000	51,490000
2,420075	179,324182	211,963	0,000023	22,270000	51,490000
2,441038	194,021216	213,013	0,006225	22,270000	51,490000
2,462036	206,796366	214,065	0,011616	22,270000	51,515000
2,483032	222,754600	215,116	0,018351	22,270000	51,515000
2,498030	232,214760	216,168	0,022343	22,270000	51,515000
2,498012	231,203486	217,218	0,021916	22,270000	51,515000
2,498008	230,208410	218,269	0,021496	22,280000	51,475000
2,497963	229,558140	219,324	0,021222	22,280000	51,475000
2,498055	228,696127	220,378	0,020858	22,270000	51,505000
2,498038	228,210160	221,430	0,020653	22,270000	51,505000
2,497999	227,716093	222,481	0,020444	22,270000	51,505000
2,498011	227,386330	223,534	0,020305	22,270000	51,475000
2,498026	227,026483	224,585	0,020153	22,270000	51,475000
2,498057	226,916562	225,637	0,020107	22,270000	51,475000
2,483020	217,103497	226,691	0,015966	22,270000	51,475000
2,462039	200,769217	227,742	0,009073	22,270000	51,505000
2,441062	183,024474	228,794	0,001584	22,270000	51,505000
2,420071	169,056391	229,845	-0,004310	22,260000	51,490000
2,399027	153,278658	230,895	-0,010968	22,260000	51,490000
2,378020	135,164812	231,947	-0,018612	22,270000	51,475000
2,357050	122,429003	232,999	-0,023987	22,270000	51,475000
2,335988	106,901196	234,051	-0,030540	22,270000	51,475000
2,315070	91,358348	235,103	-0,037099	22,270000	51,475000
2,294020	76,404445	236,153	-0,043409	22,270000	51,465000
2,272988	62,091556	237,203	-0,049449	22,270000	51,465000
2,252062	46,697969	238,256	-0,055945	22,270000	51,475000
2,230999	29,556057	239,309	-0,063179	22,270000	51,475000
2,210062	17,298115	240,361	-0,068352	22,270000	51,465000
2,188991	2,241234	241,414	-0,074706	22,270000	51,465000
2,168029	-14,493391	242,467	-0,081768	22,270000	51,465000
2,147067	-28,695201	243,518	-0,087761	22,270000	51,450000
2,126083	-41,314148	244,569	-0,093086	22,270000	51,450000
2,105038	-55,689518	245,623	-0,099153	22,280000	51,465000
2,084048	-72,329264	246,674	-0,106175	22,280000	51,465000
2,063046	-84,509682	247,727	-0,111315	22,280000	51,465000
2,042071	-100,013191	248,780	-0,117857	22,280000	51,465000
2,021022	-115,782824	249,832	-0,124512	22,270000	51,475000
2,000016	-127,680919	250,887	-0,129533	22,270000	51,475000
2,006042	-123,503916	251,826	-0,127771	22,270000	51,505000
2,027070	-109,136645	252,879	-0,121708	22,270000	51,505000
2,048033	-90,278806	253,933	-0,113750	22,270000	51,490000
2,069090	-76,867271	254,986	-0,108090	22,270000	51,490000
2,090061	-60,995816	256,038	-0,101392	22,270000	51,490000
2,110984	-42,944452	257,091	-0,093774	22,270000	51,490000
2,132075	-30,051281	258,142	-0,088333	22,270000	51,490000
2,153036	-14,963159	259,193	-0,081966	22,270000	51,490000
2,174092	0,822673	260,248	-0,075305	22,270000	51,505000
2,195057	15,887654	261,300	-0,068947	22,270000	51,505000
2,216047	30,701551	262,355	-0,062696	22,260000	51,475000
2,237087	47,983468	263,408	-0,055403	22,260000	51,475000
2,258061	60,774817	264,458	-0,050005	22,260000	51,475000
2,278986	77,399521	265,510	-0,042989	22,270000	51,490000
2,300025	90,998500	266,561	-0,037250	22,270000	51,490000
2,321045	105,287091	267,614	-0,031221	22,270000	51,475000
2,342070	121,253425	268,668	-0,024483	22,270000	51,475000
2,363057	136,889996	269,721	-0,017884	22,270000	51,505000
2,384036	148,881813	270,774	-0,012824	22,270000	51,505000
2,405121	165,332957	271,825	-0,005881	22,260000	51,475000
2,426091	180,844565	272,876	0,000665	22,260000	51,475000
2,447070	192,962502	273,928	0,005778	22,260000	51,475000
2,468070	210,151853	274,979	0,013032	22,260000	51,475000
2,489070	221,861347	276,032	0,017974	22,260000	51,475000
2,509964	237,372954	277,085	0,024520	22,260000	51,475000
2,531020	251,183677	278,138	0,030348	22,260000	51,475000
2,552037	266,631646	279,188	0,036867	22,260000	51,475000
2,573064	282,386237	280,240	0,043515	22,270000	51,465000
2,594032	297,333198	281,291	0,049823	22,270000	51,465000
2,615002	310,571173	282,342	0,055409	22,270000	51,475000
2,636011	325,972860	283,398	0,061909	22,280000	51,490000
2,657025	340,801799	284,449	0,068167	22,280000	51,490000
2,666067	345,764449	285,500	0,070261	22,270000	51,490000
2,666030	344,776316	286,551	0,069844	22,270000	51,490000
2,666050	343,748843	287,601	0,069410	22,270000	51,490000
2,666047	342,996751	288,653	0,069093	22,270000	51,490000
2,665980	342,581365	289,704	0,068917	22,270000	51,490000
2,666040	341,704310	290,758	0,068547	22,270000	51,490000
2,666056	341,445127	291,808	0,068438	22,280000	51,490000
2,666054	341,006600	292,861	0,068253	22,280000	51,490000
2,666048	340,684936	293,915	0,068117	22,280000	51,490000
2,666009	340,425753	294,966	0,068008	22,280000	51,490000
2,645017	326,232042	296,020	0,062018	22,270000	51,465000
2,624009	309,787841	297,070	0,055079	22,270000	51,465000
2,603012	292,363605	298,124	0,047726	22,280000	51,515000
2,582032	275,449635	299,174	0,040588	22,280000	51,515000
2,561015	259,749426	300,226	0,033962	22,270000	51,475000
2,540110	243,987892	301,281	0,027311	22,270000	51,475000
2,519024	230,882979	302,331	0,021781	22,280000	51,475000
2,498026	215,575015	303,384	0,015321	22,270000	51,505000
2,477004	198,237559	304,434	0,008004	22,270000	51,505000
2,456007	182,538507	305,486	0,001379	22,270000	51,505000
2,435058	169,934603	306,537	-0,003939	22,270000	51,505000
2,413990	152,377305	307,591	-0,011349	22,270000	51,465000
2,393054	139,781500	308,642	-0,016664	22,270000	51,465000
2,372073	122,389662	309,694	-0,024003	22,280000	51,490000
2,351063	108,782583	310,746	-0,029746	22,280000	51,490000
2,330037	94,831855	311,797	-0,035633	22,270000	51,475000
2,309106	80,738809	312,848	-0,041580	22,270000	51,475000
2,288100	63,792441	313,900	-0,048731	22,270000	51,490000
2,267049	50,491984	314,952	-0,054344	22,270000	51,490000
2,245997	33,757359	316,005	-0,061406	22,280000	51,505000
2,225050	19,696710	317,058	-0,067340	22,280000	51,505000
2,204083	4,717352	318,112	-0,073661	22,280000	51,505000
2,183021	-7,038424	319,167	-0,078622	22,280000	51,505000
2,162047	-22,072164	320,219	-0,084966	22,280000	51,505000
2,141037	-38,171560	321,274	-0,091760	22,280000	51,505000
2,120026	-51,166553	322,328	-0,097244	22,250000	51,460000
2,099001	-65,784906	323,378	-0,103413	22,270000	51,505000
2,077991	-81,334697	324,428	-0,109975	22,270000	51,505000
2,057080	-95,647586	325,480	-0,116015	22,280000	51,505000
2,036042	-108,250333	326,534	-0,121333	22,280000	51,505000
2,054096	-94,738133	327,465	-0,115631	22,260000	51,475000
2,075118	-79,297106	328,515	-0,109115	22,260000	51,475000
2,096120	-61,662285	329,567	-0,101673	22,270000	51,490000
2,117090	-45,656611	330,619	-0,094919	22,270000	51,490000
2,138122	-31,384219	331,672	-0,088896	22,270000	51,490000
2,159084	-16,655945	332,723	-0,082681	22,270000	51,490000
2,180077	1,143180	333,774	-0,075169	22,270000	51,475000
2,201074	16,428003	334,824	-0,068719	22,270000	51,475000
2,222003	31,798449	335,876	-0,062233	22,270000	51,465000
2,243064	44,942702	336,931	-0,056686	22,270000	51,465000
2,264091	59,505517	337,984	-0,050541	22,280000	51,515000
2,285059	77,031574	339,036	-0,043145	22,280000	51,515000
2,306088	89,862263	340,089	-0,037730	22,260000	51,465000
2,327050	105,929262	341,141	-0,030950	22,260000	51,465000
2,348127	119,693702	342,192	-0,025141	22,270000	51,490000
2,369116	134,138496	343,243	-0,019045	22,270000	51,490000
2,390060	149,031074	344,295	-0,012761	22,280000	51,475000
2,411049	163,766291	345,346	-0,006542	22,280000	51,475000
2,432117	178,509608	346,398	-0,000321	22,260000	51,515000
2,453022	193,284166	347,450	0,005914	22,260000	51,515000
2,474001	208,513450	348,501	0,012341	22,260000	51,515000
2,494990	225,952727	349,553	0,019700	22,270000	51,465000
2,516081	240,154538	350,604	0,025693	22,270000	51,465000
2,537021	252,280574	351,655	0,030811	22,270000	51,505000
2,558006	269,422486	352,706	0,038044	22,270000	51,505000
2,579077	282,488059	353,758	0,043558	22,270000	51,490000
2,600008	298,548115	354,811	0,050335	22,270000	51,490000
2,621041	310,861597	355,863	0,055532	22,270000	51,505000
2,642012	325,494992	356,913	0,061707	22,270000	51,505000
2,663057	342,886830	357,965	0,069046	22,270000	51,490000
2,683987	356,517051	359,015	0,074798	22,270000	51,490000
2,705040	370,210910	360,066	0,080577	22,270000	51,490000
2,726046	384,099156	361,118	0,086438	22,270000	51,490000
2,747047	399,249759	362,172	0,092832	22,270000	51,505000
2,768025	414,017374	363,224	0,099063	22,270000	51,505000
2,789005	428,462169	364,275	0,105159	22,280000	51,505000
2,810002	445,305558	365,328	0,112267	22,280000	51,505000
2,830987	458,058723	366,382	0,117649	22,280000	51,505000
2,833993	461,045107	367,435	0,118909	22,270000	51,465000
2,834005	460,158796	368,487	0,118535	22,270000	51,465000
2,833946	459,547865	369,538	0,118277	22,270000	51,475000
2,833958	458,873297	370,593	0,117993	22,270000	51,475000
2,834034	458,199885	371,644	0,117708	22,280000	51,465000
2,834030	457,956902	372,695	0,117606	22,280000	51,465000
2,833998	457,462835	373,746	0,117397	22,280000	51,465000
2,833987	456,741984	374,798	0,117093	22,280000	51,465000
2,834029	456,655204	375,848	0,117057	22,270000	51,490000
2,827974	454,170986	376,900	0,116008	22,270000	51,490000
2,807040	437,633062	377,954	0,109029	22,270000	51,490000
2,786067	420,686695	379,006	0,101878	22,270000	51,490000
2,765060	403,451061	380,059	0,094604	22,260000	51,465000
2,743994	386,379730	381,112	0,087400	22,260000	51,465000
2,723017	373,102414	382,165	0,081797	22,260000	51,465000
2,702065	356,721851	383,218	0,074885	22,260000	51,465000
2,681027	339,164553	384,271	0,067476	22,270000	51,490000
2,660019	325,675494	385,324	0,061783	22,270000	51,490000
2,639088	308,932770	386,376	0,054718	22,270000	51,475000
2,618018	295,123204	387,429	0,048890	22,270000	51,475000
2,597001	277,541608	388,482	0,041471	22,270000	51,475000
2,576001	264,460993	389,535	0,035951	22,270000	51,475000
2,555030	249,019966	390,588	0,029435	22,270000	51,475000
2,534065	233,986226	391,639	0,023090	22,260000	51,475000
2,513018	217,024817	392,690	0,015933	22,260000	51,475000
2,491994	203,880563	393,743	0,010386	22,270000	51,490000
2,471042	188,753101	394,795	0,004002	22,270000	51,490000
2,450043	172,333198	395,846	-0,002927	22,260000	51,490000
2,429076	158,208910	396,900	-0,008888	22,260000	51,490000
2,408086	141,725368	397,954	-0,015844	22,260000	51,490000
2,387042	126,707827	399,005	-0,022181	22,260000	51,490000
2,366105	112,269976	400,057	-0,028274	22,270000	51,515000
2,345098	99,745909	401,109	-0,033559	22,270000	51,515000
2,324093	85,174994	402,163	-0,039708	22,270000	51,515000
2,303112	67,993743	403,216	-0,046958	22,270000	51,515000
2,282029	54,872630	404,266	-0,052496	22,270000	51,475000
2,261045	41,007526	405,318	-0,058347	22,270000	51,475000
2,240044	26,985060	406,368	-0,064264	22,270000	51,475000
2,219078	11,655111	407,421	-0,070733	22,270000	51,505000
2,198086	-4,319322	408,473	-0,077475	22,270000	51,505000
2,177016	-16,993807	409,525	-0,082823	22,270000	51,490000
2,156005	-33,178827	410,577	-0,089653	22,270000	51,490000
2,135088	-46,393661	411,629	-0,095230	22,270000	51,490000
2,114057	-61,128878	412,679	-0,101448	22,270000	51,490000
2,093060	-76,138320	413,731	-0,107782	22,270000	51,490000
2,081083	-85,481617	414,678	-0,111725	22,270000	51,490000
2,102057	-68,011099	415,729	-0,104353	22,270000	51,475000
2,123046	-51,237133	416,781	-0,097274	22,270000	51,475000
2,144045	-33,876537	417,831	-0,089948	22,270000	51,475000
2,165057	-16,616604	418,883	-0,082664	22,270000	51,475000
2,186111	-2,391652	419,935	-0,076661	22,270000	51,490000
2,207081	15,354247	420,987	-0,069172	22,270000	51,490000
2,228154	30,411128	422,041	-0,062818	22,280000	51,515000
2,249035	43,617863	423,093	-0,057245	22,280000	51,515000
2,270056	58,681687	424,146	-0,050888	22,280000	51,515000
2,291020	76,365105	425,200	-0,043426	22,280000	51,515000
2,311988	90,919820	426,250	-0,037284	22,280000	51,505000
2,333025	106,611930	427,301	-0,030662	22,280000	51,505000
2,354063	119,936685	428,354	-0,025039	22,280000	51,505000
2,375064	135,988642	429,408	-0,018265	22,280000	51,475000
2,396071	149,383979	430,459	-0,012612	22,280000	51,475000
2,417019	164,401520	431,510	-0,006274	22,280000	51,475000
2,438075	179,598406	432,564	0,000139	22,280000	51,475000
2,459051	193,855756	433,615	0,006155	22,270000	51,490000
2,480081	209,321081	434,668	0,012682	22,270000	51,490000
2,501069	226,156370	435,719	0,019786	22,270000	51,490000
2,522127	238,234967	436,773	0,024883	22,270000	51,490000
2,543049	253,306891	437,824	0,031244	22,270000	51,490000
2,564028	268,128888	438,875	0,037499	22,270000	51,490000
2,585079	285,395762	439,929	0,044785	22,260000	51,490000
2,606040	298,626796	440,983	0,050369	22,260000	51,490000
2,627064	311,989735	442,033	0,056008	22,260000	51,490000
2,648011	326,944794	443,086	0,062319	22,260000	51,490000
2,669005	342,354580	444,138	0,068822	22,280000	51,490000
2,690038	356,493909	445,190	0,074789	22,280000	51,490000
2,711077	371,593602	446,242	0,081161	22,270000	51,475000
2,732029	388,559640	447,294	0,088320	22,270000	51,475000
2,753000	401,154288	448,345	0,093635	22,270000	51,475000
2,774082	417,199302	449,397	0,100406	22,270000	51,465000
2,794974	432,514209	450,450	0,106869	22,270000	51,465000
2,816043	445,697803	451,502	0,112433	22,260000	51,490000
2,837070	460,488559	452,555	0,118674	22,260000	51,490000
2,858084	475,576681	453,607	0,125042	22,270000	51,475000
2,879010	493,125879	454,658	0,132447	22,270000	51,475000
2,900052	507,938620	455,711	0,138698	22,270000	51,490000
2,920999	523,129721	456,763	0,145109	22,270000	51,490000
2,942040	536,282074	457,814	0,150659	22,270000	51,490000
2,963022	550,805548	458,865	0,156788	22,270000	51,490000
2,984011	566,089214	459,916	0,163238	22,270000	51,515000
3,002049	581,067415	460,970	0,169559	22,270000	51,515000
3,001960	580,024900	462,022	0,169119	22,270000	51,505000
3,001999	579,468352	463,073	0,168884	22,270000	51,505000
3,001988	578,520716	464,125	0,168484	22,260000	51,515000
3,002058	578,034749	465,179	0,168279	22,260000	51,515000
3,002050	577,681844	466,230	0,168130	22,280000	51,505000
3,002082	577,085956	467,281	0,167878	22,280000	51,505000
3,002062	577,007276	468,333	0,167845	22,280000	51,505000
3,002024	576,419487	469,384	0,167597	22,280000	51,505000
3,002006	576,074682	470,436	0,167452	22,280000	51,505000
2,989958	568,581531	471,487	0,164290	22,260000	51,450000
2,968969	552,537674	472,539	0,157519	22,260000	51,450000
2,947960	535,724369	473,592	0,150424	22,270000	51,475000
2,926996	519,281324	474,645	0,143485	22,270000	51,475000
2,906062	503,549874	475,698	0,136846	22,280000	51,490000
2,885028	487,238735	476,748	0,129963	22,280000	51,490000
2,864032	471,422819	477,800	0,123289	22,270000	51,475000
2,843032	452,846147	478,850	0,115449	22,270000	51,475000
2,822050	437,342639	479,902	0,108907	22,270000	51,505000
2,801049	424,127805	480,954	0,103330	22,270000	51,505000
2,780025	405,912137	482,006	0,095643	22,270000	51,505000
2,759021	391,976451	483,056	0,089762	22,270000	51,505000
2,738031	374,826440	484,109	0,082525	22,270000	51,490000
2,717004	361,902029	485,161	0,077071	22,270000	51,490000
2,696076	344,024224	486,211	0,069526	22,260000	51,475000
2,675080	328,425837	487,264	0,062944	22,260000	51,475000
2,654058	315,453986	488,317	0,057470	22,260000	51,475000
2,633092	299,661211	489,368	0,050805	22,260000	51,475000
2,612063	284,957235	490,418	0,044600	22,270000	51,515000
2,591087	269,798532	491,469	0,038203	22,270000	51,505000
2,569991	252,326857	492,520	0,030830	22,270000	51,505000
2,549053	238,650354	493,572	0,025059	22,270000	51,515000
2,528027	224,995835	494,623	0,019296	22,270000	51,515000
2,507041	209,986393	495,673	0,012962	22,270000	51,505000
2,486102	192,790099	496,725	0,005706	22,270000	51,505000
2,464978	179,645846	497,776	0,000159	22,260000	51,490000
2,444116	163,915553	498,828	-0,006479	22,260000	51,490000
2,423101	147,666895	499,880	-0,013336	22,270000	51,515000
2,402080	132,954819	500,931	-0,019545	22,270000	51,515000
2,381036	120,703819	501,983	-0,024715	22,270000	51,515000
2,360045	105,858681	503,034	-0,030979	22,270000	51,515000
2,339147	91,586289	504,086	-0,037002	22,260000	51,505000
2,318088	74,648021	505,139	-0,044150	22,260000	51,505000
2,297091	62,648104	506,191	-0,049214	22,260000	51,505000
2,276057	47,034675	507,243	-0,055803	22,260000	51,505000
2,255049	33,616197	508,295	-0,061466	22,280000	51,490000
2,234040	17,094472	509,346	-0,068438	22,280000	51,490000
2,213044	4,984634	510,401	-0,073548	22,280000	51,490000
2,192096	-11,021040	511,454	-0,080303	22,270000	51,515000
2,171041	-23,577505	512,504	-0,085602	22,270000	51,515000
2,150095	-40,209151	513,554	-0,092620	22,260000	51,490000
2,129023	-52,397669	514,604	-0,097764	22,260000	51,490000
2,129069	-53,110421	515,534	-0,098064	22,280000	51,490000
2,150016	-35,405019	516,587	-0,090593	22,280000	51,490000
2,171122	-20,881544	517,641	-0,084464	22,270000	51,505000
2,192024	-3,056965	518,693	-0,076942	22,270000	51,505000
2,213072	13,645263	519,746	-0,069894	22,270000	51,505000
2,234100	27,487226	520,798	-0,064052	22,270000	51,505000
2,255113	42,787091	521,850	-0,057596	22,260000	51,490000
2,276063	58,235060	522,903	-0,051077	22,260000	51,490000
2,297099	74,429336	523,954	-0,044243	22,270000	51,465000
2,318080	91,343306	525,005	-0,037105	22,270000	51,465000
2,339046	104,541941	526,058	-0,031535	22,270000	51,465000
2,360062	119,598823	527,111	-0,025181	22,270000	51,465000
2,381068	135,024807	528,162	-0,018671	22,280000	51,475000
2,402042	152,213002	529,215	-0,011418	22,280000	51,475000
2,423073	164,840047	530,269	-0,006089	22,280000	51,475000
2,444081	181,816499	531,322	0,001075	22,280000	51,475000
2,465092	197,038840	532,374	0,007499	22,260000	51,505000
2,486045	209,766551	533,427	0,012870	22,280000	51,435000
2,507068	224,401103	534,477	0,019045	22,280000	51,435000
2,528133	239,238142	535,528	0,025307	22,270000	51,450000
2,549037	256,724859	536,579	0,032686	22,270000	51,450000
2,570088	271,538757	537,631	0,038937	22,270000	51,450000
2,591067	284,791775	538,682	0,044530	22,270000	51,450000
2,612057	298,924161	539,732	0,050494	22,270000	51,465000
2,633105	314,074765	540,784	0,056888	22,270000	51,465000
2,654084	330,855672	541,836	0,063969	22,270000	51,505000
2,675035	345,936852	542,889	0,070333	22,270000	51,505000
2,696099	359,440953	543,941	0,076032	22,280000	51,475000
2,717156	374,952560	544,991	0,082578	22,280000	51,475000
2,738047	388,073673	546,042	0,088115	22,280000	51,475000
2,759041	402,855173	547,092	0,094353	22,280000	51,475000
2,780071	417,747751	548,142	0,100638	22,280000	51,490000
2,801072	432,584790	549,193	0,106899	22,280000	51,490000
2,822036	447,712252	550,246	0,113283	22,280000	51,490000
2,843046	462,604830	551,298	0,119567	22,280000	51,490000
2,864061	477,794774	552,352	0,125978	22,280000	51,490000
2,885013	492,710493	553,404	0,132272	22,280000	51,515000
2,906005	508,480126	554,456	0,138927	22,280000	51,515000
2,927012	524,743826	555,509	0,145790	22,280000	51,505000
2,948045	540,749500	556,561	0,152544	22,280000	51,505000
2,969052	553,407787	557,613	0,157886	22,280000	51,505000
2,990021	568,785175	558,664	0,164375	22,280000	51,505000
3,011015	583,842056	559,716	0,170729	22,270000	51,465000
3,032008	600,717843	560,768	0,177851	22,270000	51,465000
3,053034	616,651779	561,822	0,184575	22,270000	51,465000
3,074006	629,396845	562,876	0,189954	22,270000	51,465000
3,094954	645,064657	563,929	0,196565	22,270000	51,515000
3,116028	662,433353	564,983	0,203895	22,270000	51,515000
3,136996	675,099739	566,035	0,209240	22,270000	51,515000
3,158036	690,399604	567,085	0,215697	22,270000	51,515000
3,169985	701,028399	568,136	0,220182	22,270000	51,490000
3,169942	700,197627	569,187	0,219832	22,270000	51,490000
3,169944	699,499917	570,239	0,219537	22,270000	51,490000
3,169996	699,130813	571,292	0,219381	22,270000	51,490000
3,169991	698,096397	572,345	0,218945	22,270000	51,475000
3,170033	697,884655	573,396	0,218855	22,280000	51,475000
3,169988	697,602331	574,450	0,218736	22,280000	51,475000
3,169960	697,579189	575,501	0,218727	22,270000	51,475000
3,170037	696,960160	576,553	0,218465	22,270000	51,475000
3,169982	696,748417	577,606	0,218376	22,280000	51,475000
3,151995	683,376222	578,659	0,212733	22,280000	51,475000
3,131079	665,693961	579,711	0,205271	22,270000	51,490000
3,109987	651,515292	580,763	0,199288	22,270000	51,490000
3,088950	632,971018	581,813	0,191462	22,280000	51,505000
3,068001	619,183436	582,865	0,185644	22,280000	51,505000
3,047002	602,802873	583,916	0,178731	22,280000	51,505000
3,025971	587,110763	584,967	0,172109	22,280000	51,505000
3,004970	571,121288	586,020	0,165361	22,280000	51,490000
2,983985	553,682011	587,071	0,158002	22,280000	51,490000
2,962952	539,510284	588,122	0,152021	22,280000	51,490000
2,942004	523,591390	589,175	0,145304	22,280000	51,490000
2,921038	507,046523	590,226	0,138322	22,270000	51,505000
2,900081	489,591047	591,277	0,130956	22,270000	51,505000
2,879048	476,274391	592,330	0,125336	22,260000	51,475000
2,858015	460,943285	593,382	0,118866	22,260000	51,475000
2,837034	444,906370	594,433	0,112099	22,280000	51,475000
2,816051	429,795107	595,484	0,105722	22,280000	51,475000
2,795044	414,503342	596,535	0,099269	22,280000	51,475000
2,774031	398,904954	597,587	0,092686	22,270000	51,490000
2,753024	381,270133	598,640	0,085244	22,270000	51,490000
2,732008	368,101581	599,693	0,079687	22,250000	51,470000
2,711038	352,489309	600,744	0,073099	22,250000	51,470000
2,690060	335,073173	601,795	0,065749	22,250000	51,470000
2,669056	321,866438	602,848	0,060176	22,250000	51,470000
2,648074	304,990651	603,900	0,053054	22,270000	51,490000
2,627053	291,721434	604,953	0,047455	22,270000	51,490000
2,606091	276,413470	606,005	0,040995	22,270000	51,505000
2,585033	261,560232	607,058	0,034727	22,270000	51,505000
2,564085	246,432770	608,109	0,028343	22,270000	51,490000
2,543068	231,564490	609,160	0,022068	22,270000	51,490000
2,522084	214,289516	610,212	0,014778	22,270000	51,490000
2,500972	201,506267	611,266	0,009384	22,270000	51,490000
2,480025	185,994659	612,318	0,002838	22,280000	51,465000
2,459055	169,707818	613,371	-0,004035	22,280000	51,465000
2,438077	157,041432	614,425	-0,009380	22,280000	51,465000
2,417095	142,549198	615,476	-0,015496	22,280000	51,465000
2,396137	127,546699	616,527	-0,021827	22,280000	51,465000
2,375069	112,709660	617,577	-0,028088	22,270000	51,465000
2,354055	95,896355	618,630	-0,035184	22,270000	51,465000
2,333169	81,412220	619,684	-0,041296	22,270000	51,465000
2,312100	68,612772	620,735	-0,046697	22,270000	51,465000
2,291076	52,380313	621,785	-0,053547	22,270000	51,505000
2,270052	40,051790	622,837	-0,058750	22,270000	51,505000
2,249106	24,916229	623,890	-0,065137	22,270000	51,515000
2,228059	8,629388	624,942	-0,072010	22,270000	51,515000
2,207075	-3,488550	625,993	-0,077124	22,270000	51,515000
2,186063	-20,230117	627,046	-0,084189	22,270000	51,515000
2,165057	-31,830846	628,096	-0,089084	22,260000	51,490000
2,177081	-23,029056	629,031	-0,085370	22,260000	51,490000
2,198112	-7,972175	630,081	-0,079016	22,280000	51,515000
2,219125	8,715010	631,131	-0,071974	22,280000	51,515000
2,240116	25,723860	632,184	-0,064796	22,280000	51,515000
2,261092	43,672245	633,235	-0,057222	22,280000	51,515000
2,282095	57,154362	634,289	-0,051533	22,270000	51,450000
2,303122	74,381896	635,341	-0,044263	22,270000	51,450000
2,324056	88,693628	636,393	-0,038223	22,270000	51,490000
2,345066	106,408286	637,445	-0,030748	22,270000	51,505000
2,366084	121,143504	638,500	-0,024529	22,270000	51,505000
2,387081	134,851248	639,552	-0,018745	22,270000	51,505000
2,408062	149,971768	640,604	-0,012364	22,270000	51,505000
2,429113	168,013876	641,654	-0,004750	22,260000	51,505000
2,450066	180,453477	642,707	0,000500	22,260000	51,505000
2,471086	196,356172	643,761	0,007210	22,260000	51,505000
2,492066	210,856505	644,814	0,013330	22,260000	51,505000
2,513027	228,272641	645,868	0,020679	22,270000	51,465000
2,534044	240,343139	646,921	0,025773	22,270000	51,465000
2,555079	256,097730	647,973	0,032421	22,270000	51,465000
2,576065	272,776816	649,024	0,039460	22,270000	51,465000
2,597084	286,179095	650,076	0,045116	22,280000	51,490000
2,618041	302,467093	651,128	0,051989	22,280000	51,490000
2,639112	315,117280	652,183	0,057328	22,270000	51,505000
2,660079	330,080439	653,235	0,063642	22,270000	51,505000
2,681043	345,097980	654,285	0,069979	22,280000	51,475000
2,702145	362,725859	655,336	0,077418	22,280000	51,475000
2,723119	375,108764	656,388	0,082644	22,280000	51,475000
2,744028	390,229284	657,439	0,089025	22,260000	51,475000
2,765051	407,417478	658,493	0,096278	22,260000	51,475000
2,786066	421,164562	659,546	0,102080	22,270000	51,490000
2,807136	437,350739	660,596	0,108910	22,270000	51,490000
2,828033	450,127046	661,647	0,114302	22,270000	51,490000
2,849092	466,931094	662,700	0,121393	22,270000	51,490000
2,870028	480,019809	663,752	0,126917	22,280000	51,505000
2,891075	496,010441	664,805	0,133665	22,280000	51,505000
2,912152	512,845731	665,856	0,140769	22,280000	51,475000
2,933072	525,817582	666,908	0,146243	22,280000	51,475000
2,954056	542,496668	667,961	0,153282	22,280000	51,475000
2,975049	556,033166	669,013	0,158994	22,280000	51,475000
2,996079	573,661045	670,066	0,166433	22,270000	51,475000
3,017021	586,398012	671,119	0,171808	22,270000	51,475000
3,038018	604,275816	672,172	0,179353	22,280000	51,490000
3,059045	616,996584	673,225	0,184721	22,280000	51,490000
3,079987	634,875546	674,277	0,192266	22,270000	51,475000
3,101121	650,057390	675,330	0,198672	22,270000	51,475000
3,121993	663,029241	676,383	0,204146	22,280000	51,505000
3,143085	678,360347	677,434	0,210616	22,270000	51,490000
3,164025	693,504008	678,486	0,217007	22,270000	51,490000
3,184962	709,649687	679,537	0,223820	22,270000	51,490000
3,206015	725,207577	680,591	0,230386	22,270000	51,490000
3,226979	739,614188	681,644	0,236465	22,270000	51,490000
3,248018	757,453810	682,698	0,243994	22,270000	51,490000
3,268993	771,578097	683,750	0,249954	22,250000	51,470000
3,289973	785,748667	684,803	0,255934	22,250000	51,470000
3,311013	801,746242	685,856	0,262685	22,270000	51,450000
3,332012	817,077347	686,907	0,269155	22,270000	51,450000
3,338025	822,352405	687,957	0,271381	22,270000	51,490000
3,337982	821,802799	689,009	0,271149	22,270000	51,490000
3,337960	820,666562	690,060	0,270669	22,270000	51,450000
3,337964	820,157453	691,113	0,270455	22,270000	51,450000
3,337966	820,118113	692,163	0,270438	22,270000	51,475000
3,337969	819,381063	693,215	0,270127	22,270000	51,475000
3,337962	818,926337	694,266	0,269935	22,270000	51,475000
3,337953	818,793274	695,316	0,269879	22,270000	51,475000
3,337951	818,143004	696,369	0,269604	22,270000	51,490000
3,334891	818,166145	697,421	0,269614	22,270000	51,490000
3,313955	798,845481	698,475	0,261461	22,270000	51,490000
3,292976	784,627471	699,527	0,255461	22,270000	51,490000
3,271979	768,340631	700,578	0,248588	22,270000	51,490000
3,251000	749,262950	701,631	0,240537	22,260000	51,475000
3,230008	734,926920	702,683	0,234487	22,260000	51,475000
3,208930	717,402020	703,735	0,227092	22,260000	51,475000
3,188006	703,387654	704,787	0,221178	22,260000	51,475000
3,167030	687,515042	705,838	0,214479	22,270000	51,515000
3,146008	671,651687	706,892	0,207785	22,270000	51,515000
3,124975	655,575431	707,943	0,201001	22,270000	51,475000
3,104023	638,684603	708,997	0,193873	22,270000	51,475000
3,082988	624,294191	710,049	0,187800	22,270000	51,475000
3,062036	605,929262	711,102	0,180050	22,270000	51,475000
3,041002	591,609431	712,153	0,174007	22,270000	51,465000
3,020039	574,327514	713,204	0,166714	22,270000	51,465000
2,998966	560,799115	714,256	0,161005	22,270000	51,475000
2,978064	543,868946	715,309	0,153861	22,270000	51,475000
2,956994	527,283583	716,362	0,146862	22,270000	51,475000
2,936014	513,480959	717,413	0,141037	22,270000	51,475000
2,915023	498,893846	718,464	0,134881	22,270000	51,475000
2,894006	480,937361	719,516	0,127304	22,270000	51,505000
2,872980	466,029741	720,568	0,121013	22,270000	51,505000
2,852015	452,979210	721,620	0,115505	22,270000	51,475000
2,830993	436,771049	722,672	0,108666	22,270000	51,475000
2,810039	421,822932	723,722	0,102357	22,270000	51,515000
2,789059	406,453643	724,775	0,095872	22,270000	51,515000
2,768098	389,774558	725,827	0,088833	22,260000	51,465000
2,747078	375,391088	726,879	0,082763	22,260000	51,465000
2,726092	360,381646	727,932	0,076429	22,280000	51,475000
2,705067	343,569498	728,984	0,069334	22,280000	51,475000
2,684017	327,556881	730,036	0,062577	22,270000	51,530000
2,663092	314,552633	731,086	0,057089	22,270000	51,530000
[...]
3,073042	614,724110	484,178	0,183818	22,270000	51,385000
3,051999	596,743326	485,231	0,176230	22,270000	51,385000
3,031030	581,216677	486,285	0,169678	22,270000	51,385000
3,010062	567,939361	487,337	0,164075	22,270000	51,360000
2,989045	552,114188	488,388	0,157396	22,270000	51,360000
2,968065	534,338205	489,441	0,149895	22,270000	51,425000
2,947036	521,084031	490,492	0,144302	22,270000	51,425000
2,926101	503,150687	491,545	0,136734	22,270000	51,410000
2,905043	487,560399	492,599	0,130155	22,270000	51,410000
2,884074	474,517967	493,649	0,124651	22,270000	51,410000
2,863091	456,608921	494,701	0,117093	22,270000	51,410000
2,842051	442,328430	495,756	0,111067	22,270000	51,385000
2,821117	425,554465	496,810	0,103988	22,260000	51,410000
2,800060	412,394013	497,862	0,098435	22,260000	51,410000
2,779072	397,055965	498,914	0,091962	22,260000	51,410000
2,758072	381,889162	499,964	0,085562	22,260000	51,410000
2,737023	363,602914	501,015	0,077845	22,270000	51,400000
2,716084	348,687195	502,069	0,071550	22,270000	51,400000
2,695126	333,536591	503,120	0,065157	22,270000	51,400000
2,674044	319,490984	504,172	0,059229	22,270000	51,400000
2,653084	302,756359	505,224	0,052167	22,270000	51,400000
2,632066	290,278575	506,277	0,046902	22,270000	51,400000
2,611072	272,486393	507,328	0,039394	22,270000	51,400000
2,590079	257,476951	508,379	0,033060	22,270000	51,400000
2,569097	243,290183	509,430	0,027073	22,250000	51,395000
2,548057	227,128305	510,482	0,020252	22,250000	51,395000
2,527079	212,424328	511,538	0,014047	22,250000	51,395000
2,506132	199,366854	512,592	0,008537	22,250000	51,395000
2,485076	183,471101	513,646	0,001829	22,270000	51,425000
2,464173	167,371705	514,699	-0,004965	22,270000	51,425000
2,464117	166,431011	515,631	-0,005362	22,270000	51,385000
2,485139	184,654778	516,682	0,002329	22,270000	51,385000
2,506105	200,376972	517,735	0,008963	22,260000	51,385000
2,527113	216,852414	518,787	0,015916	22,260000	51,385000
2,548142	234,315990	519,841	0,023286	22,260000	51,385000
2,569103	249,239809	520,894	0,029583	22,270000	51,385000
2,590143	267,391838	521,946	0,037244	22,270000	51,385000
2,611119	281,202560	522,997	0,043072	22,260000	51,425000
2,632081	296,392504	524,049	0,049482	22,260000	51,425000
2,653117	314,435769	525,101	0,057096	22,270000	51,410000
2,674097	328,536915	526,154	0,063047	22,270000	51,410000
2,695089	343,310315	527,207	0,069281	22,270000	51,410000
2,716082	359,158629	528,257	0,075969	22,270000	51,410000
2,737040	374,553373	529,309	0,082466	22,270000	51,385000
2,758096	389,907620	530,364	0,088945	22,270000	51,385000
2,779126	405,629813	531,417	0,095580	22,280000	51,410000
2,800062	423,461336	532,468	0,103105	22,280000	51,410000
2,821046	436,613689	533,520	0,108655	22,260000	51,410000
2,842089	453,575098	534,572	0,115813	22,260000	51,410000
2,863097	467,260858	535,622	0,121588	22,270000	51,370000
2,884074	483,116114	536,674	0,128279	22,270000	51,370000
2,905092	500,602831	537,726	0,135659	22,270000	51,370000
2,926087	514,233051	538,778	0,141411	22,270000	51,370000
2,947063	529,164970	539,828	0,147712	22,270000	51,370000
2,968038	547,152695	540,880	0,155303	22,260000	51,450000
2,989002	562,413220	541,932	0,161743	22,260000	51,450000
3,010131	576,913553	542,984	0,167862	22,270000	51,400000
3,031029	593,357755	544,037	0,174801	22,270000	51,400000
3,051973	607,795607	545,087	0,180894	22,270000	51,400000
3,073042	624,341630	546,139	0,187876	22,270000	51,400000
3,094052	637,351664	547,190	0,193367	22,280000	51,385000
3,115034	653,334197	548,241	0,200111	22,280000	51,385000
3,136085	670,726035	549,293	0,207451	22,270000	51,370000
3,157020	686,253841	550,346	0,214003	22,270000	51,370000
3,177994	699,413137	551,401	0,219557	22,270000	51,370000
3,198986	714,846064	552,453	0,226069	22,270000	51,370000
3,220039	730,145929	553,504	0,232526	22,260000	51,400000
3,241003	747,570164	554,555	0,239879	22,260000	51,400000
3,262033	761,184186	555,606	0,245624	22,280000	51,400000
3,282987	778,475359	556,656	0,252921	22,280000	51,400000
3,304006	794,292432	557,708	0,259596	22,270000	51,385000
3,325019	809,929003	558,759	0,266194	22,270000	51,385000
3,345952	823,002675	559,810	0,271711	22,260000	51,385000
3,367056	838,717926	560,861	0,278343	22,280000	51,370000
3,388000	855,201468	561,915	0,285299	22,280000	51,370000
3,409020	871,660712	562,966	0,292245	22,260000	51,370000
3,429974	885,172912	564,017	0,297947	22,260000	51,370000
3,451004	902,675828	565,067	0,305333	22,270000	51,400000
3,471916	917,967593	566,118	0,311787	22,270000	51,400000
3,493020	933,549782	567,170	0,318362	22,270000	51,400000
3,504991	941,849406	568,221	0,321865	22,270000	51,400000
3,504990	941,348397	569,272	0,321653	22,270000	51,385000
3,504948	940,548865	570,324	0,321316	22,270000	51,385000
3,504952	940,179762	571,376	0,321160	22,270000	51,385000
3,504980	939,867354	572,431	0,321028	22,270000	51,385000
3,504898	939,200885	573,483	0,320747	22,270000	51,385000
3,504947	938,918561	574,536	0,320628	22,270000	51,385000
3,504920	938,667478	575,589	0,320522	22,270000	51,385000
3,504957	938,393254	576,640	0,320406	22,270000	51,385000
3,504950	938,228951	577,692	0,320337	22,270000	51,370000
3,486919	925,405204	578,744	0,314925	22,270000	51,370000
3,466027	908,098989	579,796	0,307622	22,280000	51,425000
3,445036	892,651020	580,848	0,301103	22,280000	51,425000
3,423971	875,321664	581,898	0,293790	22,280000	51,425000
3,402995	860,287924	582,949	0,287446	22,270000	51,410000
3,381947	841,688111	584,000	0,279597	22,270000	51,410000
3,361012	825,471851	585,053	0,272753	22,270000	51,370000
3,339989	811,715510	586,106	0,266948	22,270000	51,370000
3,319018	795,758433	587,157	0,260214	22,270000	51,410000
3,298017	777,331022	588,209	0,252438	22,270000	51,410000
3,276988	763,175494	589,262	0,246464	22,270000	51,410000
3,255980	746,440869	590,314	0,239402	22,270000	51,410000
3,234983	732,247158	591,364	0,233413	22,270000	51,385000
3,214050	716,233385	592,418	0,226655	22,270000	51,385000
3,193007	698,590464	593,469	0,219209	22,270000	51,410000
3,172009	684,835280	594,520	0,213405	22,270000	51,410000
3,151008	666,580273	595,572	0,205701	22,260000	51,385000
3,130110	650,645179	596,622	0,198977	22,260000	51,385000
3,109059	637,172319	597,673	0,193291	22,260000	51,385000
3,088048	619,787424	598,724	0,185955	22,260000	51,385000
3,067055	605,930419	599,775	0,180107	22,270000	51,400000
3,045978	590,982302	600,829	0,173799	22,270000	51,400000
3,025054	572,853414	601,880	0,166148	22,270000	51,400000
3,004026	559,216251	602,932	0,160394	22,270000	51,410000
2,983066	541,933177	603,982	0,153100	22,270000	51,410000
2,962077	528,780824	605,035	0,147550	22,270000	51,425000
2,941071	512,367863	606,087	0,140624	22,270000	51,425000
2,920078	497,923069	607,138	0,134528	22,270000	51,410000
2,898994	482,027316	608,190	0,127820	22,270000	51,410000
2,878032	465,379471	609,240	0,120794	22,270000	51,400000
2,857075	450,729876	610,291	0,114612	22,270000	51,400000
2,836061	434,333114	611,342	0,107693	22,280000	51,425000
2,815105	418,547282	612,394	0,101031	22,280000	51,425000
2,794053	405,261867	613,448	0,095425	22,260000	51,370000
2,773078	389,562815	614,501	0,088800	22,260000	51,370000
2,752068	373,110514	615,551	0,081857	22,280000	51,400000
2,731078	358,712002	616,601	0,075781	22,280000	51,400000
2,710044	344,016125	617,652	0,069579	22,270000	51,410000
2,689035	328,653779	618,703	0,063096	22,270000	51,410000
2,668067	313,785499	619,756	0,056822	22,270000	51,385000
2,647100	296,188861	620,807	0,049396	22,270000	51,385000
2,626081	282,488059	621,858	0,043614	22,280000	51,385000
2,605102	268,379971	622,910	0,037661	22,270000	51,400000
2,584165	251,026316	623,963	0,030337	22,270000	51,400000
2,563089	237,051290	625,015	0,024440	22,270000	51,410000
2,542076	223,499750	626,066	0,018721	22,270000	51,410000
2,521110	208,247325	627,118	0,012285	22,270000	51,410000
2,500090	193,535249	628,171	0,006076	22,270000	51,410000
2,512069	199,248834	629,104	0,008487	22,280000	51,385000
2,533088	216,798032	630,155	0,015893	22,280000	51,385000
2,554081	235,429086	631,207	0,023755	22,280000	51,385000
2,575079	252,162554	632,257	0,030817	22,280000	51,385000
2,596119	266,467343	633,309	0,036854	22,270000	51,385000
2,617109	283,483135	634,360	0,044034	22,270000	51,385000
2,637995	297,623621	635,412	0,050001	22,250000	51,380000
2,659107	314,662554	636,466	0,057192	22,250000	51,380000
2,680115	331,632063	637,519	0,064353	22,260000	51,400000
2,701107	345,011200	638,570	0,069999	22,260000	51,400000
2,722097	363,313648	639,623	0,077723	22,260000	51,400000
2,743049	378,817156	640,676	0,084265	22,260000	51,400000
2,764132	393,363772	641,726	0,090404	22,270000	51,370000
2,785111	407,519300	642,777	0,096377	22,270000	51,370000
2,806087	425,789349	643,830	0,104087	22,270000	51,400000
2,827085	440,164720	644,882	0,110154	22,260000	51,400000
2,848079	454,272808	645,936	0,116107	22,260000	51,400000
2,869030	469,643254	646,989	0,122594	22,270000	51,410000
2,890101	486,024974	648,041	0,129507	22,270000	51,410000
2,911101	501,049458	649,092	0,135847	22,270000	51,410000
2,932053	516,600405	650,145	0,142410	22,270000	51,410000
2,953057	533,985301	651,196	0,149746	22,270000	51,385000
2,974010	547,349396	652,248	0,155386	22,270000	51,385000
2,995139	563,478877	653,300	0,162192	22,270000	51,410000
3,016054	578,065990	654,351	0,168348	22,270000	51,410000
3,037013	594,172329	655,404	0,175145	22,260000	51,400000
3,058098	611,706485	656,456	0,182544	22,260000	51,400000
3,079020	627,390495	657,508	0,189163	22,260000	51,400000
3,100003	640,275566	658,558	0,194601	22,260000	51,400000
3,120994	658,115188	659,612	0,202129	22,280000	51,360000
3,141979	673,712419	660,664	0,208711	22,280000	51,360000
3,163026	687,225776	661,716	0,214414	22,280000	51,360000
3,184022	704,688194	662,769	0,221783	22,280000	51,360000
3,205011	717,566323	663,820	0,227217	22,270000	51,400000
3,225973	735,107422	664,870	0,234620	22,270000	51,385000
3,246910	748,581439	665,920	0,240306	22,270000	51,385000
3,268037	764,421653	666,973	0,246990	22,270000	51,410000
3,288980	782,033333	668,026	0,254422	22,270000	51,410000
3,310035	795,107005	669,078	0,259939	22,270000	51,400000
3,330979	811,449385	670,128	0,266836	22,270000	51,400000
3,351967	828,387654	671,181	0,273984	22,270000	51,400000
3,372967	844,478951	672,232	0,280774	22,270000	51,400000
3,393931	857,168478	673,286	0,286129	22,270000	51,400000
3,414965	874,419154	674,339	0,293409	22,270000	51,400000
3,435964	890,715251	675,389	0,300286	22,270000	51,400000
3,456965	906,414303	676,439	0,306911	22,270000	51,400000
3,477938	919,159369	677,489	0,312290	22,270000	51,370000
3,498969	936,167062	678,541	0,319467	22,270000	51,370000
3,519961	950,370029	679,593	0,325460	22,270000	51,425000
3,540941	966,147762	680,645	0,332119	22,270000	51,425000
3,561923	984,033666	681,696	0,339667	22,270000	51,370000
3,582929	996,974276	682,747	0,345127	22,270000	51,370000
3,603925	1014,382313	683,799	0,352474	22,270000	51,385000
3,624925	1030,567332	684,854	0,359304	22,270000	51,410000
3,645934	1046,070840	685,905	0,365846	22,270000	51,410000
3,666982	1060,257609	686,958	0,371833	22,270000	51,410000
3,672898	1065,086039	688,009	0,373871	22,270000	51,410000
3,672937	1064,302707	689,059	0,373540	22,270000	51,400000
3,672916	1063,926661	690,110	0,373381	22,270000	51,400000
3,672938	1063,432594	691,162	0,373173	22,270000	51,410000
3,672937	1062,828606	692,215	0,372918	22,270000	51,410000
3,672949	1062,985967	693,268	0,372984	22,270000	51,400000
3,672904	1062,523141	694,320	0,372789	22,270000	51,400000
3,672904	1062,163294	695,371	0,372637	22,270000	51,400000
3,672915	1061,943452	696,424	0,372544	22,270000	51,400000
3,669934	1058,996408	697,478	0,371301	22,270000	51,425000
3,648897	1043,908286	698,530	0,364934	22,270000	51,425000
3,627906	1027,910712	699,581	0,358183	22,270000	51,425000
3,606933	1011,560232	700,633	0,351283	22,270000	51,425000
3,585950	994,615021	701,684	0,344132	22,280000	51,400000
3,564942	976,376213	702,736	0,336435	22,280000	51,400000
3,543989	961,522975	703,789	0,330167	22,280000	51,385000
3,522906	943,981876	704,839	0,322765	22,280000	51,385000
3,501916	927,811898	705,894	0,315941	22,280000	51,385000
3,480985	913,601988	706,946	0,309944	22,280000	51,385000
3,459919	898,208401	707,996	0,303448	22,280000	51,385000
3,438970	882,179586	709,050	0,296684	22,270000	51,410000
3,417981	864,591047	710,101	0,289262	22,270000	51,410000
3,396968	850,302457	711,152	0,283232	22,280000	51,360000
3,375929	833,231126	712,203	0,276028	22,280000	51,360000
3,355003	818,683353	713,256	0,269889	22,270000	51,410000
3,333980	803,250426	714,307	0,263376	22,270000	51,410000
3,312939	785,811149	715,360	0,256017	22,270000	51,370000
3,291957	769,429428	716,411	0,249104	22,270000	51,370000
3,270990	753,221268	717,463	0,242264	22,270000	51,400000
3,250084	740,124454	718,517	0,236737	22,270000	51,400000
3,228995	721,493400	719,568	0,228875	22,270000	51,400000
3,207996	708,145503	720,619	0,223242	22,270000	51,400000
3,187029	690,391504	721,669	0,215750	22,280000	51,385000
3,166004	677,036665	722,722	0,210114	22,280000	51,385000
3,145059	661,587539	723,774	0,203594	22,280000	51,425000
3,124009	646,021549	724,825	0,197025	22,280000	51,425000
3,103022	630,204476	725,876	0,190351	22,270000	51,400000
3,082037	614,817832	726,928	0,183857	22,270000	51,400000
3,061019	599,071340	727,978	0,177212	22,270000	51,400000
3,040110	581,993067	729,031	0,170005	22,270000	51,410000
3,019004	565,846231	730,081	0,163191	22,270000	51,410000
2,998038	552,294690	731,132	0,157473	22,260000	51,400000
2,976993	537,449552	732,182	0,151208	22,260000	51,400000
2,956106	522,313990	733,232	0,144821	22,260000	51,400000
2,935056	504,475526	734,284	0,137293	22,260000	51,400000
2,914009	491,252592	735,336	0,131713	22,270000	51,435000
2,893072	474,972693	736,389	0,124843	22,270000	51,435000
2,872079	458,316749	737,441	0,117814	22,270000	51,370000
2,851064	443,064324	738,492	0,111377	22,270000	51,370000
2,830026	429,645846	739,545	0,105715	22,270000	51,370000
2,809083	414,401520	740,596	0,099282	22,270000	51,370000
2,788093	399,022975	741,646	0,092792	22,270000	51,370000
2,767068	383,887413	742,698	0,086405	22,270000	51,370000
2,746089	366,582355	743,750	0,079102	22,270000	51,410000
2,725015	351,501176	744,802	0,072738	22,270000	51,410000
2,704056	338,200718	745,854	0,067125	22,270000	51,410000
2,683046	322,014542	746,908	0,060294	22,270000	51,385000
2,662025	306,668395	747,960	0,053818	22,270000	51,385000
2,641104	290,161711	749,014	0,046853	22,270000	51,385000
2,620079	275,073589	750,067	0,040485	22,270000	51,385000
2,599047	260,149770	751,118	0,034188	22,260000	51,385000
2,578037	247,616447	752,170	0,028898	22,260000	51,385000
2,557093	232,324682	753,223	0,022445	22,260000	51,385000
2,536039	215,944118	754,274	0,015533	22,260000	51,385000
2,515116	200,127046	755,326	0,008858	22,270000	51,400000
2,494122	186,747908	756,376	0,003212	22,270000	51,400000
2,473075	172,293857	757,429	-0,002888	22,270000	51,400000
2,452069	157,151353	758,479	-0,009278	22,270000	51,400000
2,431104	140,840214	759,531	-0,016161	22,280000	51,425000
2,410100	125,218685	760,583	-0,022753	22,280000	51,425000
2,389029	112,584697	761,636	-0,028085	22,270000	51,400000
2,368080	98,350489	762,688	-0,034092	22,270000	51,400000
2,347107	83,592130	763,739	-0,040320	22,270000	51,400000
2,326048	69,106839	764,790	-0,046433	22,270000	51,400000
2,305064	54,340381	765,840	-0,052664	22,270000	51,410000
2,284111	38,593889	766,890	-0,059309	22,270000	51,385000
2,263073	24,681344	767,943	-0,065180	22,270000	51,385000
2,242096	10,102331	768,994	-0,071333	22,270000	51,385000
2,221066	-5,565481	770,044	-0,077944	22,270000	51,385000
2,200056	-21,413794	771,094	-0,084632	22,270000	51,385000
2,179072	-34,925994	772,146	-0,090334	22,270000	51,385000
2,158034	-48,298189	773,196	-0,095978	22,280000	51,425000
2,137115	-62,844805	774,248	-0,102116	22,280000	51,425000
2,116059	-76,812889	775,301	-0,108011	22,280000	51,425000
2,095097	-93,805539	776,351	-0,115182	22,280000	51,425000
2,074105	-105,498834	777,402	-0,120116	22,270000	51,400000
2,053133	-120,391412	778,454	-0,126401	22,270000	51,400000
2,032053	-136,349646	779,504	-0,133135	22,270000	51,410000
2,011028	-148,482626	780,556	-0,138255	22,270000	51,410000
1,990090	-165,373454	781,609	-0,145383	22,270000	51,410000
1,969118	-177,028566	782,661	-0,150302	22,270000	51,410000
1,948116	-191,285915	783,711	-0,156318	22,270000	51,425000
1,927174	-208,137404	784,763	-0,163430	22,270000	51,425000
1,906107	-221,555882	785,816	-0,169092	22,270000	51,400000
1,885130	-234,583272	786,866	-0,174590	22,270000	51,400000
1,864110	-249,059307	787,918	-0,180699	22,270000	51,400000
1,843123	-263,199793	788,970	-0,186666	22,270000	51,400000
1,822151	-275,928660	790,022	-0,192038	22,270000	51,400000
1,801093	-290,044848	791,075	-0,197995	22,270000	51,400000
1,780117	-304,701385	792,126	-0,204180	22,270000	51,400000
1,759131	-318,457725	793,177	-0,209985	22,280000	51,400000
1,738114	-330,904269	794,229	-0,215237	22,280000	51,400000
1,717132	-345,301624	795,282	-0,221313	22,270000	51,410000
1,696145	-356,792432	796,332	-0,226162	22,270000	51,410000
1,675186	-372,813148	797,385	-0,232923	22,270000	51,370000
1,654120	-382,932835	798,436	-0,237193	22,270000	51,370000
1,633099	-396,476276	799,490	-0,242909	22,270000	51,370000
1,612153	-411,140912	800,543	-0,249097	22,270000	51,370000
1,591156	-422,349396	801,594	-0,253827	22,270000	51,400000
1,570197	-436,575505	802,644	-0,259831	22,270000	51,400000
1,549174	-449,915303	803,698	-0,265460	22,270000	51,400000
1,528155	-463,867188	804,749	-0,271348	22,270000	51,400000
1,507164	-475,906444	805,801	-0,276428	22,270000	51,400000
1,486121	-488,768374	806,854	-0,281856	22,280000	51,410000
1,465112	-502,963242	807,906	-0,287846	22,280000	51,410000
1,444167	-515,739549	808,959	-0,293238	22,280000	51,410000
1,423192	-527,590205	810,010	-0,298239	22,280000	51,410000
1,402127	-541,409027	811,060	-0,304070	22,260000	51,385000
1,381133	-555,195451	812,112	-0,309888	22,260000	51,385000
1,360189	-565,407703	813,164	-0,314198	22,270000	51,410000
1,339163	-576,177660	814,218	-0,318743	22,270000	51,410000
1,318138	-590,411869	815,269	-0,324750	22,270000	51,370000
1,297158	-599,637145	816,321	-0,328643	22,270000	51,370000
1,276118	-614,474184	817,373	-0,334904	22,270000	51,370000
1,255119	-624,036165	818,426	-0,338939	22,270000	51,370000
1,234160	-632,799772	819,476	-0,342637	22,270000	51,400000
1,213178	-645,551781	820,527	-0,348019	22,270000	51,400000
1,192138	-652,332179	821,578	-0,350880	22,260000	51,345000
1,171150	-663,493224	822,630	-0,355590	22,260000	51,345000
1,150146	-673,219509	823,682	-0,359694	22,270000	51,370000
1,129152	-680,760099	824,735	-0,362876	22,270000	51,370000
1,108128	-687,634219	825,788	-0,365777	22,270000	51,410000
1,087153	-696,294848	826,840	-0,369432	22,270000	51,410000
1,066186	-707,941860	827,891	-0,374347	22,270000	51,410000
1,045147	-716,406944	828,944	-0,377919	22,270000	51,370000
1,024146	-721,125454	829,995	-0,379911	22,270000	51,370000
1,003144	-728,986550	831,045	-0,383228	22,270000	51,425000
0,982163	-736,871945	832,097	-0,386556	22,270000	51,425000
0,961115	-740,109412	833,149	-0,387922	22,270000	51,425000
0,940139	-742,475609	834,203	-0,388920	22,270000	51,425000
0,919165	-742,115762	835,255	-0,388769	22,260000	51,385000
0,898157	-742,429326	836,308	-0,388901	22,260000	51,385000
0,877167	-734,355330	837,361	-0,385494	22,270000	51,425000
0,856125	-707,314731	838,412	-0,374083	22,270000	51,425000
0,835159	-0,259182	839,463	-0,075705	22,270000	51,385000
0,814131	-0,126120	840,515	-0,075649	22,270000	51,385000
0,793184	-0,094879	841,568	-0,075636	22,270000	51,400000
0,772190	0,085623	842,622	-0,075560	22,270000	51,400000
0,751137	0,251083	843,675	-0,075490	22,270000	51,400000
0,730180	0,124963	844,726	-0,075543	22,270000	51,400000
0,709176	0,195544	845,776	-0,075513	22,280000	51,400000
0,688121	0,351748	846,827	-0,075447	22,280000	51,400000
0,667190	0,078680	847,879	-0,075563	22,260000	51,410000
0,661152	0,234884	848,179	-0,075497	22,260000	51,410000