File: Nanoindentation Datenauswertung/data/Test Measurement/1,1um
Quasi static measurement routine
Tip parameters (shape,radius, material...)
11.07.2022

Piezo position[nm]	MEMS displ.[nm]	Time[ms]	Cap [pf]
eoh
2,389974	-0,182262	0,198	-0,100155
2,392048	-0,365648	0,251	-0,100234
2,394004	-0,365648	0,301	-0,100234
2,396000	-0,488281	0,351	-0,100288
2,397981	-0,121508	0,401	-0,100128
2,399999	-0,488281	0,451	-0,100288
2,402034	-0,244141	0,501	-0,100182
2,403976	-0,426402	0,551	-0,100261
2,406022	-0,792051	0,601	-0,100419
2,408028	-0,792051	0,652	-0,100419
2,410004	-0,731297	0,702	-0,100393
2,412000	-0,792051	0,752	-0,100419
2,413996	-0,244141	0,802	-0,100182
2,416039	-0,853930	0,853	-0,100446
2,418047	-0,365648	0,903	-0,100234
2,420042	-1,036191	0,954	-0,100525
2,422028	-0,609789	1,005	-0,100340
2,424031	-1,096945	1,055	-0,100552
2,426043	-0,244141	1,105	-0,100182
2,427961	-0,853930	1,156	-0,100446
2,430010	-1,096945	1,207	-0,100552
2,432021	-0,975437	1,258	-0,100499
2,433996	-0,914684	1,308	-0,100473
2,436005	-1,036191	1,358	-0,100525
2,438015	-1,157699	1,408	-0,100578
2,440032	-1,280332	1,458	-0,100631
2,442016	-1,280332	1,509	-0,100631
2,444007	-1,462594	1,560	-0,100710
2,445977	-1,950875	1,610	-0,100922
2,448003	-1,890121	1,660	-0,100896
2,450022	-1,585226	1,710	-0,100764
2,451989	-2,072383	1,760	-0,100975
2,454051	-2,195015	1,810	-0,101028
2,455990	-2,195015	1,860	-0,101028
2,458011	-2,804805	1,910	-0,101293
2,459989	-2,255769	1,960	-0,101055
2,461990	-3,231207	2,011	-0,101478
2,464069	-2,011629	2,062	-0,100949
2,466019	-2,499910	2,112	-0,101161
2,467991	-2,499910	2,162	-0,101161
2,470019	-2,621418	2,212	-0,101213
2,471997	-2,926312	2,263	-0,101346
2,473962	-3,170453	2,313	-0,101452
2,475999	-3,047820	2,363	-0,101398
2,478012	-3,962504	2,413	-0,101795
2,480062	-4,145890	2,463	-0,101875
2,482038	-4,145890	2,514	-0,101875
2,483976	-4,572293	2,564	-0,102060
2,486039	-4,450785	2,614	-0,102007
2,488007	-4,390031	2,664	-0,101981
2,490043	-4,877187	2,715	-0,102192
2,492003	-4,511539	2,765	-0,102034
2,493977	-4,877187	2,815	-0,102192
2,496027	-5,121328	2,866	-0,102298
2,497973	-5,060574	2,916	-0,102272
2,499979	-4,937941	2,967	-0,102219
2,502043	-5,060574	3,018	-0,102272
2,504006	-5,182082	3,068	-0,102325
2,506036	-5,852625	3,119	-0,102616
2,507976	-5,852625	3,169	-0,102616
2,510019	-5,242836	3,219	-0,102351
2,511957	-5,913378	3,269	-0,102642
2,514034	-5,852625	3,319	-0,102616
2,516032	-6,219398	3,370	-0,102775
2,518041	-5,975257	3,420	-0,102669
2,519980	-6,585046	3,470	-0,102934
2,521967	-6,340906	3,520	-0,102828
2,524038	-6,523167	3,570	-0,102907
2,526014	-6,645800	3,620	-0,102960
2,528002	-6,523167	3,670	-0,102907
2,529991	-7,377097	3,720	-0,103277
2,531981	-7,132957	3,770	-0,103171
2,533979	-7,681992	3,820	-0,103410
2,535995	-7,316343	3,871	-0,103251
2,538039	-7,011449	3,921	-0,103119
2,540003	-7,316343	3,971	-0,103251
2,542053	-7,681992	4,021	-0,103410
2,544017	-7,437851	4,071	-0,103304
2,546036	-9,084956	4,121	-0,104019
2,547965	-9,388726	4,171	-0,104150
2,550017	-9,084956	4,221	-0,104019
2,551977	-9,267218	4,272	-0,104098
2,553979	-9,206464	4,322	-0,104071
2,555991	-9,572113	4,373	-0,104230
2,558009	-9,388726	4,424	-0,104150
2,560002	-9,388726	4,474	-0,104150
2,561964	-9,388726	4,524	-0,104150
2,564010	-9,937761	4,574	-0,104389
2,566002	-9,937761	4,624	-0,104389
2,567995	-10,181902	4,674	-0,104495
2,569989	-9,693620	4,724	-0,104283
2,571995	-10,121148	4,774	-0,104468
2,574001	-9,693620	4,824	-0,104283
2,575989	-9,816253	4,874	-0,104336
2,578010	-10,365288	4,924	-0,104574
2,579965	-11,462234	4,974	-0,105050
2,582066	-12,559179	5,025	-0,105526
2,583986	-11,522987	5,075	-0,105077
2,585979	-12,132776	5,126	-0,105341
2,588019	-11,950515	5,176	-0,105262
2,589990	-12,621058	5,226	-0,105553
2,591957	-12,254284	5,276	-0,105394
2,594001	-19,022717	5,326	-0,108332
2,596040	-20,973592	5,377	-0,109178
2,598010	-21,461874	5,429	-0,109390
2,600007	-21,461874	5,480	-0,109390
2,602012	-21,949030	5,531	-0,109602
2,604037	-22,741080	5,581	-0,109945
2,605981	-22,924467	5,631	-0,110025
2,608011	-21,888276	5,681	-0,109575
2,609907	-21,644135	5,731	-0,109469
2,611978	-19,509874	5,782	-0,108543
2,614003	-18,717823	5,833	-0,108199
2,615989	-18,047280	5,883	-0,107908
2,617992	-17,558999	5,934	-0,107696
2,620006	-15,791511	5,984	-0,106929
2,621976	-14,206284	6,034	-0,106241
2,624011	-13,900265	6,085	-0,106108
2,625992	-12,498425	6,136	-0,105500
2,627982	-11,644495	6,186	-0,105129
2,629968	-9,572113	6,236	-0,104230
2,632008	-8,718183	6,286	-0,103859
2,634011	-8,169148	6,336	-0,103621
2,635997	-6,828062	6,386	-0,103039
2,637988	-5,975257	6,436	-0,102669
2,639978	-4,390031	6,486	-0,101981
2,641978	-3,901750	6,536	-0,101769
2,644003	-2,377277	6,586	-0,101107
2,645967	-1,645980	6,636	-0,100790
2,648004	-0,609789	6,687	-0,100340
2,649987	0,609789	6,737	-0,099811
2,652002	2,011629	6,787	-0,099203
2,653989	2,926312	6,837	-0,098806
2,656042	3,780242	6,888	-0,098435
2,657980	5,183207	6,938	-0,097826
2,660028	6,280152	6,988	-0,097350
2,661982	7,377097	7,038	-0,096874
2,663975	9,389851	7,088	-0,096000
2,666002	10,670183	7,139	-0,095445
2,668026	12,194655	7,189	-0,094783
2,670020	13,170093	7,240	-0,094360
2,672009	13,962144	7,290	-0,094016
2,674004	16,278667	7,340	-0,093011
2,675975	18,108034	7,390	-0,092217
2,678011	18,961964	7,440	-0,091846
2,680009	20,425682	7,490	-0,091211
2,682001	21,583381	7,540	-0,090708
2,684013	23,473502	7,591	-0,089888
2,686054	24,876467	7,641	-0,089279
2,687993	25,912658	7,692	-0,088830
2,689981	27,375252	7,742	-0,088195
2,692004	28,960478	7,799	-0,087507
2,693990	30,484951	7,849	-0,086845
2,696022	32,070177	7,899	-0,086157
2,697982	33,046740	7,949	-0,085733
2,700005	34,935736	8,000	-0,084914
2,701986	36,094560	8,051	-0,084411
2,704004	37,862048	8,101	-0,083644
2,706028	38,411083	8,151	-0,083405
2,708002	39,996310	8,201	-0,082717
2,710009	41,215888	8,251	-0,082188
2,711971	42,617728	8,302	-0,081580
2,714039	43,289396	8,353	-0,081288
2,715972	44,386341	8,403	-0,080812
2,717995	45,910813	8,453	-0,080150
2,720023	46,642110	8,503	-0,079833
2,722010	47,191145	8,553	-0,079595
2,723999	48,958633	8,608	-0,078828
2,726019	49,568422	8,659	-0,078563
2,727990	50,483106	8,709	-0,078166
2,730022	51,824192	8,759	-0,077584
2,732017	52,800754	8,809	-0,077160
2,733997	53,714313	8,860	-0,076764
2,735966	54,628996	8,910	-0,076367
2,738001	56,519117	8,961	-0,075546
2,740003	57,433801	9,014	-0,075149
2,742023	59,019027	9,064	-0,074461
2,744015	60,055219	9,114	-0,074012
2,745958	60,909148	9,164	-0,073641
2,747970	60,969902	9,214	-0,073615
2,749991	63,774707	9,265	-0,072397
2,752004	64,810898	9,315	-0,071948
2,753960	65,359933	9,365	-0,071709
2,755988	66,884406	9,419	-0,071048
2,758041	67,920597	9,474	-0,070598
2,759976	68,956788	9,524	-0,070148
2,762014	70,298999	9,575	-0,069566
2,763998	70,969542	9,625	-0,069275
2,765972	71,944979	9,676	-0,068852
2,768004	73,530206	9,726	-0,068164
2,770030	73,774347	9,777	-0,068058
2,771962	75,603714	9,829	-0,067264
2,773971	76,761413	9,880	-0,066761
2,775997	77,493835	9,931	-0,066443
2,777977	79,139815	9,981	-0,065729
2,779968	79,749604	10,032	-0,065464
2,781979	81,272951	10,082	-0,064803
2,783998	82,736670	10,132	-0,064168
2,785978	83,528721	10,182	-0,063824
2,787987	84,870932	10,232	-0,063242
2,790029	86,090510	10,282	-0,062712
2,791967	87,797244	10,332	-0,061972
2,793987	88,711928	10,382	-0,061575
2,795992	89,503978	10,433	-0,061231
2,797988	91,211838	10,483	-0,060490
2,800027	92,430291	10,533	-0,059961
2,801986	94,015517	10,583	-0,059273
2,804007	93,772501	10,633	-0,059378
2,806024	95,601869	10,684	-0,058584
2,807971	96,820322	10,734	-0,058056
2,810020	98,223286	10,784	-0,057447
2,812021	99,320231	10,834	-0,056971
2,813999	100,783950	10,885	-0,056335
2,815988	101,454493	10,935	-0,056044
2,817979	102,246544	10,986	-0,055701
2,819994	103,100473	11,036	-0,055330
2,822027	104,746454	11,086	-0,054616
2,823963	106,088665	11,136	-0,054033
2,826005	107,124856	11,187	-0,053583
2,828010	108,282555	11,237	-0,053081
2,829966	108,954223	11,287	-0,052790
2,831995	110,416817	11,337	-0,052155
2,834050	110,600203	11,387	-0,052075
2,835987	112,002043	11,437	-0,051467
2,837995	113,038234	11,487	-0,051017
2,840044	114,441199	11,537	-0,050408
2,841965	115,050988	11,588	-0,050144
2,843973	116,696969	11,639	-0,049429
2,845995	118,342949	11,690	-0,048715
2,848015	118,708597	11,740	-0,048556
2,850018	119,684035	11,790	-0,048133
2,851943	120,537964	11,841	-0,047762
2,854029	122,244699	11,891	-0,047021
2,855985	122,977121	11,941	-0,046704
2,858041	124,074066	11,991	-0,046228
2,860009	125,110257	12,041	-0,045778
2,861976	125,842679	12,091	-0,045460
2,864014	127,062257	12,142	-0,044931
2,866006	128,708237	12,193	-0,044216
2,867998	129,257272	12,252	-0,043978
2,869965	129,195394	12,303	-0,044005
2,872013	131,207022	12,353	-0,043132
2,874022	131,939444	12,403	-0,042814
2,875977	133,037514	12,453	-0,042337
2,877995	134,134460	12,503	-0,041861
2,879991	135,658932	12,554	-0,041200
2,881976	137,000018	12,609	-0,040618
2,883981	137,609807	12,659	-0,040353
2,885974	138,890139	12,709	-0,039797
2,887983	140,170471	12,759	-0,039242
2,889979	140,780260	12,809	-0,038977
2,892007	141,937959	12,860	-0,038475
2,893974	142,791889	12,910	-0,038104
2,895991	144,499748	12,960	-0,037363
2,897997	144,742764	13,010	-0,037257
2,899964	145,780080	13,060	-0,036807
2,901953	146,755517	13,111	-0,036384
2,903953	148,218111	13,162	-0,035749
2,905982	149,437689	13,213	-0,035220
2,908005	150,962162	13,264	-0,034558
2,910004	151,876845	13,314	-0,034161
2,911984	154,011107	13,364	-0,033235
2,913969	154,132614	13,414	-0,033182
2,915961	155,534454	13,464	-0,032574
2,917968	157,242314	13,514	-0,031833
2,919987	158,522645	13,565	-0,031277
2,921940	159,558837	13,616	-0,030827
2,923965	160,429642	13,666	-0,030449
2,925958	160,717661	13,717	-0,030324
2,928000	163,521340	13,767	-0,029107
2,930020	163,765481	13,818	-0,029001
2,931958	166,143883	13,869	-0,027969
2,933950	167,729110	13,920	-0,027281
2,935977	168,704547	13,970	-0,026858
2,937966	169,619231	14,021	-0,026461
2,939983	171,447473	14,071	-0,025667
2,942019	173,155332	14,121	-0,024926
2,943970	174,313031	14,172	-0,024424
2,945984	174,619051	14,222	-0,024291
2,948003	176,386539	14,272	-0,023524
2,949998	178,276660	14,322	-0,022704
2,951983	179,740378	14,372	-0,022068
2,953952	181,325605	14,423	-0,021380
2,955967	182,850077	14,473	-0,020719
2,958061	184,068530	14,523	-0,020190
2,959963	184,861706	14,574	-0,019846
2,961981	186,812581	14,624	-0,018999
2,964022	188,092913	14,674	-0,018443
2,965919	189,250612	14,725	-0,017941
2,968010	190,532069	14,776	-0,017385
2,969942	192,543698	14,826	-0,016512
2,971972	192,543698	14,877	-0,016512
2,973998	194,920975	14,928	-0,015480
2,975990	196,323940	14,978	-0,014871
2,977971	197,725779	15,029	-0,014263
2,980004	198,884604	15,079	-0,013760
2,981971	200,713971	15,129	-0,012966
2,983991	202,299197	15,179	-0,012278
2,986003	203,152002	15,229	-0,011908
2,987954	204,554967	15,279	-0,011299
2,989988	205,591158	15,330	-0,010849
2,991992	207,481279	15,380	-0,010029
2,993986	208,761611	15,430	-0,009473
2,996013	210,651732	15,480	-0,008653
2,998043	211,505661	15,530	-0,008282
2,999946	212,724114	15,581	-0,007753
3,002034	213,638798	15,632	-0,007356
3,003956	215,163270	15,682	-0,006695
3,005963	216,443602	15,732	-0,006139
3,007965	217,723934	15,782	-0,005583
3,009943	219,004266	15,832	-0,005028
3,011973	220,285723	15,882	-0,004472
3,014006	222,297352	15,932	-0,003599
3,015982	223,577684	15,982	-0,003043
3,018019	224,674629	16,032	-0,002567
3,019974	226,503996	16,083	-0,001773
3,021959	227,357926	16,134	-0,001402
3,023957	228,882398	16,184	-0,000741
3,025964	229,491062	16,234	-0,000477
3,027997	231,503816	16,284	0,000397
3,029991	231,990972	16,335	0,000608
3,031968	233,941847	16,386	0,001455
3,033963	234,551636	16,436	0,001720
3,035998	236,197617	16,486	0,002434
3,037954	237,479074	16,536	0,002990
3,039988	238,820159	16,587	0,003572
3,041963	240,282753	16,640	0,004207
3,043993	241,685718	16,691	0,004816
3,046022	242,905296	16,741	0,005345
3,047956	243,331698	16,791	0,005530
3,050013	244,062995	16,841	0,005848
3,052016	222,541493	16,891	-0,003493
3,053985	223,333543	16,942	-0,003149
3,055953	223,820700	16,993	-0,002938
3,057998	225,101031	17,045	-0,002382
3,059967	226,625504	17,095	-0,001720
3,061914	227,723574	17,145	-0,001244
3,063937	228,820520	17,195	-0,000768
3,065949	229,491062	17,245	-0,000477
3,068013	230,589133	17,296	0,000000
3,069979	231,625324	17,347	0,000450
3,071978	231,503816	17,397	0,000397
3,073964	233,028289	17,447	0,001059
3,075970	234,674269	17,497	0,001773
3,077977	235,588953	17,548	0,002170
3,079967	236,259496	17,598	0,002461
3,081958	237,234933	17,648	0,002884
3,083963	237,661335	17,698	0,003069
3,085951	239,369195	17,748	0,003811
3,087985	240,221999	17,798	0,004181
3,089997	241,685718	17,848	0,004816
3,091986	242,477769	17,898	0,005160
3,093977	243,270944	17,949	0,005504
3,095968	244,124874	17,999	0,005875
3,097932	244,246382	18,049	0,005927
3,099964	246,136503	18,099	0,006748
3,101959	246,075749	18,149	0,006721
3,103950	245,708975	18,213	0,006562
3,105958	247,538342	18,264	0,007356
3,107972	248,331518	18,315	0,007700
3,109954	249,490342	18,365	0,008203
3,111942	250,038252	18,416	0,008441
3,113958	250,648041	18,467	0,008706
3,115997	251,623479	18,518	0,009129
3,117927	252,721549	18,568	0,009605
3,120024	253,940002	18,639	0,010134
3,121968	254,915440	18,690	0,010558
3,123980	256,684053	18,740	0,011325
3,125968	256,867440	18,790	0,011405
3,127988	257,598736	18,840	0,011722
3,129969	258,147771	18,891	0,011960
3,131983	259,183963	18,941	0,012410
3,133952	260,280908	18,992	0,012886
3,135932	260,708435	19,050	0,013072
3,137947	262,598556	19,100	0,013892
3,139956	262,964205	19,150	0,014051
3,141913	263,878888	19,201	0,014448
3,143942	266,012025	19,251	0,015374
3,145949	266,621814	19,302	0,015638
3,147936	268,267794	19,352	0,016353
3,149965	269,670759	19,402	0,016961
3,151986	269,854146	19,460	0,017041
3,154028	271,805021	19,511	0,017888
3,155971	272,963845	19,561	0,018391
3,157993	274,121544	19,612	0,018893
3,159957	275,096981	19,662	0,019316
3,161906	276,621454	19,712	0,019978
3,163922	277,536137	19,762	0,020375
3,165960	278,816469	19,821	0,020931
3,167926	280,401696	19,872	0,021619
3,169933	281,132993	19,923	0,021936
3,171945	282,352571	19,973	0,022465
3,173987	283,632903	20,023	0,023021
3,175945	284,486832	20,073	0,023392
3,177930	285,523023	20,124	0,023841
3,179929	286,864109	20,174	0,024423
3,181941	287,718039	20,224	0,024794
3,183973	288,998371	20,275	0,025350
3,185974	289,119879	20,326	0,025402
3,187942	289,729668	20,377	0,025667
3,189980	290,888492	20,428	0,026170
3,191988	292,047316	20,479	0,026673
3,193950	292,960874	20,530	0,027069
3,195980	293,814804	20,580	0,027440
3,197955	295,644171	20,637	0,028234
3,199973	296,375468	20,688	0,028551
3,201957	296,070574	20,738	0,028419
3,203909	297,655800	20,788	0,029107
3,205920	297,716554	20,838	0,029133
3,207932	298,814624	20,888	0,029610
3,209964	299,058765	20,939	0,029716
3,211888	299,606675	20,990	0,029954
3,213927	301,131147	21,051	0,030615
3,215934	301,862444	21,101	0,030933
3,217938	303,691811	21,151	0,031727
3,219962	304,789882	21,201	0,032203
3,221924	305,581932	21,252	0,032547
3,223941	307,472053	21,302	0,033367
3,225964	308,081842	21,352	0,033632
3,227939	307,776948	21,403	0,033500
3,229925	308,935772	21,482	0,034002
3,232010	309,118034	21,533	0,034082
3,233969	309,911209	21,584	0,034426
3,235953	310,947401	21,634	0,034875
3,237926	311,739451	21,684	0,035219
3,239930	312,959029	21,734	0,035749
3,241931	314,361994	21,784	0,036357
3,243898	315,154045	21,836	0,036701
3,245926	316,252115	21,886	0,037178
3,247927	316,678517	21,937	0,037363
3,249917	318,019603	21,988	0,037945
3,251929	319,178427	22,038	0,038448
3,253916	320,824408	22,088	0,039162
3,255936	321,617584	22,139	0,039506
3,257928	321,922478	22,190	0,039639
3,259931	323,142056	22,240	0,040168
3,261973	323,934107	22,290	0,040512
3,263936	323,994861	22,341	0,040538
3,265949	323,994861	22,392	0,040538
3,268017	324,788036	22,442	0,040882
3,269928	326,311384	22,492	0,041543
3,271926	326,555525	22,543	0,041649
3,273902	328,201505	22,594	0,042364
3,275985	329,421083	22,644	0,042893
3,277953	330,091626	22,694	0,043184
3,279955	331,738731	22,744	0,043899
3,281934	332,835676	22,794	0,044375
3,283944	334,238641	22,844	0,044984
3,285927	336,006129	22,895	0,045751
3,287899	336,555165	22,945	0,045989
3,289934	337,225707	22,996	0,046280
3,291903	338,810934	23,047	0,046968
3,293916	338,932442	23,098	0,047021
3,295989	340,152020	23,148	0,047550
3,297918	341,676492	23,198	0,048212
3,299939	342,651930	23,248	0,048635
3,301927	342,651930	23,299	0,048635
3,303912	345,029207	23,349	0,049667
3,305905	345,943890	23,400	0,050064
3,307927	345,943890	23,450	0,050064
3,309887	348,687941	23,500	0,051255
3,311922	350,089781	23,550	0,051863
3,313961	350,822203	23,601	0,052181
3,315890	352,163288	23,652	0,052763
3,317960	352,894585	23,702	0,053081
3,319919	353,687761	23,752	0,053425
3,321900	354,174917	23,802	0,053636
3,323926	355,455249	23,871	0,054192
3,325945	356,674827	23,921	0,054721
3,327898	356,979722	23,972	0,054854
3,329989	358,625702	24,022	0,055568
3,331944	360,271682	24,072	0,056282
3,333932	360,394315	24,122	0,056335
3,335912	361,918788	24,172	0,056997
3,337901	363,686276	24,223	0,057764
3,339961	364,051924	24,274	0,057923
3,341905	364,479452	24,324	0,058108
3,343901	365,820538	24,375	0,058690
3,345954	366,369573	24,425	0,058929
3,347946	367,771412	24,476	0,059537
3,349953	368,746850	24,526	0,059960
3,351940	369,966428	24,576	0,060490
3,353911	371,368268	24,626	0,061098
3,355942	372,344830	24,676	0,061522
3,357923	372,831986	24,726	0,061733
3,359931	374,295705	24,777	0,062369
3,361894	375,271142	24,827	0,062792
3,363946	375,392650	24,877	0,062845
3,365939	377,038630	24,928	0,063559
3,367938	377,466158	24,978	0,063745
3,369871	377,710298	25,036	0,063851
3,371896	379,356279	25,088	0,064565
3,373900	380,575857	25,139	0,065094
3,375865	381,367908	25,189	0,065438
3,377906	382,404099	25,240	0,065888
3,379898	382,892380	25,290	0,066100
3,381875	384,233466	25,340	0,066682
3,383911	384,477607	25,390	0,066788
3,385884	385,697185	25,440	0,067317
3,387869	386,062833	25,490	0,067476
3,389930	387,038270	25,540	0,067899
3,391906	387,525427	25,590	0,068110
3,393885	388,257849	25,640	0,068428
3,395919	389,659688	25,690	0,069037
3,397928	391,244915	25,740	0,069725
3,399922	391,672442	25,790	0,069910
3,401853	393,013528	25,843	0,070492
3,403945	394,597629	25,893	0,071180
3,405900	394,964403	25,943	0,071339
3,407891	395,390805	25,994	0,071524
3,409929	396,244735	26,045	0,071895
3,411903	397,159418	26,095	0,072292
3,413912	397,525067	26,145	0,072450
3,415931	398,074102	26,195	0,072688
3,417881	399,475941	26,253	0,073297
3,419870	400,085730	26,303	0,073562
3,421897	400,207238	26,353	0,073614
3,423916	401,487570	26,403	0,074170
3,425895	402,219992	26,454	0,074488
3,427916	402,097359	26,504	0,074435
3,429906	403,439570	26,555	0,075017
3,431933	403,561078	26,606	0,075070
3,433867	404,353129	26,684	0,075414
3,435929	405,511953	26,734	0,075917
3,437977	406,000234	26,785	0,076128
3,439908	406,914918	26,835	0,076525
3,441913	408,133371	26,885	0,077054
3,443856	407,706968	26,935	0,076869
3,445903	409,841230	26,985	0,077795
3,447881	412,280386	27,035	0,078854
3,449922	412,767542	27,085	0,079065
3,451906	413,803733	27,135	0,079515
3,453923	414,839925	27,185	0,079965
3,455936	415,937995	27,236	0,080441
3,457909	416,364397	27,286	0,080626
3,459926	418,377151	27,337	0,081500
3,461895	418,864307	27,387	0,081711
3,463894	421,120077	27,437	0,082690
3,465903	421,303463	27,487	0,082770
3,467825	423,193584	27,537	0,083590
3,469850	424,778811	27,587	0,084278
3,471864	424,961073	27,637	0,084357
3,473898	425,936510	27,687	0,084781
3,475904	426,424791	27,737	0,084993
3,477878	427,949264	27,787	0,085654
3,479879	429,290350	27,853	0,086236
3,481898	430,449174	27,903	0,086739
3,483890	431,363857	27,953	0,087136
3,485843	431,911767	28,004	0,087374
3,487896	433,009838	28,054	0,087851
3,489915	434,838080	28,104	0,088644
3,489884	434,838080	28,155	0,088644
3,489884	434,899959	28,220	0,088671
3,489918	434,411677	28,271	0,088459
3,489903	434,229416	28,321	0,088380
3,489908	434,350923	28,372	0,088433
3,489875	433,741134	28,423	0,088168
3,489869	433,680381	28,474	0,088142
3,489885	433,680381	28,525	0,088142
3,489874	433,314732	28,576	0,087983
3,489880	433,557748	28,627	0,088088
3,489897	432,521556	28,678	0,087639
3,489850	433,070592	28,729	0,087877
3,489852	433,009838	28,780	0,087851
3,489865	432,644189	28,831	0,087692
3,489894	433,436240	28,881	0,088036
3,489936	432,826451	28,931	0,087771
3,489897	432,826451	28,981	0,087771
3,489880	432,460802	29,033	0,087612
3,489873	432,521556	29,084	0,087639
3,489944	432,400049	29,135	0,087586
3,489892	432,704943	29,185	0,087718
3,489888	432,704943	29,235	0,087718
3,489887	432,582310	29,285	0,087665
3,489897	432,034400	29,335	0,087427
3,489926	431,972521	29,385	0,087400
3,489914	432,704943	29,435	0,087718
3,489901	432,400049	29,485	0,087586
3,489910	431,911767	29,536	0,087374
3,489852	432,521556	29,586	0,087639
3,489861	432,216662	29,636	0,087506
3,489843	432,216662	29,686	0,087506
3,489850	431,851013	29,736	0,087348
3,489932	431,911767	29,787	0,087374
3,489908	431,546119	29,838	0,087215
3,489897	431,790260	29,888	0,087321
3,489883	431,972521	29,939	0,087400
3,489923	431,972521	29,989	0,087400
3,489862	431,851013	30,039	0,087348
3,489862	431,851013	30,090	0,087348
3,489886	432,034400	30,140	0,087427
3,489919	431,729506	30,190	0,087295
3,489893	431,546119	30,241	0,087215
3,489806	432,155908	30,292	0,087480
3,489908	431,851013	30,343	0,087348
3,489970	431,667627	30,393	0,087268
3,489898	431,851013	30,443	0,087348
3,489844	432,034400	30,493	0,087427
3,489889	431,972521	30,543	0,087400
3,489854	431,363857	30,594	0,087136
3,489835	432,339295	30,644	0,087560
3,489927	432,155908	30,694	0,087480
3,489881	431,851013	30,744	0,087348
3,489869	431,667627	30,794	0,087268
3,489889	431,606873	30,844	0,087242
3,489863	431,851013	30,894	0,087348
3,489888	431,485365	30,945	0,087189
3,489917	431,729506	30,995	0,087295
3,489886	431,911767	31,062	0,087374
3,489910	431,301978	31,113	0,087109
3,489867	431,546119	31,164	0,087215
3,489860	431,363857	31,215	0,087136
3,489909	431,851013	31,266	0,087348
3,489868	431,851013	31,316	0,087348
3,489887	431,546119	31,366	0,087215
3,489856	431,424611	31,430	0,087163
3,489887	431,301978	31,480	0,087109
3,489873	431,241224	31,530	0,087083
3,489917	431,485365	31,580	0,087189
3,489853	431,424611	31,630	0,087163
3,489902	431,301978	31,680	0,087109
3,489906	431,485365	31,730	0,087189
3,489831	431,606873	31,780	0,087242
3,489954	431,301978	31,837	0,087109
3,489867	431,424611	31,887	0,087163
3,489875	431,301978	31,938	0,087109
3,489913	431,241224	31,989	0,087083
3,489890	431,606873	32,040	0,087242
3,489912	431,911767	32,090	0,087374
3,489877	430,814822	32,140	0,086898
3,489848	431,057838	32,190	0,087003
3,489911	430,754068	32,241	0,086872
3,489859	430,754068	32,291	0,086872
3,489901	431,119717	32,342	0,087030
3,489921	431,241224	32,392	0,087083
3,489919	430,509928	32,442	0,086766
3,489907	431,301978	32,492	0,087109
3,489887	431,301978	32,543	0,087109
3,489868	430,631435	32,593	0,086818
3,489909	431,180471	32,653	0,087057
3,489905	430,814822	32,704	0,086898
3,489912	431,119717	32,754	0,087030
3,489923	431,911767	32,804	0,087374
3,489895	431,363857	32,854	0,087136
3,489879	431,119717	32,904	0,087030
3,489908	430,631435	32,954	0,086818
3,489872	431,057838	33,004	0,087003
3,489888	431,057838	33,054	0,087003
3,489896	430,754068	33,104	0,086872
3,489878	430,875576	33,155	0,086924
3,489845	431,119717	33,205	0,087030
3,487937	429,716752	33,255	0,086421
3,485932	427,705123	33,305	0,085548
3,483872	426,790440	33,355	0,085151
3,481846	425,265967	33,405	0,084490
3,479900	423,803373	33,461	0,083855
3,477892	421,913252	33,511	0,083035
3,475925	421,424971	33,561	0,082823
3,473866	419,108448	33,611	0,081817
3,471895	418,011503	33,661	0,081341
3,469895	416,121382	33,711	0,080521
3,467906	415,084065	33,762	0,080071
3,465866	413,864487	33,812	0,079542
3,463925	412,340015	33,862	0,078880
3,461959	410,572527	33,914	0,078113
3,459896	408,926546	33,964	0,077398
3,457916	408,438265	34,015	0,077187
3,455880	406,608898	34,065	0,076393
3,453881	405,207058	34,115	0,075784
3,451892	403,865972	34,165	0,075202
3,449868	402,159238	34,215	0,074461
3,447909	401,182676	34,265	0,074038
3,445886	399,293680	34,315	0,073218
3,443920	397,646574	34,366	0,072503
3,441879	396,244735	34,417	0,071895
3,439892	395,025157	34,468	0,071365
3,437873	393,928211	34,519	0,070889
3,435923	391,672442	34,570	0,069910
3,433871	390,940020	34,632	0,069592
3,431908	389,415548	34,682	0,068931
3,429945	388,135216	34,732	0,068375
3,427920	386,977517	34,782	0,067873
3,425947	386,000954	34,832	0,067449
3,423899	384,294220	34,883	0,066708
3,421881	382,282591	34,933	0,065835
3,419937	381,123767	34,983	0,065332
3,417895	379,356279	35,034	0,064565
3,415914	378,502349	35,084	0,064194
3,413925	376,856369	35,134	0,063480
3,411860	375,636791	35,184	0,062951
3,409907	373,746670	35,234	0,062130
3,407894	372,710478	35,285	0,061681
3,405932	371,246760	35,335	0,061045
3,403889	369,905674	35,385	0,060463
3,401924	368,381201	35,435	0,059802
3,399882	366,979362	35,485	0,059193
3,397904	364,845100	35,535	0,058267
3,395937	364,051924	35,586	0,057923
3,393911	363,015733	35,636	0,057473
3,391916	360,759964	35,687	0,056494
3,389949	360,210928	35,737	0,056256
3,387884	358,199300	35,787	0,055383
3,385888	357,102355	35,843	0,054907
3,383926	355,577882	35,893	0,054245
3,381914	353,322113	35,944	0,053266
3,379888	352,468183	35,994	0,052896
3,377860	350,943710	36,045	0,052234
3,375923	350,578062	36,096	0,052075
3,373896	349,602625	36,146	0,051652
3,371925	346,797820	36,196	0,050435
3,369924	345,517488	36,246	0,049879
3,367906	343,750000	36,297	0,049112
3,365867	343,322473	36,347	0,048926
3,363884	341,676492	36,397	0,048212
3,361910	339,663738	36,447	0,047338
3,359913	338,627547	36,497	0,046889
3,357891	336,494411	36,548	0,045963
3,355955	336,066883	36,598	0,045777
3,353918	333,506219	36,662	0,044666
3,351951	332,957184	36,713	0,044428
3,349895	331,189696	36,764	0,043661
3,347932	330,091626	36,815	0,043184
3,345931	328,689786	36,866	0,042576
3,343866	327,043806	36,916	0,041861
3,341909	325,884982	36,966	0,041358
3,339960	324,483142	37,016	0,040750
3,337907	323,142056	37,069	0,040168
3,335905	321,555705	37,119	0,039479
3,333960	319,848970	37,169	0,038739
3,331917	318,812779	37,219	0,038289
3,329925	317,349060	37,269	0,037654
3,327905	317,104920	37,320	0,037548
3,325971	314,788396	37,371	0,036542
3,323870	312,959029	37,434	0,035749
3,321889	311,373803	37,484	0,035061
3,319888	310,398365	37,534	0,034637
3,317947	309,240666	37,584	0,034135
3,315910	307,045651	37,634	0,033182
3,313903	306,008335	37,684	0,032732
3,311928	305,642686	37,734	0,032573
3,309937	304,057460	37,784	0,031885
3,307899	302,168464	37,844	0,031065
3,305892	301,375288	37,894	0,030721
3,303953	298,996886	37,944	0,029689
3,301944	297,839187	37,995	0,029187
3,299952	296,314714	38,045	0,028525
3,297925	295,034382	38,095	0,027969
3,295945	293,937437	38,145	0,027493
3,293936	292,290332	38,195	0,026778
3,291958	291,132632	38,246	0,026276
3,289908	289,181758	38,296	0,025429
3,287929	288,083687	38,347	0,024953
3,285919	286,742602	38,397	0,024371
3,283982	285,096621	38,447	0,023656
3,281953	284,426078	38,497	0,023365
3,279932	282,291817	38,548	0,022439
3,277964	280,828098	38,598	0,021804
3,275917	279,060610	38,661	0,021037
3,273944	277,718399	38,712	0,020454
3,271971	275,829403	38,762	0,019634
3,269915	275,280368	38,812	0,019396
3,267962	272,536317	38,862	0,018205
3,265931	271,377493	38,912	0,017702
3,263920	270,098286	38,962	0,017147
3,261934	268,511935	39,012	0,016458
3,259891	267,719884	39,072	0,016115
3,257934	266,195412	39,122	0,015453
3,255965	265,036587	39,172	0,014950
3,253920	263,269099	39,223	0,014183
3,251936	262,293662	39,273	0,013760
3,249922	260,098646	39,323	0,012807
3,247913	259,061330	39,373	0,012357
3,245934	257,720244	39,430	0,011775
3,243920	256,439912	39,481	0,011219
3,241955	254,489037	39,532	0,010373
3,239918	253,392092	39,582	0,009896
3,237952	252,111760	39,632	0,009341
3,235908	250,892182	39,682	0,008812
3,233993	248,941307	39,732	0,007965
3,231962	247,538342	39,782	0,007356
3,229920	246,318764	39,841	0,006827
3,227973	244,916925	39,891	0,006218
3,225924	243,941487	39,942	0,005795
3,223906	242,782663	39,992	0,005292
3,221984	241,380823	40,044	0,004684
3,219947	239,734843	40,094	0,003969
3,217983	237,966230	40,144	0,003202
3,215935	236,685898	40,195	0,002646
3,213972	235,039918	40,245	0,001932
3,211908	233,210550	40,295	0,001138
3,209981	231,990972	40,346	0,000608
3,207929	232,356621	40,396	0,000767
3,205929	228,333363	40,447	-0,000979
3,203982	228,454871	40,497	-0,000926
3,201963	227,053031	40,547	-0,001535
3,200020	225,407051	40,597	-0,002249
3,197986	223,882578	40,662	-0,002911
3,195971	222,418860	40,714	-0,003546
3,193959	221,260036	40,764	-0,004049
3,191979	219,248407	40,814	-0,004922
3,189907	218,089583	40,864	-0,005425
3,187906	216,931884	40,915	-0,005927
3,185931	215,407411	40,965	-0,006589
3,183959	214,614235	41,015	-0,006933
3,181992	212,785993	41,075	-0,007727
3,179948	211,810556	41,126	-0,008150
3,177988	210,102697	41,176	-0,008891
3,175898	209,127259	41,227	-0,009314
3,173891	207,481279	41,277	-0,010029
3,171918	205,835298	41,327	-0,010743
3,169941	204,371580	41,377	-0,011378
3,167925	202,176564	41,431	-0,012331
3,165933	201,323760	41,481	-0,012701
3,163964	199,799287	41,531	-0,013363
3,161982	198,274815	41,581	-0,014024
3,159988	197,299377	41,631	-0,014448
3,157944	195,043608	41,682	-0,015427
3,155953	194,982854	41,732	-0,015453
3,153942	192,665206	41,783	-0,016459
3,151937	191,568260	41,840	-0,016935
3,149920	189,738893	41,890	-0,017729
3,147989	188,275175	41,940	-0,018364
3,145964	186,994843	41,990	-0,018920
3,143941	186,263546	42,043	-0,019237
3,141935	184,739073	42,094	-0,019899
3,139960	182,727445	42,144	-0,020772
3,137919	181,629374	42,195	-0,021249
3,135952	179,617746	42,245	-0,022122
3,133949	178,763816	42,296	-0,022492
3,131927	177,178589	42,346	-0,023180
3,129950	176,812941	42,396	-0,023339
3,127939	174,435664	42,446	-0,024371
3,125987	173,155332	42,496	-0,024926
3,123927	171,325965	42,546	-0,025720
3,121931	169,557352	42,596	-0,026488
3,119941	168,034004	42,647	-0,027149
3,117925	166,814426	42,697	-0,027678
3,115921	165,289954	42,747	-0,028340
3,113964	164,009622	42,797	-0,028896
3,111983	162,729290	42,848	-0,029451
3,109946	161,265571	42,899	-0,030086
3,107973	159,742224	42,949	-0,030748
3,105924	157,973610	42,999	-0,031515
3,103944	157,242314	43,049	-0,031833
3,101987	155,168806	43,099	-0,032732
3,099967	153,766966	43,149	-0,033341
3,097975	152,364001	43,200	-0,033950
3,095970	151,388564	43,250	-0,034373
3,093959	150,291619	43,300	-0,034849
3,091954	148,462252	43,350	-0,035643
3,089927	147,242674	43,400	-0,036172
3,088000	146,083849	43,451	-0,036675
3,085941	144,377115	43,502	-0,037416
3,083952	143,096783	43,553	-0,037972
3,081991	141,816451	43,603	-0,038527
3,079982	139,682190	43,654	-0,039454
3,077934	139,134280	43,704	-0,039691
3,075977	137,670561	43,754	-0,040327
3,073971	136,085334	43,804	-0,041015
3,071987	135,049143	43,868	-0,041464
3,069971	133,280530	43,918	-0,042232
3,067999	132,183585	43,968	-0,042708
3,065952	131,085514	44,018	-0,043185
3,063982	129,195394	44,068	-0,044005
3,062004	127,732800	44,118	-0,044640
3,059965	126,024941	44,169	-0,045381
3,057956	125,720046	44,235	-0,045513
3,055984	122,793734	44,285	-0,046783
3,053980	122,610347	44,335	-0,046863
3,051924	121,026246	44,386	-0,047550
3,050008	119,441019	44,436	-0,048238
3,047948	118,221441	44,486	-0,048768
3,045985	116,270566	44,537	-0,049614
3,043945	114,380445	44,587	-0,050435
3,041974	113,526516	44,650	-0,050805
3,039944	111,757903	44,700	-0,051573
3,037969	110,905098	44,750	-0,051943
3,036020	109,075731	44,800	-0,052737
3,033944	107,124856	44,850	-0,053583
3,031977	106,270926	44,900	-0,053954
3,029933	105,295489	44,950	-0,054377
3,027948	103,526876	45,000	-0,055145
3,025938	102,429931	45,053	-0,055621
3,024000	101,088845	45,103	-0,056203
3,021975	99,259478	45,154	-0,056997
3,019966	97,308603	45,204	-0,057844
3,017985	96,577306	45,254	-0,058161
3,015916	94,930201	45,305	-0,058876
3,013942	93,772501	45,355	-0,059378
3,011948	91,698994	45,405	-0,060278
3,009964	91,211838	45,472	-0,060490
3,007967	89,869627	45,522	-0,061072
3,006034	87,857998	45,572	-0,061945
3,004005	86,272771	45,622	-0,062633
3,001964	84,992440	45,672	-0,063189
2,999975	84,077756	45,722	-0,063586
2,997950	82,553283	45,772	-0,064248
2,995984	81,395584	45,822	-0,064750
2,993978	79,626971	45,878	-0,065518
2,991960	77,797604	45,928	-0,066312
2,989984	76,273131	45,978	-0,066973
2,987979	74,687905	46,028	-0,067661
2,985982	73,895854	46,078	-0,068005
2,983983	72,676276	46,128	-0,068534
2,981989	71,151804	46,179	-0,069196
2,980000	69,628456	46,239	-0,069857
2,977996	68,591140	46,289	-0,070307
2,976005	67,066667	46,339	-0,070969
2,974028	64,933531	46,389	-0,071895
2,972029	64,567882	46,440	-0,072053
2,969968	63,287550	46,490	-0,072609
2,967928	62,067972	46,540	-0,073138
2,965993	61,335550	46,590	-0,073456
2,963975	60,969902	46,643	-0,073615
2,961982	60,117097	46,693	-0,073985
2,959992	59,994465	46,743	-0,074038
2,957960	59,689570	46,793	-0,074170
2,955981	59,202414	46,844	-0,074382
2,954012	58,531871	46,894	-0,074673
2,952020	58,226977	46,944	-0,074805
2,950005	57,799449	46,994	-0,074991
2,947953	57,128906	47,045	-0,075282
2,945996	55,909328	47,096	-0,075811
2,943979	55,666313	47,146	-0,075917
2,942020	55,666313	47,196	-0,075917
2,939953	54,263348	47,246	-0,076525
2,938021	55,178031	47,296	-0,076128
2,936018	54,628996	47,347	-0,076367
2,933973	54,385981	47,397	-0,076472
2,932008	52,922262	47,466	-0,077107
2,930027	52,251719	47,516	-0,077398
2,927978	52,068332	47,566	-0,077478
2,926004	51,458543	47,616	-0,077743
2,923976	50,483106	47,666	-0,078166
2,922003	50,240090	47,716	-0,078271
2,919949	49,386161	47,766	-0,078642
2,917982	49,751809	47,816	-0,078483
2,915964	47,251899	47,878	-0,079568
2,913990	47,374532	47,928	-0,079515
2,912013	46,886251	47,980	-0,079727
2,909983	46,399095	48,030	-0,079938
2,907970	46,093075	48,081	-0,080071
2,905967	46,154954	48,131	-0,080044
2,903936	45,056884	48,181	-0,080521
2,901989	46,215708	48,231	-0,080018
2,899967	46,215708	48,282	-0,080018
2,897967	43,533536	48,333	-0,081182
2,895964	43,533536	48,384	-0,081182
2,893951	42,923747	48,435	-0,081447
2,891983	42,861868	48,485	-0,081474
2,890011	42,069817	48,535	-0,081817
2,887967	41,825677	48,585	-0,081923
2,885954	40,666853	48,641	-0,082426
2,883989	39,752169	48,691	-0,082823
2,881984	39,325767	48,742	-0,083008
2,879991	39,081626	48,792	-0,083114
2,877975	38,960118	48,842	-0,083167
2,875974	38,594470	48,892	-0,083326
2,873952	37,496400	48,942	-0,083802
2,871999	37,558279	48,992	-0,083775
2,869976	36,704349	49,044	-0,084146
2,867963	36,581716	49,094	-0,084199
2,865997	36,094560	49,144	-0,084411
2,863966	35,424017	49,194	-0,084702
2,861989	35,058369	49,244	-0,084860
2,859997	34,630841	49,294	-0,085046
2,857969	33,960298	49,344	-0,085337
2,855989	34,021052	49,394	-0,085311
2,854052	33,412388	49,453	-0,085575
2,851972	33,229002	49,503	-0,085654
2,849999	30,668338	49,553	-0,086766
2,847953	30,850599	49,603	-0,086687
2,845970	30,484951	49,653	-0,086845
2,843979	30,119303	49,703	-0,087004
2,841976	30,240810	49,753	-0,086951
2,840009	29,997795	49,803	-0,087057
2,837973	29,022357	49,854	-0,087480
2,836005	27,924287	49,904	-0,087957
2,834018	27,681272	49,954	-0,088062
2,831966	26,948850	50,004	-0,088380
2,829999	26,827342	50,054	-0,088433
2,827938	27,132236	50,104	-0,088300
2,826003	25,424377	50,154	-0,089042
2,823983	24,937221	50,205	-0,089253
2,821964	24,204799	50,255	-0,089571
2,819982	24,204799	50,305	-0,089571
2,818041	24,388186	50,355	-0,089491
2,815981	22,376557	50,406	-0,090364
2,814013	22,009784	50,457	-0,090523
2,812000	21,583381	50,508	-0,090708
2,809999	20,852085	50,559	-0,091026
2,807989	20,912838	50,609	-0,091000
2,806002	20,242296	50,660	-0,091291
2,803993	19,571753	50,710	-0,091582
2,801986	19,144225	50,760	-0,091767
2,799991	18,840456	50,810	-0,091899
2,798005	17,803139	50,860	-0,092349
2,795976	17,560124	50,910	-0,092455
2,793980	16,888456	50,960	-0,092746
2,792007	17,071843	51,011	-0,092667
2,790070	16,278667	51,062	-0,093011
2,788026	15,242476	51,113	-0,093460
2,786004	15,425862	51,163	-0,093381
2,783943	14,206284	51,213	-0,093910
2,781940	14,267038	51,263	-0,093884
2,780007	13,718003	51,313	-0,094122
2,777963	13,170093	51,363	-0,094360
2,776000	12,376917	51,413	-0,094704
2,774009	11,829007	51,463	-0,094942
2,772009	11,401480	51,513	-0,095127
2,770034	11,096585	51,563	-0,095260
2,767980	10,975077	51,613	-0,095313
2,765985	9,145710	51,664	-0,096106
2,764011	9,389851	51,714	-0,096000
2,762018	8,901570	51,764	-0,096212
2,759992	8,170273	51,815	-0,096530
2,757977	7,681992	51,876	-0,096742
2,755970	7,377097	51,926	-0,096874
2,754015	7,073328	51,977	-0,097006
2,752002	5,853750	52,027	-0,097535
2,749981	5,426222	52,077	-0,097721
2,747989	4,939066	52,128	-0,097932
2,746002	4,694925	52,178	-0,098038
2,743983	4,268523	52,229	-0,098223
2,742022	3,597980	52,293	-0,098514
2,740005	3,780242	52,343	-0,098435
2,737962	2,683297	52,393	-0,098911
2,735927	2,621418	52,443	-0,098938
2,734001	2,011629	52,493	-0,099203
2,731940	1,342211	52,543	-0,099493
2,730000	1,158824	52,593	-0,099573
2,727965	0,549035	52,652	-0,099837
2,725959	0,060754	52,703	-0,100049
2,723949	-0,365648	52,753	-0,100234
2,721984	-1,036191	52,803	-0,100525
2,719978	-1,157699	52,853	-0,100578
2,717969	-0,792051	52,903	-0,100419
2,715985	-2,134262	52,953	-0,101002
2,714006	-2,682172	53,003	-0,101240
2,711975	-3,719488	53,058	-0,101690
2,710018	-4,023257	53,108	-0,101822
2,708003	-4,450785	53,158	-0,102007
2,706037	-4,206644	53,209	-0,101901
2,704058	-4,816433	53,259	-0,102166
2,701998	-5,913378	53,309	-0,102642
2,699948	-6,279027	53,359	-0,102801
2,698034	-6,523167	53,410	-0,102907
2,695981	-8,169148	53,460	-0,103621
2,694006	-8,169148	53,510	-0,103621
2,692037	-9,023077	53,561	-0,103992
2,689988	-9,327972	53,611	-0,104124
2,688064	-9,754374	53,662	-0,104309
2,685957	-9,998515	53,712	-0,104415
2,684001	-10,852445	53,762	-0,104786
2,682015	-10,730937	53,812	-0,104733
2,680000	-11,278847	53,862	-0,104971
2,677998	-12,376917	53,912	-0,105447
2,675982	-12,072023	53,963	-0,105315
2,674005	-12,559179	54,013	-0,105526
2,671984	-12,498425	54,063	-0,105500
2,670001	-12,803319	54,113	-0,105632
2,668010	-13,596495	54,164	-0,105977
2,665979	-14,267038	54,214	-0,106268
2,664021	-14,998335	54,264	-0,106585
2,661967	-16,583561	54,315	-0,107273
2,659961	-16,339421	54,365	-0,107167
2,658010	-16,339421	54,415	-0,107167
2,655999	-17,132596	54,465	-0,107511
2,653967	-17,193350	54,516	-0,107538
2,651965	-17,742386	54,567	-0,107776
2,649988	-17,863893	54,617	-0,107829
2,647986	-18,412928	54,682	-0,108067
2,646017	-19,693260	54,733	-0,108623
2,643976	-19,631381	54,783	-0,108596
2,642001	-19,875522	54,833	-0,108702
2,640026	-19,754014	54,883	-0,108649
2,637961	-19,814768	54,933	-0,108675
2,636011	-19,814768	54,983	-0,108675
2,633996	-20,180417	55,047	-0,108834
2,631957	-20,912838	55,097	-0,109152
2,629995	-20,973592	55,148	-0,109178
2,627986	-21,095100	55,198	-0,109231
2,625994	-21,278487	55,248	-0,109311
2,624000	-22,498065	55,298	-0,109840
2,621989	-22,070538	55,348	-0,109654
2,619996	-22,619573	55,398	-0,109893
2,617976	-23,229362	55,451	-0,110157
2,616012	-23,045975	55,501	-0,110078
2,614035	-23,229362	55,552	-0,110157
2,611980	-23,717643	55,602	-0,110369
2,609949	-23,899905	55,652	-0,110448
2,607981	-23,960658	55,702	-0,110475
2,606017	-24,144045	55,753	-0,110554
2,604021	-24,814588	55,803	-0,110845
2,602036	-24,083291	55,860	-0,110528
2,599993	-24,509694	55,910	-0,110713
2,597978	-24,448940	55,960	-0,110687
2,596002	-24,509694	56,010	-0,110713
2,593983	-24,204799	56,060	-0,110581
2,591980	-22,985221	56,110	-0,110051
2,590002	-22,741080	56,161	-0,109945
2,587982	-22,498065	56,211	-0,109840
2,586020	-22,741080	56,269	-0,109945
2,584034	-22,193170	56,319	-0,109708
2,582024	-21,827522	56,370	-0,109549
2,580002	-21,583381	56,420	-0,109443
2,577987	-21,155854	56,470	-0,109257
2,576017	-21,034346	56,520	-0,109205
2,574017	-20,180417	56,570	-0,108834
2,571995	-19,571753	56,620	-0,108570
2,570018	-17,985401	56,687	-0,107881
2,568015	-18,108034	56,738	-0,107935
2,566035	-17,681632	56,789	-0,107750
2,564047	-17,863893	56,839	-0,107829
2,561970	-17,803139	56,889	-0,107802
2,560013	-17,009964	56,939	-0,107458
2,558002	-17,437491	56,989	-0,107644
2,556013	-17,132596	57,053	-0,107511
2,554010	-16,706194	57,103	-0,107326
2,551982	-16,462054	57,153	-0,107220
2,550025	-16,339421	57,204	-0,107167
2,548021	-15,119843	57,254	-0,106638
2,545937	-13,352355	57,304	-0,105871
2,544014	-13,413108	57,354	-0,105897
2,542001	-12,864073	57,404	-0,105659
2,539990	-12,864073	57,465	-0,105659
2,538013	-12,803319	57,515	-0,105632
2,536014	-13,168968	57,565	-0,105791
2,533970	-12,437671	57,615	-0,105474
2,532051	-12,498425	57,666	-0,105500
2,529991	-12,498425	57,716	-0,105500
2,527984	-12,498425	57,767	-0,105500
2,525981	-12,316163	57,817	-0,105421
2,524003	-12,437671	57,873	-0,105474
2,522048	-11,950515	57,923	-0,105262
2,519994	-12,376917	57,973	-0,105447
2,518008	-11,888636	58,023	-0,105235
2,516003	-11,583741	58,073	-0,105103
2,514014	-11,950515	58,123	-0,105262
2,511964	-11,278847	58,173	-0,104971
2,510038	-11,278847	58,223	-0,104971
2,508016	-11,827882	58,289	-0,105209
2,506013	-10,608304	58,339	-0,104680
2,504026	-10,730937	58,389	-0,104733
2,502007	-10,913198	58,439	-0,104812
2,500037	-9,998515	58,489	-0,104415
2,498028	-9,816253	58,539	-0,104336
2,496027	-9,754374	58,590	-0,104309
2,494021	-9,998515	58,652	-0,104415
2,492018	-9,632867	58,702	-0,104256
2,489991	-9,816253	58,753	-0,104336
2,488058	-9,267218	58,803	-0,104098
2,485982	-9,327972	58,854	-0,104124
2,484019	-9,327972	58,904	-0,104124
2,481971	-9,572113	58,954	-0,104230
2,480014	-8,231027	59,005	-0,103648
2,477995	-8,231027	59,063	-0,103648
2,475948	-8,047640	59,114	-0,103568
2,474055	-7,986886	59,164	-0,103542
2,471988	-8,291781	59,215	-0,103674
2,470062	-8,291781	59,265	-0,103674
2,468031	-7,865378	59,315	-0,103489
2,466015	-7,986886	59,365	-0,103542
2,464035	-7,560484	59,415	-0,103357
2,461981	-7,681992	59,465	-0,103410
2,459966	-7,498605	59,515	-0,103330
2,458023	-7,011449	59,566	-0,103119
2,456003	-7,316343	59,616	-0,103251
2,453938	-6,645800	59,667	-0,102960
2,451985	-6,401660	59,718	-0,102854
2,449998	-6,462414	59,768	-0,102880
2,448008	-5,913378	59,819	-0,102642
2,446001	-4,329277	59,869	-0,101955
2,444018	-4,206644	59,920	-0,101901
2,442011	-3,536101	59,970	-0,101610
2,439962	-4,390031	60,020	-0,101981
2,438037	-4,023257	60,070	-0,101822
2,436050	-4,206644	60,120	-0,101901
2,433994	-4,267398	60,171	-0,101928
2,431976	-3,413468	60,221	-0,101557
2,430005	-3,536101	60,288	-0,101610
2,428075	-3,719488	60,338	-0,101690
2,426022	-3,475347	60,388	-0,101584
2,424000	-3,231207	60,438	-0,101478
2,421997	-3,047820	60,488	-0,101398
2,419990	-3,657609	60,539	-0,101663
2,417973	-3,170453	60,590	-0,101452
2,416010	-2,744051	60,648	-0,101267
2,414035	-3,170453	60,698	-0,101452
2,411978	-2,499910	60,748	-0,101161
2,409997	-2,134262	60,798	-0,101002
2,408035	-2,438031	60,848	-0,101134
2,405998	-2,744051	60,898	-0,101267
2,404024	-2,682172	60,948	-0,101240
2,401976	-2,499910	60,999	-0,101161
2,399961	-2,134262	61,050	-0,101002
2,398013	-2,011629	61,100	-0,100949
2,395997	-1,706734	61,150	-0,100816
2,393966	-1,645980	61,200	-0,100790
2,391999	-1,462594	61,250	-0,100710
2,390047	-1,645980	61,300	-0,100790