File: Nanoindentation Datenauswertung/data/Test Measurement/1,5um
Quasi static measurement routine
Tip parameters (shape,radius, material...)
11.07.2022

Piezo position[nm]	MEMS displ.[nm]	Time[ms]	Cap [pf]
eoh
2,343871	0,000000	0,212	-0,098594
2,347894	-0,488281	0,314	-0,098806
2,351814	0,121508	0,433	-0,098541
2,355856	-0,609789	0,533	-0,098858
2,359873	-0,670543	0,634	-0,098885
2,363922	-0,488281	0,734	-0,098806
2,367813	-0,549035	0,835	-0,098832
2,371890	-0,793176	0,936	-0,098938
2,375908	-0,793176	1,037	-0,098938
2,379874	-0,731297	1,138	-0,098911
2,383849	-0,914684	1,238	-0,098991
2,387896	-0,914684	1,340	-0,098991
2,391861	-1,645980	1,440	-0,099308
2,395872	-1,280332	1,540	-0,099149
2,399922	-1,158824	1,640	-0,099097
2,403898	-1,706734	1,741	-0,099334
2,407878	-2,134262	1,842	-0,099520
2,411914	-1,645980	1,943	-0,099308
2,415880	-1,950875	2,044	-0,099440
2,419900	-2,255769	2,144	-0,099573
2,423887	-2,316523	2,244	-0,099599
2,427920	-2,560664	2,345	-0,099705
2,431908	-2,011629	2,446	-0,099467
2,435905	-2,682172	2,547	-0,099758
2,439872	-2,682172	2,649	-0,099758
2,443883	-2,072383	2,750	-0,099493
2,447878	-2,804805	2,850	-0,099811
2,451898	-3,048945	2,950	-0,099917
2,455922	-3,414594	3,050	-0,100076
2,459826	-4,145890	3,159	-0,100393
2,463895	-3,048945	3,260	-0,099917
2,467932	-3,353840	3,360	-0,100049
2,471840	-3,536101	3,461	-0,100128
2,475839	-3,719488	3,591	-0,100208
2,479919	-4,024383	3,691	-0,100340
2,483892	-4,145890	3,791	-0,100393
2,487858	-4,390031	3,892	-0,100499
2,491881	-4,572293	4,004	-0,100578
2,495844	-4,511539	4,105	-0,100552
2,499892	-4,206644	4,206	-0,100419
2,503882	-5,243961	4,308	-0,100870
2,507846	-5,486976	4,408	-0,100975
2,511832	-5,548855	4,509	-0,101002
2,515915	-6,096765	4,610	-0,101240
2,519848	-6,401660	4,712	-0,101372
2,523869	-6,768433	4,832	-0,101531
2,527874	-6,950695	4,933	-0,101610
2,531832	-8,840816	5,034	-0,102431
2,535868	-9,206464	5,159	-0,102589
2,539877	-9,450605	5,272	-0,102695
2,543897	-9,816253	5,373	-0,102854
2,547837	-11,645620	5,474	-0,103648
2,551891	-10,975077	5,596	-0,103357
2,555879	-11,645620	5,697	-0,103648
2,559861	-11,522987	5,797	-0,103595
2,563843	-12,132776	5,899	-0,103859
2,567892	-12,559179	6,000	-0,104044
2,571867	-11,827882	6,103	-0,103727
2,575854	-9,327972	6,203	-0,102642
2,579883	-7,255589	6,304	-0,101743
2,583828	-4,572293	6,406	-0,100578
2,587835	-1,829367	6,507	-0,099388
2,591865	0,426402	6,607	-0,098409
2,595869	2,744051	6,707	-0,097403
2,599832	5,304715	6,807	-0,096292
2,603880	9,327972	6,909	-0,094545
2,607880	11,157339	7,009	-0,093751
2,611816	13,108214	7,111	-0,092905
2,615833	16,888456	7,236	-0,091264
2,619853	19,814768	7,336	-0,089994
2,623877	23,168608	7,437	-0,088539
2,627832	24,632326	7,570	-0,087903
2,631874	27,863533	7,670	-0,086501
2,635894	29,814408	7,771	-0,085654
2,639839	33,106369	7,873	-0,084226
2,643857	35,545525	7,984	-0,083167
2,647887	37,984681	8,085	-0,082108
2,651889	40,727607	8,186	-0,080918
2,655859	43,227517	8,286	-0,079833
2,659888	45,483286	8,412	-0,078854
2,663926	47,983196	8,513	-0,077769
2,667902	48,715618	8,614	-0,077451
2,671836	52,617368	8,716	-0,075758
2,675972	55,238785	8,820	-0,074620
2,679850	57,312293	8,921	-0,073720
2,683850	59,568062	9,022	-0,072741
2,687901	62,189480	9,124	-0,071604
2,691871	64,994285	9,240	-0,070386
2,695811	66,640265	9,342	-0,069672
2,699854	69,505823	9,442	-0,068428
2,703883	70,969542	9,564	-0,067793
2,707890	73,590960	9,665	-0,066655
2,711890	76,030116	9,765	-0,065597
2,715858	77,797604	9,865	-0,064830
2,719831	80,602409	9,965	-0,063612
2,723880	81,089565	10,066	-0,063401
2,727923	84,931686	10,167	-0,061733
2,731853	88,101013	10,267	-0,060358
2,735844	91,210712	10,390	-0,059008
2,739888	92,248029	10,491	-0,058558
2,743848	94,138150	10,592	-0,057738
2,747837	95,905638	10,693	-0,056971
2,751906	98,831950	10,794	-0,055701
2,755855	101,331860	10,894	-0,054616
2,759856	103,649509	10,995	-0,053610
2,763877	105,661137	11,095	-0,052737
2,767845	108,953098	11,211	-0,051308
2,771867	110,416817	11,312	-0,050673
2,775843	112,733340	11,413	-0,049667
2,779841	115,416637	11,513	-0,048503
2,783858	118,342949	11,613	-0,047233
2,787867	119,988929	11,714	-0,046519
2,791854	122,549593	11,814	-0,045407
2,795834	125,598538	11,916	-0,044084
2,799866	127,792429	12,040	-0,043132
2,803919	130,964007	12,140	-0,041755
2,807837	133,097143	12,242	-0,040830
2,811839	134,621616	12,343	-0,040168
2,815857	136,450983	12,444	-0,039374
2,819892	138,523365	12,545	-0,038475
2,823824	139,865576	12,646	-0,037892
2,827865	140,841014	12,746	-0,037469
2,831839	142,486994	12,846	-0,036754
2,835801	144,682010	12,947	-0,035802
2,839836	147,059287	13,047	-0,034770
2,843871	148,218111	13,170	-0,034267
2,847875	150,596513	13,272	-0,033235
2,851928	153,522825	13,372	-0,031965
2,855862	155,534454	13,473	-0,031092
2,859865	157,424575	13,593	-0,030271
2,863876	159,924485	13,694	-0,029187
2,867861	162,545903	13,794	-0,028049
2,871876	164,985059	13,894	-0,026990
2,875852	167,118196	13,996	-0,026064
2,879802	169,924125	14,096	-0,024847
2,883872	171,265211	14,197	-0,024265
2,887820	173,337594	14,297	-0,023365
2,891839	175,532609	14,399	-0,022413
2,895831	177,057082	14,500	-0,021751
2,899852	179,756129	14,601	-0,020580
2,903810	181,873515	14,701	-0,019661
2,907879	184,556812	14,822	-0,018496
2,911875	186,689948	14,922	-0,017570
2,915884	189,007596	15,023	-0,016564
2,919880	191,019225	15,124	-0,015691
2,923789	193,640643	15,226	-0,014554
2,927834	196,019045	15,326	-0,013521
2,931821	197,176744	15,427	-0,013019
2,935858	198,701217	15,527	-0,012357
2,939866	201,445267	15,627	-0,011167
2,943856	202,602967	15,728	-0,010664
2,947832	205,530404	15,830	-0,009394
2,951834	206,809611	15,960	-0,008838
2,955839	208,943872	16,060	-0,007912
2,959873	210,407591	16,161	-0,007277
2,963841	212,175079	16,262	-0,006510
2,967867	214,431974	16,363	-0,005530
2,971849	216,077954	16,465	-0,004816
2,975868	218,394477	16,566	-0,003811
2,979859	221,199282	16,667	-0,002593
2,983816	223,394297	16,770	-0,001641
2,987843	225,894207	16,870	-0,000556
2,991847	228,576379	16,971	0,000608
2,995766	229,369555	17,071	0,000953
2,999835	231,686078	17,173	0,001958
3,003873	233,941847	17,274	0,002937
3,007819	235,954601	17,375	0,003811
3,011884	238,331878	17,475	0,004842
3,015849	240,404261	17,578	0,005742
3,019840	242,051366	17,680	0,006457
3,023848	244,428643	17,780	0,007488
3,027858	246,807046	17,881	0,008521
3,031859	248,697167	17,981	0,009341
3,035863	250,891057	18,081	0,010293
3,039815	253,025319	18,181	0,011219
3,043870	254,489037	18,282	0,011854
3,047816	255,708615	18,403	0,012384
3,051825	256,744807	18,503	0,012833
3,055807	259,061330	18,604	0,013839
3,059856	261,134838	18,706	0,014739
3,063850	263,695502	18,808	0,015850
3,067786	265,829763	18,909	0,016776
3,071824	267,841392	19,010	0,017649
3,075801	269,792267	19,112	0,018496
3,079805	272,414810	19,212	0,019634
3,083815	274,426438	19,312	0,020507
3,087831	276,682208	19,413	0,021486
3,091854	278,754590	19,515	0,022386
3,095830	280,949606	19,616	0,023338
3,099849	282,839727	19,718	0,024159
3,103830	284,852481	19,818	0,025032
3,107794	286,864109	19,919	0,025905
3,111809	288,875738	20,027	0,026778
3,115820	291,314894	20,128	0,027837
3,119794	293,692171	20,228	0,028869
3,123771	295,278523	20,329	0,029557
3,127848	297,472413	20,432	0,030509
3,131842	299,667429	20,532	0,031462
3,135812	302,045831	20,632	0,032494
3,139824	304,728003	20,733	0,033658
3,143858	307,167159	20,859	0,034717
3,147794	308,447491	20,959	0,035272
3,151841	309,544436	21,060	0,035749
3,155809	311,557190	21,160	0,036622
3,159758	313,019783	21,263	0,037257
3,163809	315,337432	21,365	0,038263
3,167807	313,447311	21,465	0,037442
3,171819	314,727643	21,567	0,037998
3,175834	316,495131	21,667	0,038765
3,179838	318,324498	21,767	0,039559
3,183857	320,336127	21,868	0,040432
3,187836	323,750720	21,968	0,041914
3,191810	326,372138	22,069	0,043052
3,195827	328,262259	22,169	0,043872
3,199796	331,798360	22,270	0,045407
3,203872	332,835676	22,370	0,045857
3,207775	335,701235	22,471	0,047101
3,211790	337,957004	22,572	0,048080
3,215769	340,335406	22,673	0,049112
3,219801	343,748875	22,774	0,050593
3,223785	345,822383	22,875	0,051493
3,227764	347,773257	22,976	0,052340
3,231821	350,578062	23,076	0,053557
3,235816	353,260234	23,179	0,054721
3,239794	356,553319	23,280	0,056150
3,243813	358,625702	23,380	0,057050
3,247820	361,247120	23,481	0,058188
3,251805	363,869663	23,597	0,059326
3,255781	366,430327	23,698	0,060437
3,259791	369,112498	23,799	0,061601
3,263803	371,490900	23,899	0,062633
3,267828	374,173072	24,003	0,063797
3,271805	375,819052	24,104	0,064512
3,275797	377,161263	24,204	0,065094
3,279772	367,892920	24,305	0,061072
3,283808	368,930237	24,405	0,061522
3,287816	371,429021	24,505	0,062606
3,291795	372,771232	24,606	0,063189
3,295805	375,271142	24,707	0,064274
3,299783	377,404279	24,812	0,065200
3,303798	379,112138	24,912	0,065941
3,307790	381,245275	25,013	0,066867
3,311777	382,830501	25,113	0,067555
3,315779	384,538360	25,227	0,068296
3,319789	386,671497	25,327	0,069222
3,323813	388,745005	25,427	0,070122
3,327765	391,366422	25,528	0,071259
3,331821	394,049719	25,635	0,072424
3,335823	394,292735	25,736	0,072529
3,339807	398,622012	25,836	0,074408
3,343740	400,390625	25,938	0,075176
3,347794	402,341500	26,043	0,076022
3,351786	403,621832	26,143	0,076578
3,355801	405,633461	26,243	0,077451
3,359803	407,767722	26,343	0,078377
3,363771	409,962738	26,467	0,079330
3,367782	412,462648	26,568	0,080415
3,371796	414,839925	26,669	0,081447
3,375778	416,730046	26,769	0,082267
3,379776	418,010378	26,871	0,082823
3,383771	419,718237	26,971	0,083564
3,387725	420,693674	27,072	0,083987
3,391746	422,887565	27,172	0,084939
3,395733	426,059143	27,273	0,086316
3,399755	427,765877	27,373	0,087057
3,403760	430,205033	27,473	0,088115
3,407775	432,460802	27,573	0,089094
3,411816	434,350923	27,673	0,089915
3,415798	435,326361	27,774	0,090338
3,419752	439,167357	27,874	0,092005
3,423751	440,326181	27,980	0,092508
3,427736	441,728021	28,080	0,093116
3,431779	440,995599	28,181	0,092798
3,435781	441,483880	28,281	0,093010
3,439772	443,678895	28,390	0,093963
3,443763	445,385630	28,490	0,094704
3,447738	447,398383	28,591	0,095577
3,451781	449,470766	28,691	0,096477
3,455812	451,665782	28,798	0,097429
3,459733	453,678535	28,899	0,098303
3,463748	456,360707	28,999	0,099467
3,467747	458,006687	29,099	0,100181
3,471752	459,957562	29,200	0,101028
3,475759	461,603543	29,301	0,101742
3,479768	461,847683	29,401	0,101848
3,483772	464,409472	29,501	0,102960
3,487773	466,481855	29,608	0,103859
3,491765	469,103273	29,709	0,104997
3,495796	471,542429	29,810	0,106056
3,499748	472,883515	29,911	0,106638
3,503747	476,847143	30,011	0,108358
3,507783	478,980280	30,111	0,109284
3,511735	481,785084	30,211	0,110501
3,515779	484,163486	30,313	0,111533
3,519741	486,906412	30,416	0,112724
3,523789	490,016111	30,516	0,114073
3,527740	492,516021	30,617	0,115158
3,531741	495,807982	30,717	0,116587
3,535699	498,673540	30,819	0,117831
3,539760	501,783239	30,920	0,119180
3,543717	503,794868	31,020	0,120053
3,547758	507,209461	31,121	0,121535
3,551759	510,684809	31,232	0,123043
3,555751	513,123965	31,332	0,124102
3,559744	516,171785	31,433	0,125425
3,563712	519,099222	31,533	0,126695
3,567730	521,415746	31,637	0,127701
3,571715	524,342058	31,737	0,128971
3,575735	527,025355	31,837	0,130135
3,579775	529,951667	31,937	0,131405
3,583745	533,122120	32,043	0,132781
3,587712	535,865045	32,144	0,133972
3,591718	539,097377	32,244	0,135375
3,595732	542,145197	32,351	0,136697
3,599731	544,096072	32,451	0,137544
3,603684	546,840123	32,551	0,138735
3,607737	549,949822	32,651	0,140084
3,611810	552,998767	32,762	0,141408
3,615735	555,741692	32,863	0,142598
3,619672	558,790638	32,965	0,143921
3,623772	561,107161	33,066	0,144927
3,627724	564,338368	33,174	0,146329
3,631725	567,569574	33,277	0,147731
3,635732	569,947977	33,378	0,148764
3,639733	573,300691	33,480	0,150219
3,643780	575,556461	33,582	0,151198
3,647727	578,971054	33,683	0,152680
3,651741	580,556281	33,783	0,153368
3,655726	584,459155	33,883	0,155062
3,659712	587,080573	33,986	0,156199
3,663723	590,311780	34,086	0,157602
3,667731	592,385288	34,186	0,158501
3,671757	594,641057	34,287	0,159480
3,675760	597,445862	34,392	0,160698
3,679728	599,883893	34,492	0,161756
3,683737	602,383803	34,592	0,162841
3,687747	605,249361	34,692	0,164084
3,691710	607,993412	34,811	0,165275
3,695751	610,554075	34,911	0,166387
3,699718	613,175493	35,012	0,167524
3,703766	615,553895	35,113	0,168557
3,707732	618,357575	35,217	0,169773
3,711672	621,345766	35,317	0,171070
3,715739	624,089817	35,417	0,172261
3,719749	626,832742	35,519	0,173452
3,723760	629,150391	35,619	0,174458
3,727763	632,624613	35,719	0,175965
3,731727	634,942261	35,819	0,176971
3,735751	637,137277	35,920	0,177924
3,739718	640,063589	36,024	0,179194
3,743779	642,989901	36,124	0,180464
3,747707	645,976968	36,224	0,181760
3,751755	648,660264	36,325	0,182925
3,755689	651,525823	36,425	0,184168
3,759715	654,025733	36,525	0,185253
3,763733	656,769783	36,625	0,186444
3,767715	659,817603	36,726	0,187767
3,771699	663,415584	36,827	0,189329
3,775752	663,415584	36,927	0,189329
3,779748	668,902560	37,028	0,191710
3,783722	672,804309	37,130	0,193403
3,787743	674,938571	37,230	0,194330
3,791709	677,864883	37,330	0,195600
3,795754	680,791196	37,430	0,196870
3,799787	683,779387	37,531	0,198167
3,803710	687,436996	37,638	0,199754
3,807716	689,876152	37,738	0,200813
3,811740	692,315308	37,839	0,201871
3,815742	696,338566	37,939	0,203617
3,819708	698,046425	38,047	0,204358
3,823747	701,826667	38,149	0,205999
3,827754	705,484276	38,250	0,207586
3,831759	706,947995	38,352	0,208222
3,835721	710,728237	38,452	0,209862
3,839766	714,020197	38,553	0,211291
3,843752	716,580861	38,653	0,212402
3,843709	716,885756	38,754	0,212535
3,843718	716,825002	38,854	0,212508
3,843710	717,372912	38,954	0,212746
3,843716	716,580861	39,055	0,212402
3,843679	716,397474	39,168	0,212323
3,843687	716,397474	39,269	0,212323
3,843681	716,397474	39,370	0,212323
3,843668	716,641615	39,470	0,212429
3,843756	716,093705	39,570	0,212191
3,843738	716,397474	39,670	0,212323
3,843687	716,031826	39,771	0,212164
3,843729	716,154459	39,873	0,212217
3,843693	716,520107	39,975	0,212376
3,843725	715,788810	40,077	0,212059
3,843716	715,971072	40,177	0,212138
3,843697	715,605424	40,278	0,211979
3,843701	716,031826	40,393	0,212164
3,843736	715,361283	40,495	0,211873
3,843710	716,031826	40,595	0,212164
3,843734	716,093705	40,696	0,212191
3,843726	715,605424	40,806	0,211979
3,843698	715,422037	40,907	0,211899
3,843719	715,910318	41,008	0,212111
3,843724	715,666178	41,108	0,212005
3,843759	715,971072	41,214	0,212138
3,843701	715,361283	41,315	0,211873
3,843711	715,971072	41,415	0,212138
3,843730	715,361283	41,516	0,211873
3,843706	715,179021	41,617	0,211794
3,843747	716,031826	41,718	0,212164
3,843758	715,544670	41,820	0,211953
3,843691	714,995635	41,920	0,211714
3,843748	715,179021	42,020	0,211794
3,843719	715,422037	42,121	0,211899
3,843724	715,361283	42,222	0,211873
3,843739	715,544670	42,323	0,211953
3,843673	714,874127	42,424	0,211662
3,843745	714,934881	42,525	0,211688
3,843703	715,361283	42,626	0,211873
3,843739	715,361283	42,727	0,211873
3,843691	714,995635	42,827	0,211714
3,843671	715,361283	42,927	0,211873
3,843706	715,056389	43,027	0,211741
3,843750	715,239775	43,127	0,211820
3,843703	715,239775	43,227	0,211820
3,843735	715,179021	43,329	0,211794
3,843746	714,874127	43,429	0,211662
3,843736	715,422037	43,530	0,211899
3,843693	715,361283	43,630	0,211873
3,843743	714,995635	43,731	0,211714
3,839697	712,495725	43,831	0,210629
3,835711	710,239955	43,931	0,209650
3,831708	705,667663	44,035	0,207666
3,827711	703,289261	44,137	0,206634
3,823719	699,753159	44,238	0,205099
3,819677	696,399320	44,339	0,203644
3,815665	693,290746	44,451	0,202294
3,811682	690,364433	44,552	0,201024
3,807712	687,497750	44,652	0,199780
3,803709	684,571438	44,754	0,198510
3,799731	680,853075	44,855	0,196896
3,795766	678,047145	44,956	0,195679
3,791765	675,243466	45,056	0,194462
3,787759	671,828872	45,173	0,192980
3,783741	668,658419	45,274	0,191604
3,779686	665,183072	45,374	0,190096
3,775715	662,804669	45,474	0,189063
3,771740	659,451955	45,575	0,187608
3,767725	656,464889	45,676	0,186312
3,763744	653,111049	45,776	0,184856
3,759680	649,879842	45,876	0,183454
3,755713	646,586757	45,979	0,182025
3,751736	643,904585	46,080	0,180861
3,747705	641,099780	46,180	0,179644
3,743708	637,319538	46,281	0,178003
3,739724	635,003015	46,390	0,176998
3,735722	631,832562	46,491	0,175622
3,731684	628,234582	46,591	0,174060
3,727705	626,162199	46,691	0,173161
3,723699	622,137817	46,799	0,171414
3,719712	619,455645	46,899	0,170250
3,715744	616,224438	46,999	0,168848
3,711732	613,603021	47,099	0,167710
3,707733	610,737462	47,204	0,166466
3,703725	607,322869	47,304	0,164984
3,699697	604,578818	47,405	0,163793
3,695752	601,226103	47,507	0,162338
3,691720	597,933018	47,607	0,160909
3,687718	595,006705	47,708	0,159639
3,683742	592,690182	47,810	0,158634
3,679700	589,641237	47,911	0,157311
3,675763	585,739487	48,022	0,155617
3,671758	584,031628	48,123	0,154876
3,667728	580,495527	48,223	0,153341
3,663741	577,203566	48,323	0,151913
3,659741	574,642902	48,430	0,150801
3,655830	571,289062	48,530	0,149346
3,651765	568,241242	48,630	0,148023
3,647729	565,497192	48,730	0,146832
3,643715	562,387493	48,835	0,145482
3,639734	559,338548	48,936	0,144159
3,635770	556,595622	49,037	0,142969
3,631749	552,936888	49,138	0,141381
3,627798	550,254716	49,250	0,140217
3,623707	547,694052	49,351	0,139105
3,619707	544,523600	49,451	0,137729
3,615768	541,230514	49,552	0,136300
3,611753	538,304201	49,660	0,135030
3,607745	535,622030	49,760	0,133866
3,603757	531,963296	49,861	0,132278
3,599725	528,976229	49,973	0,130982
3,595798	526,415566	50,073	0,129871
3,591757	523,489253	50,173	0,128601
3,587691	520,135414	50,273	0,127145
3,583736	517,635504	50,374	0,126060
3,579764	514,281664	50,474	0,124604
3,575711	511,112336	50,575	0,123229
3,571737	508,307532	50,676	0,122012
3,567792	505,441973	50,780	0,120768
3,563806	501,783239	50,881	0,119180
3,559769	498,856927	50,981	0,117910
3,555755	496,661911	51,081	0,116958
3,551784	493,125810	51,182	0,115423
3,547719	490,686654	51,283	0,114364
3,543754	488,552392	51,384	0,113438
3,539744	487,150553	51,485	0,112830
3,535748	481,785084	51,586	0,110501
3,531773	478,127475	51,686	0,108914
3,527762	475,749073	51,787	0,107881
3,523738	472,578620	51,889	0,106505
3,519765	469,773816	52,006	0,105288
3,515748	466,725995	52,107	0,103965
3,511786	464,347593	52,207	0,102933
3,507796	461,055633	52,309	0,101504
3,503737	458,129320	52,419	0,100234
3,499777	455,263762	52,521	0,098991
3,495763	452,519711	52,621	0,097800
3,491798	449,288504	52,722	0,096397
3,487751	446,667087	52,831	0,095260
3,483746	443,739649	52,933	0,093989
3,479782	441,118232	53,033	0,092852
3,475782	438,070412	53,133	0,091529
3,471763	434,472431	53,233	0,089967
3,467722	431,972521	53,334	0,088882
3,463756	430,449174	53,434	0,088221
3,459741	425,875756	53,534	0,086236
3,455809	423,315092	53,634	0,085125
3,451830	420,449534	53,734	0,083881
3,447747	418,133011	53,835	0,082876
3,443775	414,656538	53,936	0,081367
3,439812	411,790980	54,048	0,080124
3,435761	408,987300	54,148	0,078907
3,431721	406,059863	54,248	0,077636
3,427816	402,707148	54,369	0,076181
3,423781	400,512133	54,469	0,075229
3,419759	397,585820	54,570	0,073958
3,415813	394,231981	54,670	0,072503
3,411768	391,976211	54,780	0,071524
3,407783	389,171407	54,880	0,070307
3,403791	386,061708	54,981	0,068957
3,399798	382,830501	55,081	0,067555
3,395809	380,269837	55,187	0,066443
3,391805	377,222017	55,287	0,065121
3,387818	374,782861	55,387	0,064062
3,383811	372,222197	55,487	0,062951
3,379767	368,930237	55,589	0,061522
3,375784	366,491080	55,690	0,060463
3,371834	362,771592	55,791	0,058849
3,367805	360,820718	55,891	0,058002
3,363798	357,650265	56,009	0,056626
3,359857	355,028847	56,109	0,055489
3,355780	351,735761	56,209	0,054060
3,351790	348,809449	56,310	0,052790
3,347822	347,529117	56,410	0,052234
3,343822	343,443980	56,510	0,050461
3,339820	340,456914	56,612	0,049165
3,335787	337,712864	56,712	0,047974
3,331839	335,273708	56,830	0,046915
3,327791	332,470028	56,931	0,045698
3,323788	328,140751	57,031	0,043819
3,319816	326,372138	57,131	0,043052
3,315820	323,385072	57,236	0,041755
3,311811	320,336127	57,338	0,040432
3,307801	318,263744	57,438	0,039533
3,303899	315,275553	57,538	0,038236
3,299818	312,349240	57,638	0,036966
3,295777	309,971963	57,738	0,035934
3,291813	308,447491	57,839	0,035272
3,287843	304,362354	57,939	0,033500
3,283844	301,496796	58,058	0,032256
3,279834	298,447851	58,158	0,030933
3,275833	296,375468	58,258	0,030033
3,271782	293,265769	58,358	0,028684
3,267812	290,278703	58,468	0,027387
3,263754	287,778793	58,568	0,026302
3,259819	284,180813	58,668	0,024741
3,255843	281,742782	58,770	0,023683
3,251835	278,816469	58,871	0,022413
3,247825	275,767524	58,972	0,021089
3,243861	273,023474	59,073	0,019898
3,239815	270,341302	59,191	0,018734
3,235798	266,743322	59,291	0,017173
3,231822	263,939642	59,391	0,015956
3,227853	261,318224	59,493	0,014818
3,223836	258,634928	59,617	0,013654
3,219819	255,769369	59,718	0,012410
3,215805	253,087198	59,818	0,011246
3,211811	249,794112	59,918	0,009817
3,207802	247,111940	60,019	0,008653
3,203835	244,612030	60,119	0,007568
3,199851	240,831788	60,220	0,005927
3,195806	239,428823	60,320	0,005318
3,191827	236,807406	60,430	0,004181
3,187803	233,454691	60,531	0,002726
3,183810	230,710640	60,631	0,001535
3,179815	228,454871	60,731	0,000556
3,175846	225,284418	60,831	-0,000820
3,171831	222,418860	60,931	-0,002064
3,167822	219,187653	61,032	-0,003466
3,163814	216,443602	61,133	-0,004657
3,159847	213,456536	61,234	-0,005954
3,155823	210,651732	61,336	-0,007171
3,151810	208,273329	61,437	-0,008203
3,147825	205,225509	61,537	-0,009526
3,143850	202,542213	61,638	-0,010690
3,139816	199,981549	61,738	-0,011802
3,135871	196,871850	61,838	-0,013151
3,131829	194,433819	61,939	-0,014209
3,127855	191,079979	62,039	-0,015665
3,123832	187,422370	62,140	-0,017252
3,119828	185,043968	62,240	-0,018285
3,115861	182,666691	62,340	-0,019316
3,111800	180,104902	62,443	-0,020428
3,107836	176,873695	62,544	-0,021831
3,103852	173,825875	62,645	-0,023153
3,099884	171,265211	62,746	-0,024265
3,095845	167,911371	62,857	-0,025720
3,091834	165,045813	62,957	-0,026964
3,087828	163,460586	63,058	-0,027652
3,083847	159,680345	63,159	-0,029292
3,079907	157,058927	63,270	-0,030430
3,075873	153,522825	63,372	-0,031965
3,071865	151,144423	63,473	-0,032997
3,067865	148,034724	63,589	-0,034347
3,063860	145,413306	63,690	-0,035484
3,059856	142,365486	63,790	-0,036807
3,055882	140,536119	63,891	-0,037601
3,051914	137,000018	63,995	-0,039136
3,047829	134,316721	64,095	-0,040300
3,043856	131,207022	64,196	-0,041650
3,039834	128,524851	64,296	-0,042814
3,035837	125,293644	64,396	-0,044216
3,031829	122,854488	64,496	-0,045275
3,027838	119,744789	64,596	-0,046625
3,023852	117,123371	64,697	-0,047762
3,019860	114,380445	64,812	-0,048953
3,015861	111,697149	64,913	-0,050117
3,011833	108,405188	65,014	-0,051546
3,007817	106,758083	65,115	-0,052261
3,003854	103,100473	65,230	-0,053848
2,999850	100,905458	65,331	-0,054801
2,995844	98,284040	65,432	-0,055938
2,991846	94,198904	65,532	-0,057711
2,987816	92,308783	65,650	-0,058532
2,983845	89,077576	65,751	-0,059934
2,979837	86,455033	65,851	-0,061072
2,975840	84,626791	65,951	-0,061866
2,971906	82,979686	66,052	-0,062581
2,967846	82,614037	66,152	-0,062739
2,963857	80,053373	66,252	-0,063851
2,959837	78,712288	66,352	-0,064433
2,955854	77,005553	66,477	-0,065173
2,951868	75,481081	66,578	-0,065835
2,947857	74,810538	66,680	-0,066126
2,943847	73,346819	66,790	-0,066761
2,939839	70,969542	66,890	-0,067793
2,935861	70,298999	66,991	-0,068084
2,931835	69,505823	67,091	-0,068428
2,927861	69,261683	67,199	-0,068534
2,923879	68,042105	67,300	-0,069063
2,919823	66,945159	67,401	-0,069540
2,915889	65,542195	67,502	-0,070148
2,911888	64,261863	67,602	-0,070704
2,907869	64,261863	67,704	-0,070704
2,903881	62,981531	67,804	-0,071260
2,899854	63,591320	67,904	-0,070995
2,895860	62,128726	68,022	-0,071630
2,891797	61,396304	68,123	-0,071948
2,887789	58,836766	68,225	-0,073059
2,883885	57,494555	68,325	-0,073641
2,879840	57,128906	68,431	-0,073800
2,875873	55,665188	68,532	-0,074435
2,871852	55,178031	68,632	-0,074646
2,867909	55,604434	68,733	-0,074461
2,863860	53,775067	68,850	-0,075255
2,859839	52,433981	68,950	-0,075837
2,855838	52,861508	69,052	-0,075652
2,851892	50,909508	69,153	-0,076499
2,847928	50,361598	69,257	-0,076737
2,843866	50,361598	69,357	-0,076737
2,839851	48,166583	69,459	-0,077689
2,835879	47,617548	69,560	-0,077928
2,831925	46,642110	69,676	-0,078351
2,827808	45,727427	69,776	-0,078748
2,823878	44,934251	69,877	-0,079092
2,819869	43,898059	69,977	-0,079542
2,815903	42,496220	70,081	-0,080150
2,811872	40,484591	70,182	-0,081023
2,807851	40,666853	70,284	-0,080944
2,803876	39,081626	70,390	-0,081632
2,799871	36,825857	70,493	-0,082611
2,795903	36,032681	70,593	-0,082956
2,791865	34,143685	70,694	-0,083775
2,787895	35,422892	70,806	-0,083220
2,783858	33,838791	70,907	-0,083908
2,779889	32,435826	71,008	-0,084517
2,775876	31,094740	71,108	-0,085099
2,771837	30,606459	71,222	-0,085311
2,767863	29,875162	71,322	-0,085628
2,763908	28,289936	71,423	-0,086316
2,759868	27,436006	71,524	-0,086687
2,755905	25,850779	71,642	-0,087375
2,751908	24,570448	71,744	-0,087930
2,747879	24,204799	71,844	-0,088089
2,743889	22,436186	71,944	-0,088856
2,739910	21,156979	72,044	-0,089412
2,735880	20,424557	72,145	-0,089729
2,731867	20,180417	72,245	-0,089835
2,727845	18,717823	72,346	-0,090470
2,723856	17,498245	72,451	-0,091000
2,719886	17,011089	72,551	-0,091211
2,715818	15,303229	72,653	-0,091952
2,711864	14,876827	72,754	-0,092137
2,707900	13,901390	72,858	-0,092561
2,703871	13,230847	72,959	-0,092852
2,699846	11,767128	73,059	-0,093487
2,695930	10,791691	73,159	-0,093910
2,691877	10,608304	73,273	-0,093990
2,687890	8,475167	73,374	-0,094916
2,683891	8,535921	73,475	-0,094889
2,679865	7,560484	73,576	-0,095313
2,675919	6,950695	73,683	-0,095577
2,671919	4,877187	73,784	-0,096477
2,667860	4,390031	73,884	-0,096688
2,663888	3,414594	73,984	-0,097112
2,659901	2,439156	74,085	-0,097535
2,655834	0,793176	74,185	-0,098250
2,651827	0,853930	74,285	-0,098223
2,647890	0,060754	74,392	-0,098567
2,643873	-1,096945	74,492	-0,099070
2,639892	-1,706734	74,592	-0,099334
2,635889	-2,804805	74,692	-0,099811
2,631857	-3,536101	74,801	-0,100128
2,627876	-4,572293	74,901	-0,100578
2,623945	-5,975257	75,002	-0,101187
2,619915	-6,889941	75,102	-0,101584
2,615876	-7,134082	75,207	-0,101690
2,611901	-8,352535	75,309	-0,102219
2,607921	-8,657429	75,410	-0,102351
2,603889	-9,937761	75,510	-0,102907
2,599900	-10,791691	75,611	-0,103277
2,595873	-11,827882	75,711	-0,103727
2,591876	-12,437671	75,812	-0,103992
2,587906	-13,901390	75,913	-0,104627
2,583855	-13,718003	76,032	-0,104547
2,579913	-13,413108	76,132	-0,104415
2,575918	-13,840636	76,233	-0,104601
2,571903	-13,901390	76,334	-0,104627
2,567861	-15,365108	76,460	-0,105262
2,563885	-15,059089	76,560	-0,105129
2,559898	-14,755319	76,660	-0,104998
2,555895	-14,389671	76,761	-0,104839
2,551906	-13,840636	76,881	-0,104601
2,547934	-12,925952	76,981	-0,104204
2,543919	-13,230847	77,081	-0,104336
2,539921	-12,681812	77,197	-0,104098
2,535867	-12,742566	77,299	-0,104124
2,531857	-11,950515	77,399	-0,103780
2,527868	-11,522987	77,500	-0,103595
2,523911	-12,132776	77,620	-0,103859
2,519881	-11,462234	77,721	-0,103568
2,515878	-10,975077	77,822	-0,103357
2,511882	-11,096585	77,923	-0,103410
2,507833	-10,426042	78,051	-0,103119
2,503887	-10,060394	78,152	-0,102960
2,499842	-9,755499	78,253	-0,102828
2,495935	-9,389851	78,355	-0,102669
2,491938	-8,780062	78,457	-0,102404
2,487864	-9,084956	78,557	-0,102537
2,483834	-8,535921	78,658	-0,102298
2,479883	-8,840816	78,758	-0,102431
2,475887	-8,170273	78,879	-0,102140
2,471896	-8,109519	78,979	-0,102113
2,467916	-7,743871	79,080	-0,101955
2,463861	-7,437851	79,207	-0,101822
2,459906	-7,926132	79,307	-0,102034
2,455886	-7,255589	79,408	-0,101743
2,451858	-6,950695	79,508	-0,101610
2,447850	-6,950695	79,627	-0,101610
2,443875	-6,524293	79,728	-0,101425
2,439955	-6,524293	79,829	-0,101425
2,435883	-6,219398	79,929	-0,101293
2,431852	-5,365468	80,055	-0,100922
2,427895	-5,486976	80,157	-0,100975
2,423886	-5,365468	80,258	-0,100922
2,419895	-5,060574	80,359	-0,100790
2,415882	-4,572293	80,480	-0,100578
2,411897	-4,572293	80,581	-0,100578
2,407897	-4,511539	80,681	-0,100552
2,403886	-4,329277	80,801	-0,100473
2,399924	-4,024383	80,901	-0,100340
2,395885	-3,962504	81,003	-0,100313
2,391882	-3,475347	81,104	-0,100102
2,387881	-3,536101	81,204	-0,100128
2,383895	-3,414594	81,305	-0,100076
2,379897	-1,585226	81,406	-0,099282
2,375864	-1,219578	81,507	-0,099123
2,371852	-1,341086	81,611	-0,099176
2,367879	-1,341086	81,711	-0,099176
2,363893	-1,768613	81,812	-0,099361
2,359885	-1,036191	81,913	-0,099043
2,355875	-0,975437	82,036	-0,099017
2,351843	-0,670543	82,138	-0,098885
2,347877	-0,731297	82,240	-0,098911
2,343874	-0,488281	82,340	-0,098806