File: Nanoindentation Datenauswertung/data/Test Measurement/2,3um
Quasi static measurement routine
Tip parameters (shape,radius, material...)
11.07.2022

Piezo position[nm]	MEMS displ.[nm]	Time[ms]	Cap [pf]
eoh
2,275907	0,608664	0,188	-0,095075
2,279910	0,304895	0,289	-0,095207
2,283879	0,792051	0,389	-0,094995
2,287909	-0,366773	0,490	-0,095498
2,291902	-0,183387	0,592	-0,095418
2,295875	0,121508	0,692	-0,095286
2,299899	0,000000	0,792	-0,095339
2,303858	0,182262	0,893	-0,095260
2,307828	0,731297	0,993	-0,095021
2,311865	0,243016	1,093	-0,095233
2,315870	0,060754	1,193	-0,095313
2,319887	0,426402	1,294	-0,095154
2,323934	0,182262	1,395	-0,095260
2,327909	-0,183387	1,496	-0,095418
2,331906	0,182262	1,596	-0,095260
2,335881	-0,304895	1,696	-0,095471
2,339881	0,000000	1,796	-0,095339
2,343897	-0,488281	1,896	-0,095551
2,347845	0,487156	1,997	-0,095127
2,351881	0,000000	2,097	-0,095339
2,355910	-0,061879	2,197	-0,095366
2,359891	-0,549035	2,297	-0,095577
2,363910	-0,061879	2,397	-0,095366
2,367879	-0,609789	2,497	-0,095604
2,371868	-0,061879	2,597	-0,095366
2,375883	0,000000	2,698	-0,095339
2,379895	-0,549035	2,798	-0,095577
2,383878	-0,183387	2,900	-0,095418
2,387873	-0,061879	3,000	-0,095366
2,391871	-0,853930	3,101	-0,095709
2,395937	-0,427527	3,201	-0,095524
2,399840	-0,671668	3,301	-0,095630
2,403912	-1,524473	3,402	-0,096000
2,407927	-1,524473	3,508	-0,096000
2,411891	-2,073508	3,609	-0,096239
2,415895	-1,950875	3,710	-0,096186
2,419870	-2,378402	3,811	-0,096371
2,423910	-2,012754	3,912	-0,096212
2,427943	-2,012754	4,013	-0,096212
2,431870	-1,707859	4,113	-0,096080
2,435928	-1,707859	4,214	-0,096080
2,439856	-2,499910	4,320	-0,096424
2,443854	-1,829367	4,420	-0,096133
2,447929	-2,560664	4,521	-0,096450
2,451889	-2,134262	4,621	-0,096265
2,455838	-2,378402	4,722	-0,096371
2,459865	-2,317648	4,823	-0,096345
2,463903	-2,134262	4,923	-0,096265
2,467889	-3,109699	5,024	-0,096688
2,471875	-2,683297	5,125	-0,096503
2,475880	-2,988191	5,225	-0,096636
2,479884	-2,804805	5,325	-0,096556
2,483915	-2,988191	5,426	-0,096636
2,487867	-3,293086	5,526	-0,096768
2,491865	-3,293086	5,626	-0,096768
2,495905	-3,171578	5,727	-0,096715
2,499836	-3,537226	5,827	-0,096874
2,503900	-3,353840	5,929	-0,096794
2,507893	-3,902875	6,029	-0,097033
2,511866	-6,097890	6,129	-0,097985
2,515888	-6,463539	6,229	-0,098144
2,519907	-6,463539	6,330	-0,098144
2,523855	-6,463539	6,431	-0,098144
2,527910	-5,914504	6,532	-0,097906
2,531878	-7,134082	6,632	-0,098435
2,535873	-7,134082	6,732	-0,098435
2,539917	-5,914504	6,832	-0,097906
2,543893	-3,353840	6,932	-0,096794
2,547860	-0,304895	7,032	-0,095471
2,551894	3,170453	7,133	-0,093963
2,555895	4,937941	7,234	-0,093196
2,559875	7,132957	7,336	-0,092243
2,563863	10,608304	7,437	-0,090735
2,567869	13,718003	7,538	-0,089385
2,571899	15,973772	7,639	-0,088406
2,575856	18,473682	7,739	-0,087321
2,579930	20,241170	7,839	-0,086554
2,583898	24,570448	7,941	-0,084675
2,587900	26,034166	8,042	-0,084040
2,591882	29,509514	8,143	-0,082532
2,595898	32,130931	8,244	-0,081394
2,599889	33,288630	8,344	-0,080892
2,603886	37,252259	8,444	-0,079171
2,607904	39,325767	8,544	-0,078271
2,611879	41,886431	8,644	-0,077160
2,615869	44,507849	8,745	-0,076022
2,619867	46,580231	8,846	-0,075123
2,623923	49,568422	8,946	-0,073826
2,627907	51,640805	9,048	-0,072927
2,631921	54,019207	9,148	-0,071895
2,635880	56,458363	9,248	-0,070836
2,639893	59,262043	9,348	-0,069619
2,643866	61,030656	9,449	-0,068852
2,647876	62,920777	9,552	-0,068031
2,651924	66,701019	9,652	-0,066391
2,655882	68,651894	9,754	-0,065544
2,659914	71,456698	9,855	-0,064327
2,663862	74,138870	9,956	-0,063163
2,667917	76,273131	10,056	-0,062236
2,671878	78,894549	10,156	-0,061099
2,675905	81,699354	10,257	-0,059881
2,679864	84,381525	10,359	-0,058717
2,683863	85,479596	10,459	-0,058241
2,687890	88,466662	10,559	-0,056944
2,691844	90,479416	10,659	-0,056071
2,695884	92,612552	10,760	-0,055145
2,699876	94,686060	10,860	-0,054245
2,703855	96,392794	10,960	-0,053504
2,707876	99,685880	11,060	-0,052075
2,711890	101,758263	11,161	-0,051176
2,715883	104,136665	11,262	-0,050144
2,719902	105,964907	11,362	-0,049350
2,723879	108,892344	11,462	-0,048080
2,727861	111,879410	11,562	-0,046783
2,731918	112,977481	11,663	-0,046307
2,735874	115,110617	11,764	-0,045381
2,739886	116,939984	11,879	-0,044587
2,743872	118,585965	11,981	-0,043873
2,747890	120,780980	12,082	-0,042920
2,751916	122,610347	12,183	-0,042126
2,755873	124,012187	12,287	-0,041518
2,759854	126,634730	12,388	-0,040379
2,763896	128,951253	12,489	-0,039374
2,767885	129,438409	12,589	-0,039163
2,771882	133,889194	12,689	-0,037231
2,775898	135,048018	12,789	-0,036728
2,779886	137,487174	12,890	-0,035669
2,783859	139,621436	12,990	-0,034743
2,787884	142,303607	13,090	-0,033579
2,791857	144,985779	13,190	-0,032415
2,795866	146,083849	13,290	-0,031938
2,799839	148,888654	13,390	-0,030721
2,803818	150,778775	13,491	-0,029901
2,807877	153,216806	13,592	-0,028843
2,811876	155,655962	13,693	-0,027784
2,815856	158,095118	13,794	-0,026726
2,819876	159,801852	13,896	-0,025985
2,823864	162,362516	13,996	-0,024874
2,827847	163,947743	14,097	-0,024186
2,831846	166,386899	14,197	-0,023127
2,835893	168,886809	14,297	-0,022042
2,839913	170,959191	14,397	-0,021143
2,843863	173,459101	14,497	-0,020058
2,847907	175,593363	14,597	-0,019131
2,851865	177,788378	14,697	-0,018179
2,855875	180,409796	14,798	-0,017041
2,859868	182,604812	14,898	-0,016088
2,863829	184,616440	14,998	-0,015215
2,867853	186,080159	15,106	-0,014580
2,871912	188,275175	15,207	-0,013627
2,875827	190,347557	15,307	-0,012728
2,879879	191,811276	15,408	-0,012093
2,883882	194,920975	15,514	-0,010743
2,887878	195,103237	15,615	-0,010664
2,891834	198,761971	15,716	-0,009076
2,895853	200,652092	15,816	-0,008256
2,899898	202,358826	15,921	-0,007515
2,903869	204,614595	16,022	-0,006536
2,907871	206,261701	16,123	-0,005821
2,911914	207,724294	16,224	-0,005187
2,915882	210,284958	16,324	-0,004075
2,919871	211,627169	16,425	-0,003493
2,923852	213,699552	16,525	-0,002593
2,927859	216,320970	16,626	-0,001456
2,931820	218,211091	16,726	-0,000635
2,935875	219,674809	16,826	0,000000
2,939862	221,807946	16,926	0,000926
2,943858	224,125594	17,027	0,001932
2,947902	226,442117	17,131	0,002937
2,951869	229,307676	17,231	0,004181
2,955865	230,832148	17,332	0,004842
2,959895	232,966410	17,433	0,005769
2,963873	235,343687	17,533	0,006800
2,967812	237,294562	17,634	0,007647
2,971894	240,038612	17,735	0,008838
2,975911	241,318944	17,835	0,009394
2,979867	243,148311	17,945	0,010188
2,983899	245,769729	18,046	0,011325
2,987857	247,415710	18,146	0,012040
2,991860	248,635288	18,248	0,012569
2,995878	250,769549	18,353	0,013495
2,999869	252,294022	18,453	0,014157
3,003822	254,000756	18,553	0,014897
3,007877	255,036947	18,653	0,015347
3,011878	257,171209	18,765	0,016273
3,015867	259,183963	18,866	0,017147
3,019840	260,951451	18,967	0,017914
3,023836	263,695502	19,067	0,019105
3,027830	264,853201	19,167	0,019607
3,031845	267,048216	19,269	0,020560
3,035861	269,060970	19,370	0,021434
3,039811	271,194106	19,470	0,022359
3,043881	274,486067	19,570	0,023788
3,047876	276,620329	19,671	0,024714
3,051856	278,876098	19,771	0,025693
3,055859	280,949606	19,871	0,026593
3,059870	283,692531	19,972	0,027784
3,063871	285,766039	20,072	0,028684
3,067859	286,864109	20,173	0,029160
3,071860	287,900301	20,274	0,029610
3,075827	289,667789	20,374	0,030377
3,079869	292,472593	20,475	0,031594
3,083892	294,119699	20,576	0,032309
3,087818	296,557730	20,676	0,033367
3,091897	298,142956	20,776	0,034055
3,095814	300,093831	20,876	0,034902
3,099885	302,532987	20,976	0,035960
3,103949	304,362354	21,077	0,036754
3,107851	305,764194	21,177	0,037363
3,111819	307,715069	21,278	0,038209
3,115828	308,508245	21,379	0,038554
3,119846	310,214979	21,479	0,039294
3,123868	311,617944	21,579	0,039903
3,127818	312,897150	21,680	0,040458
3,131844	315,641201	21,780	0,041649
3,135844	316,616638	21,881	0,042073
3,139807	318,934287	21,981	0,043079
3,143838	320,945916	22,081	0,043952
3,147793	323,018298	22,182	0,044851
3,151850	325,518208	22,282	0,045936
3,155853	327,408329	22,383	0,046756
3,159837	329,421083	22,484	0,047630
3,163835	331,798360	22,584	0,048662
3,167814	333,201325	22,686	0,049271
3,171823	335,457094	22,786	0,050250
3,175866	337,590231	22,887	0,051175
3,179855	339,480352	22,988	0,051996
3,183814	339,175457	23,088	0,051863
3,187822	339,542231	23,189	0,052022
3,191818	340,517668	23,289	0,052446
3,195829	340,760684	23,390	0,052551
3,199872	341,370473	23,492	0,052816
3,203872	344,785066	23,592	0,054298
3,207795	347,406484	23,692	0,055436
3,211841	349,601499	23,792	0,056388
3,215797	351,735761	23,893	0,057314
3,219815	354,052284	23,993	0,058320
3,223801	356,674827	24,093	0,059458
3,227840	359,174737	24,195	0,060543
3,231874	361,125612	24,296	0,061390
3,235846	363,258749	24,397	0,062315
3,239781	365,881291	24,497	0,063454
3,243827	368,380076	24,597	0,064538
3,247843	369,904549	24,697	0,065200
3,251825	370,636971	24,797	0,065518
3,255855	371,124127	24,897	0,065729
3,259789	371,307514	24,998	0,065809
3,263834	373,928931	25,099	0,066946
3,267842	376,245455	25,199	0,067952
3,271805	377,282771	25,299	0,068402
3,275803	380,209083	25,399	0,069672
3,279838	382,404099	25,500	0,070625
3,283826	384,354974	25,600	0,071471
3,287837	386,122462	25,701	0,072238
3,291821	387,464673	25,801	0,072821
3,295800	388,135216	25,901	0,073112
3,299813	390,695880	26,002	0,074223
3,303817	391,976211	26,103	0,074779
3,307823	392,525247	26,205	0,075017
3,311823	394,048594	26,306	0,075678
3,315866	396,487750	26,406	0,076737
3,319801	398,377871	26,506	0,077557
3,323777	400,328746	26,607	0,078404
3,327816	402,645269	26,708	0,079409
3,331803	405,207058	26,809	0,080521
3,335807	407,766597	26,909	0,081632
3,339817	408,254878	27,009	0,081844
3,343798	410,389140	27,109	0,082770
3,347789	412,218507	27,210	0,083564
3,351824	413,498839	27,310	0,084120
3,355770	414,839925	27,411	0,084702
3,359790	413,498839	27,512	0,084120
3,363813	416,851553	27,613	0,085575
3,367812	418,680921	27,714	0,086369
3,371806	420,022006	27,815	0,086951
3,375829	423,070952	27,915	0,088274
3,379782	424,716932	28,017	0,088988
3,383805	427,460983	28,117	0,090179
3,387763	429,899014	28,217	0,091237
3,391806	431,667627	28,350	0,092005
3,395781	434,533185	28,450	0,093249
3,399799	438,434935	28,552	0,094942
3,403775	439,228111	28,653	0,095286
3,407769	443,069106	28,754	0,096953
3,411775	444,836595	28,855	0,097720
3,415826	447,580645	28,955	0,098911
3,419805	450,385450	29,056	0,100128
3,423788	453,311762	29,157	0,101398
3,427796	455,567531	29,258	0,102377
3,431779	459,713422	29,358	0,104177
3,435812	460,567351	29,459	0,104547
3,439768	464,652488	29,559	0,106320
3,443767	467,090519	29,659	0,107378
3,447812	469,956077	29,759	0,108622
3,451744	472,944268	29,859	0,109919
3,455807	474,651003	29,959	0,110660
3,459787	478,493124	30,059	0,112327
3,463791	481,175295	30,160	0,113491
3,467812	483,980100	30,260	0,114708
3,471787	487,027920	30,361	0,116031
3,475779	489,345568	30,462	0,117037
3,479790	492,637529	30,563	0,118466
3,483785	495,868736	30,663	0,119868
3,487776	498,429399	30,764	0,120979
3,491794	500,929309	30,865	0,122064
3,495805	504,222395	30,965	0,123494
3,499798	507,148708	31,067	0,124764
3,503787	510,014266	31,169	0,126007
3,507784	512,635684	31,271	0,127145
3,511793	515,684629	31,371	0,128468
3,515809	518,671695	31,471	0,129765
3,519779	521,171605	31,579	0,130850
3,523752	523,853777	31,680	0,132014
3,527751	526,658581	31,781	0,133231
3,531759	529,646772	31,881	0,134528
3,535778	533,061366	31,996	0,136010
3,539782	535,620905	32,096	0,137121
3,543826	538,609096	32,197	0,138417
3,547741	541,779549	32,305	0,139793
3,551811	544,340213	32,406	0,140905
3,555765	547,022384	32,507	0,142069
3,559829	549,035138	32,607	0,142942
3,563799	553,181029	32,709	0,144742
3,567796	555,497552	32,810	0,145747
3,571785	558,790638	32,912	0,147176
3,575746	560,436618	33,013	0,147891
3,579783	563,362930	33,115	0,149161
3,583781	565,740207	33,215	0,150192
3,587757	567,874469	33,315	0,151119
3,591743	569,643082	33,416	0,151886
3,595750	572,446762	33,517	0,153103
3,599779	574,276129	33,617	0,153897
3,603758	576,898672	33,717	0,155035
3,607771	579,824984	33,817	0,156305
3,611774	580,739667	33,935	0,156702
3,615775	583,849366	34,036	0,158052
3,619781	586,653046	34,136	0,159269
3,623785	589,457850	34,236	0,160486
3,627781	592,262655	34,352	0,161703
3,631792	595,128213	34,453	0,162947
3,635781	597,262475	34,554	0,163873
3,639742	600,310295	34,655	0,165196
3,643811	602,870959	34,777	0,166307
3,647812	605,493502	34,877	0,167445
3,651781	609,029603	34,977	0,168980
3,655739	610,980478	35,077	0,169827
3,659787	614,455825	35,199	0,171335
3,663756	616,955735	35,300	0,172420
3,667724	620,003555	35,400	0,173743
3,671782	623,052500	35,512	0,175066
3,675803	625,796551	35,612	0,176257
3,679774	629,027758	35,712	0,177659
3,683840	631,709929	35,812	0,178823
3,687757	635,003015	35,913	0,180252
3,691764	637,563679	36,014	0,181364
3,695726	640,794886	36,114	0,182766
3,699697	643,842706	36,215	0,184089
3,703740	646,586757	36,316	0,185280
3,707775	649,757209	36,416	0,186656
3,711733	652,439381	36,517	0,187820
3,715770	656,342256	36,618	0,189514
3,719795	658,476517	36,732	0,190440
3,723758	661,829232	36,833	0,191895
3,727761	664,694790	36,934	0,193139
3,731796	668,048630	37,034	0,194594
3,735770	670,609294	37,141	0,195706
3,739736	672,804309	37,241	0,196658
3,743719	677,255094	37,341	0,198590
3,747761	680,242160	37,442	0,199886
3,751746	683,046965	37,557	0,201104
3,755691	685,302734	37,657	0,202083
3,759705	688,229047	37,757	0,203353
3,763755	691,095730	37,858	0,204597
3,767770	694,630706	37,959	0,206131
3,771751	696,033671	38,059	0,206740
3,775756	700,789351	38,159	0,208804
3,779696	703,471522	38,259	0,209968
3,783754	706,276327	38,360	0,211185
3,787732	709,507533	38,461	0,212587
3,791756	712,617233	38,562	0,213937
3,795708	715,544670	38,662	0,215208
3,799725	718,592490	38,765	0,216530
3,803743	721,092400	38,865	0,217615
3,807803	723,957958	38,967	0,218859
3,811728	727,249919	39,067	0,220288
3,815690	730,054724	39,168	0,221505
3,819730	732,920282	39,268	0,222749
3,823745	735,420192	39,368	0,223833
3,827770	738,956293	39,468	0,225368
3,831750	741,212063	39,569	0,226347
3,835740	744,139500	39,670	0,227618
3,839757	747,431461	39,770	0,229046
3,843729	749,870617	39,870	0,230105
3,847757	752,613542	39,971	0,231295
3,851735	755,967382	40,072	0,232751
3,855770	758,528046	40,173	0,233862
3,859768	761,637745	40,273	0,235212
3,863715	764,808198	40,374	0,236588
3,867741	766,941334	40,475	0,237514
3,871777	770,295174	40,575	0,238969
3,875754	773,344119	40,676	0,240292
3,879738	776,270431	40,792	0,241563
3,883742	778,769216	40,894	0,242647
3,887734	781,940794	40,996	0,244023
3,891677	784,562212	41,118	0,245161
3,895728	787,732665	41,218	0,246537
3,899721	789,866926	41,318	0,247463
3,903692	793,158887	41,418	0,248892
3,907741	794,988254	41,518	0,249686
3,911729	798,463602	41,619	0,251194
3,915782	801,755562	41,720	0,252623
3,919732	804,804507	41,820	0,253946
3,923774	807,242539	41,936	0,255004
3,927688	809,620941	42,047	0,256037
3,931741	813,096288	42,148	0,257545
3,935741	815,839214	42,249	0,258735
3,939746	818,217616	42,362	0,259768
3,943737	820,839034	42,463	0,260905
3,947717	824,497768	42,563	0,262493
3,951731	827,363326	42,663	0,263737
3,955726	830,412271	42,768	0,265060
3,959720	833,215951	42,868	0,266277
3,963707	835,715861	42,969	0,267362
3,967657	838,520665	43,069	0,268579
3,971710	841,568485	43,173	0,269902
3,975725	844,556677	43,274	0,271199
3,979701	847,239973	43,375	0,272363
3,983710	849,982899	43,475	0,273554
3,987649	853,274860	43,575	0,274982
3,991719	855,897402	43,676	0,276121
3,995757	858,092418	43,776	0,277073
3,999725	861,505886	43,876	0,278555
4,003744	864,189183	43,984	0,279719
4,007696	866,810601	44,084	0,280857
4,011704	869,554651	44,184	0,282048
4,015715	872,663225	44,284	0,283397
4,019765	875,102382	44,403	0,284456
4,023663	877,663045	44,504	0,285567
4,027662	880,833498	44,604	0,286943
4,031686	883,516795	44,715	0,288107
4,035744	886,198967	44,815	0,289271
4,039745	888,211721	44,916	0,290145
4,043696	890,223349	45,016	0,291018
4,047700	893,028154	45,116	0,292235
4,051753	894,918275	45,217	0,293056
4,055711	896,869150	45,317	0,293902
4,059709	899,977724	45,418	0,295251
4,063746	902,539513	45,518	0,296363
4,067692	904,246247	45,619	0,297104
4,071708	906,806911	45,719	0,298215
4,075761	909,611715	45,819	0,299433
4,079761	911,988992	45,919	0,300464
4,083745	914,611535	46,019	0,301603
4,087746	917,598601	46,119	0,302899
4,091724	920,526039	46,219	0,304169
4,095721	922,842562	46,320	0,305175
4,099777	926,195276	46,421	0,306630
4,103739	928,878573	46,523	0,307794
4,107643	931,621499	46,624	0,308985
4,111660	934,791952	46,724	0,310361
4,115743	938,572194	46,824	0,312001
4,119673	940,096666	46,926	0,312663
4,123717	943,022978	47,027	0,313933
4,127710	946,559080	47,127	0,315468
4,131692	948,754095	47,227	0,316420
4,135716	952,655845	47,328	0,318114
4,139695	954,607845	47,429	0,318961
4,143686	957,351896	47,530	0,320152
4,147704	960,460469	47,631	0,321501
4,151724	963,326028	47,731	0,322745
4,155765	966,009325	47,832	0,323909
4,159706	966,862129	47,946	0,324279
4,163711	972,106090	48,046	0,326555
4,167715	974,483367	48,146	0,327587
4,171715	977,410804	48,247	0,328857
4,175692	980,153730	48,352	0,330048
4,179748	983,812464	48,452	0,331636
4,183691	986,556515	48,553	0,332827
4,187695	989,177932	48,653	0,333964
4,191710	992,164999	48,770	0,335261
4,195700	994,969803	48,871	0,336478
4,199705	997,956869	48,972	0,337774
4,203716	1000,761674	49,072	0,338992
4,207704	1004,115513	49,183	0,340447
4,211654	1006,676177	49,284	0,341559
4,215667	1009,785876	49,384	0,342908
4,219651	1012,712189	49,484	0,344178
4,223713	1015,516993	49,609	0,345396
4,227691	1018,320673	49,709	0,346612
4,231647	1021,369618	49,809	0,347936
4,235677	1024,174422	49,922	0,349153
4,239620	1026,918473	50,023	0,350344
4,243651	1030,515328	50,124	0,351905
4,247726	1032,893730	50,224	0,352937
4,251709	1035,697410	50,326	0,354154
4,255735	1038,685601	50,426	0,355451
4,259690	1042,403964	50,527	0,357064
4,263708	1044,965753	50,628	0,358176
4,267708	1047,403784	50,731	0,359234
4,271670	1050,939885	50,833	0,360769
4,275691	1053,623182	50,934	0,361934
4,279707	1056,671002	51,035	0,363256
4,283669	1059,659193	51,144	0,364553
4,287745	1062,708138	51,244	0,365876
4,291676	1064,902029	51,345	0,366829
4,295663	1067,706833	51,446	0,368046
4,299674	1071,121427	51,559	0,369528
4,303741	1074,291880	51,659	0,370904
4,307653	1077,096684	51,760	0,372121
4,311654	1079,839610	51,861	0,373312
4,315641	1082,705168	51,973	0,374555
4,319697	1085,875621	52,073	0,375931
4,323670	1089,350968	52,173	0,377439
4,327678	1091,668617	52,273	0,378445
4,331645	1095,326226	52,377	0,380033
4,335696	1097,886890	52,477	0,381144
4,339674	1100,509433	52,577	0,382282
4,343643	1103,557253	52,677	0,383605
4,347677	1106,117917	52,777	0,384716
4,351710	1109,227616	52,878	0,386066
4,355691	1112,458822	52,979	0,387468
4,359653	1115,263627	53,080	0,388686
4,363654	1118,494834	53,182	0,390088
4,367644	1121,299638	53,283	0,391305
4,371662	1124,104443	53,385	0,392522
4,375636	1127,335649	53,485	0,393925
4,379687	1130,628735	53,586	0,395354
4,383688	1132,335469	53,687	0,396095
4,387673	1136,237219	53,788	0,397788
4,391654	1138,737129	53,889	0,398873
4,395691	1142,394738	54,007	0,400460
4,399640	1144,529000	54,108	0,401387
4,403661	1147,943593	54,208	0,402869
4,407664	1151,174800	54,325	0,404271
4,411667	1154,040359	54,426	0,405515
4,415624	1156,723655	54,527	0,406679
4,419679	1159,710721	54,628	0,407976
4,423632	1162,515526	54,732	0,409193
4,427632	1164,892803	54,832	0,410225
4,431667	1167,880994	54,933	0,411521
4,435645	1171,295588	55,033	0,413003
4,439659	1174,161146	55,134	0,414247
4,443686	1176,599177	55,234	0,415305
4,447654	1180,135279	55,335	0,416840
4,451678	1183,733259	55,436	0,418401
4,455641	1185,684134	55,552	0,419248
4,459622	1188,731954	55,653	0,420571
4,463656	1191,964286	55,753	0,421974
4,467666	1194,829844	55,854	0,423217
4,471658	1198,000297	55,955	0,424593
4,475660	1200,500207	56,057	0,425678
4,479621	1203,487273	56,159	0,426975
4,483623	1205,987183	56,260	0,428060
4,487666	1209,523284	56,383	0,429594
4,491671	1211,779054	56,484	0,430573
4,495670	1215,742683	56,584	0,432293
4,499635	1218,790503	56,684	0,433616
4,503639	1221,290413	56,784	0,434701
4,507666	1224,216725	56,884	0,435971
4,511639	1226,960775	56,984	0,437162
4,515645	1230,009721	57,086	0,438485
4,519629	1233,180174	57,195	0,439861
4,523655	1236,106486	57,296	0,441131
4,527645	1239,398447	57,397	0,442560
4,531628	1241,593462	57,497	0,443513
4,535622	1245,252196	57,608	0,445101
4,539609	1248,178508	57,708	0,446371
4,543629	1250,799926	57,809	0,447508
4,547625	1254,214520	57,910	0,448990
4,551625	1257,019324	58,011	0,450208
4,555599	1259,457355	58,111	0,451266
4,559597	1262,811195	58,211	0,452721
4,563606	1265,859015	58,312	0,454044
4,567619	1268,724573	58,413	0,455288
4,571657	1271,224483	58,514	0,456373
4,575615	1274,273428	58,615	0,457696
4,575660	1273,968534	58,715	0,457563
4,575617	1275,248866	58,817	0,458119
4,575615	1273,968534	58,917	0,457563
4,575663	1273,786272	59,019	0,457484
4,575615	1274,090042	59,129	0,457616
4,575610	1274,212675	59,229	0,457669
4,575623	1274,212675	59,329	0,457669
4,575599	1274,029288	59,430	0,457590
4,575638	1274,090042	59,531	0,457616
4,575583	1274,273428	59,631	0,457696
4,575619	1274,151921	59,732	0,457643
4,575620	1274,151921	59,832	0,457643
4,575620	1274,212675	59,932	0,457669
4,575661	1274,273428	60,033	0,457696
4,575570	1274,151921	60,133	0,457643
4,575604	1274,456815	60,234	0,457775
4,575597	1273,786272	60,335	0,457484
4,575588	1274,396061	60,437	0,457749
4,575562	1274,212675	60,537	0,457669
4,575619	1274,639077	60,637	0,457854
4,575590	1274,212675	60,737	0,457669
4,575616	1274,273428	60,837	0,457696
4,575607	1274,883218	60,937	0,457960
4,575574	1273,786272	61,038	0,457484
4,575632	1274,151921	61,138	0,457643
4,575607	1274,029288	61,240	0,457590
4,575660	1274,396061	61,341	0,457749
4,575567	1273,786272	61,441	0,457484
4,575591	1274,639077	61,542	0,457854
4,575599	1273,602886	61,642	0,457405
4,575610	1274,639077	61,742	0,457854
4,575630	1274,029288	61,843	0,457590
4,575667	1273,724393	61,953	0,457458
4,575580	1274,212675	62,054	0,457669
4,575619	1274,029288	62,154	0,457590
4,575602	1273,907780	62,254	0,457537
4,575575	1274,151921	62,371	0,457643
4,575590	1274,396061	62,471	0,457749
4,575581	1274,212675	62,572	0,457669
4,575627	1273,847026	62,672	0,457511
4,575591	1273,663639	62,783	0,457431
4,575618	1274,029288	62,883	0,457590
4,575647	1274,151921	62,983	0,457643
4,575633	1273,663639	63,084	0,457431
4,575624	1274,456815	63,186	0,457775
4,575615	1274,699831	63,286	0,457881
4,575587	1274,029288	63,388	0,457590
4,575593	1274,029288	63,488	0,457590
4,575622	1273,602886	63,603	0,457405
4,575652	1273,786272	63,705	0,457484
4,571588	1271,286362	63,805	0,456399
4,567631	1268,420804	63,919	0,455156
4,563635	1264,274914	64,019	0,453356
4,559660	1261,591617	64,119	0,452192
4,555614	1259,091707	64,219	0,451107
4,551649	1255,372219	64,323	0,449493
4,547571	1252,934188	64,424	0,448435
4,543662	1249,885243	64,524	0,447111
4,539628	1246,837423	64,626	0,445789
4,535640	1244,032618	64,726	0,444571
4,531647	1240,739532	64,829	0,443142
4,527679	1238,240747	64,929	0,442058
4,523630	1234,886908	65,029	0,440602
4,519598	1231,960595	65,135	0,439332
4,515586	1228,850896	65,236	0,437982
4,511631	1226,106846	65,336	0,436792
4,507682	1222,936393	65,437	0,435416
4,503611	1220,375729	65,537	0,434304
4,499618	1216,778874	65,637	0,432743
4,495626	1213,913315	65,738	0,431500
4,491650	1210,559476	65,838	0,430044
4,487629	1207,998812	65,941	0,428933
4,483658	1205,133254	66,041	0,427689
4,479639	1202,390328	66,142	0,426499
4,475651	1198,853102	66,242	0,424963
4,471634	1196,536578	66,344	0,423958
4,467676	1193,000477	66,444	0,422423
4,463667	1190,256426	66,544	0,421232
4,459635	1187,574255	66,646	0,420068
4,455670	1183,976274	66,746	0,418507
4,451633	1180,440173	66,846	0,416972
4,447622	1178,854947	66,946	0,416284
4,443628	1175,075830	67,046	0,414644
4,439640	1172,514041	67,146	0,413532
4,435660	1169,100572	67,247	0,412051
4,431661	1165,990873	67,347	0,410701
4,427655	1163,246823	67,447	0,409510
4,423612	1160,625405	67,557	0,408373
4,419648	1157,150058	67,658	0,406864
4,415642	1154,406007	67,758	0,405673
4,411662	1151,663081	67,858	0,404483
4,407697	1148,614136	67,966	0,403160
4,403650	1145,627070	68,067	0,401863
4,399684	1142,517371	68,167	0,400514
4,395678	1139,102778	68,268	0,399032
4,391604	1136,481360	68,383	0,397894
4,387694	1133,676555	68,484	0,396677
4,383659	1130,261962	68,584	0,395195
4,379688	1127,519036	68,684	0,394004
4,375644	1123,982935	68,791	0,392470
4,371688	1121,421146	68,891	0,391358
4,367660	1118,983115	68,992	0,390300
4,363651	1115,445889	69,092	0,388765
4,359640	1112,214682	69,214	0,387362
4,355654	1109,411002	69,316	0,386146
4,351646	1106,911092	69,417	0,385061
4,347688	1104,045534	69,538	0,383817
4,343665	1101,118097	69,638	0,382546
4,339668	1098,009523	69,739	0,381197
4,335599	1094,350788	69,839	0,379609
4,331641	1090,631300	69,940	0,377995
4,327722	1088,437410	70,040	0,377043
4,323680	1085,509973	70,140	0,375772
4,319667	1082,644414	70,240	0,374529
4,315744	1079,534715	70,341	0,373179
4,311697	1076,486895	70,441	0,371856
4,307702	1073,194934	70,541	0,370428
4,303693	1070,145989	70,643	0,369104
4,299610	1067,585325	70,743	0,367993
4,295676	1064,597134	70,843	0,366696
4,291664	1062,036470	70,944	0,365585
4,287650	1059,049404	71,044	0,364289
4,283700	1055,695565	71,164	0,362833
4,279641	1052,280971	71,266	0,361351
4,275690	1049,842940	71,366	0,360293
4,271683	1046,549854	71,466	0,358864
4,267720	1043,746175	71,586	0,357647
4,263701	1041,062878	71,686	0,356482
4,259680	1037,526777	71,788	0,354948
4,255660	1034,782726	71,889	0,353757
4,251690	1031,917168	72,003	0,352513
4,247684	1028,869348	72,105	0,351190
4,243654	1025,576262	72,206	0,349761
4,239698	1022,649950	72,306	0,348491
4,235697	1019,845145	72,417	0,347274
4,231701	1016,918833	72,517	0,346004
4,227668	1013,564993	72,617	0,344548
4,223698	1010,577927	72,718	0,343252
4,219650	1008,078017	72,822	0,342167
4,215688	1005,090951	72,922	0,340871
4,211763	1002,164639	73,023	0,339601
4,207706	999,481342	73,143	0,338436
4,203694	996,250135	73,243	0,337034
4,199660	992,653280	73,344	0,335473
4,195694	989,969983	73,444	0,334308
4,191696	987,531952	73,545	0,333250
4,187678	983,933972	73,645	0,331688
4,183690	980,032222	73,747	0,329995
4,179710	977,958714	73,847	0,329095
4,175677	974,727508	73,949	0,327693
4,171762	971,679688	74,049	0,326370
4,167695	969,484672	74,149	0,325417
4,163700	965,825938	74,249	0,323830
4,159713	963,204520	74,349	0,322692
4,155688	960,034067	74,449	0,321316
4,151728	957,168509	74,550	0,320072
4,147704	954,363704	74,651	0,318855
4,143688	951,376638	74,751	0,317559
4,139721	947,717904	74,852	0,315971
4,135723	944,730838	74,953	0,314674
4,131711	943,999541	75,055	0,314357
4,127697	938,937842	75,173	0,312160
4,123713	935,890022	75,273	0,310837
4,119688	932,841077	75,374	0,309514
4,115689	930,524554	75,475	0,308509
4,111730	926,683558	75,579	0,306842
4,107707	924,488542	75,679	0,305889
4,103731	921,134703	75,779	0,304434
4,099745	918,574039	75,880	0,303322
4,095682	915,282078	76,002	0,301894
4,091783	911,988992	76,103	0,300464
4,087661	909,306821	76,204	0,299300
4,083727	905,405071	76,304	0,297607
4,079786	902,905161	76,419	0,296522
4,075733	899,612075	76,519	0,295093
4,071714	896,136728	76,619	0,293584
4,067711	894,003591	76,735	0,292659
4,063655	891,138033	76,836	0,291415
4,059737	888,454736	76,936	0,290250
4,055751	885,102022	77,036	0,288795
4,051688	882,297217	77,154	0,287578
4,047714	878,882623	77,255	0,286096
4,043778	875,772924	77,356	0,284747
4,039737	873,090753	77,457	0,283583
4,035720	869,736913	77,573	0,282127
4,031720	867,115495	77,674	0,280989
4,027709	863,761656	77,775	0,279534
4,023761	860,164801	77,876	0,277973
4,019738	858,274680	77,988	0,277152
4,015724	854,982719	78,089	0,275724
4,011774	851,995653	78,189	0,274427
4,007726	849,068215	78,290	0,273157
4,003731	845,776255	78,395	0,271728
3,999741	843,397852	78,495	0,270696
3,995735	840,227400	78,596	0,269320
3,991684	836,691298	78,698	0,267785
3,987743	833,947248	78,800	0,266594
3,983734	831,081689	78,900	0,265351
3,979772	827,606342	79,000	0,263842
3,975783	824,314381	79,101	0,262414
3,971765	821,327315	79,203	0,261117
3,967740	817,851968	79,304	0,259609
3,963777	815,047163	79,405	0,258392
3,959750	811,632569	79,506	0,256910
3,955750	809,011152	79,608	0,255772
3,951727	806,024086	79,710	0,254476
3,947741	803,158527	79,811	0,253232
3,943742	799,743934	79,912	0,251750
3,939697	797,427410	80,024	0,250745
3,935742	793,707922	80,126	0,249130
3,931751	790,719731	80,227	0,247833
3,927722	787,611157	80,346	0,246484
3,923756	784,622966	80,447	0,245188
3,919760	781,696654	80,548	0,243917
3,915787	778,403568	80,648	0,242488
3,911739	775,050853	80,753	0,241033
3,907743	772,062662	80,853	0,239736
3,903762	768,282420	80,953	0,238096
3,899727	766,149284	81,053	0,237170
3,895741	762,551303	81,154	0,235608
3,891732	760,295534	81,254	0,234629
3,887810	756,942819	81,354	0,233174
3,883734	753,528226	81,454	0,231692
3,879803	750,236265	81,554	0,230264
3,875757	746,943179	81,654	0,228834
3,871733	744,261008	81,755	0,227670
3,867763	740,664153	81,856	0,226109
3,863726	738,712153	81,974	0,225262
3,859803	735,420192	82,075	0,223833
3,855750	732,066352	82,175	0,222378
3,851741	729,628321	82,276	0,221320
3,847698	726,091095	82,399	0,219785
3,843734	722,982521	82,501	0,218436
3,839760	719,812068	82,602	0,217060
3,835827	716,885756	82,703	0,215790
3,831768	713,776057	82,804	0,214440
3,827746	711,276147	82,904	0,213355
3,823769	707,251764	83,005	0,211608
3,819779	704,325452	83,107	0,210338
3,815784	701,459893	83,211	0,209095
3,811745	698,228687	83,312	0,207692
3,807809	695,179742	83,412	0,206369
3,803777	692,253429	83,514	0,205099
3,799757	689,692765	83,614	0,203988
3,795771	685,607629	83,715	0,202215
3,791732	682,925457	83,816	0,201051
3,787749	680,059899	83,916	0,199807
3,783730	677,315848	84,029	0,198616
3,779783	673,901255	84,129	0,197134
3,775709	670,609294	84,229	0,195706
3,771702	667,865243	84,353	0,194515
3,767727	665,183072	84,454	0,193351
3,763753	661,646970	84,555	0,191816
3,759702	659,939111	84,655	0,191075
3,755727	655,976608	84,759	0,189355
3,751713	652,317873	84,859	0,187767
3,747777	649,757209	84,961	0,186656
3,743800	646,221108	85,062	0,185121
3,739781	643,172163	85,164	0,183798
3,735769	639,940956	85,266	0,182396
3,731764	637,014644	85,366	0,181125
3,727777	633,783437	85,467	0,179723
3,723780	630,978633	85,576	0,178506
3,719750	627,808180	85,677	0,177130
3,715741	624,759235	85,777	0,175807
3,711748	621,588782	85,877	0,174431
3,707742	619,028118	85,986	0,173319
3,703796	615,187122	86,087	0,171652
3,699753	612,382317	86,187	0,170435
3,695807	609,516759	86,288	0,169191
3,691728	605,798396	86,390	0,167578
3,687742	602,870959	86,490	0,166307
3,683737	598,847701	86,591	0,164561
3,679777	597,139842	86,692	0,163820
3,675772	594,152776	86,802	0,162523
3,671758	590,798936	86,903	0,161068
3,667796	588,848061	87,003	0,160221
3,663749	584,823679	87,103	0,158475
3,659733	581,897366	87,210	0,157205
3,655749	579,336703	87,312	0,156093
3,651777	575,679093	87,412	0,154506
3,647765	573,300691	87,512	0,153474
3,643760	570,008731	87,613	0,152045
3,639787	567,021664	87,713	0,150749
3,635721	563,911965	87,813	0,149399
3,631808	560,436618	87,914	0,147891
3,627783	557,387673	88,016	0,146567
3,623733	554,948517	88,116	0,145509
3,619781	551,412415	88,216	0,143974
3,615781	548,486103	88,316	0,142704
3,611764	545,071510	88,431	0,141222
3,607783	542,266705	88,533	0,140005
3,603782	539,828674	88,633	0,138947
3,599726	536,474834	88,745	0,137491
3,595777	533,120995	88,845	0,136036
3,591792	530,012421	88,945	0,134687
3,587786	528,732089	89,046	0,134131
3,583777	524,342058	89,152	0,132226
3,579771	521,476499	89,252	0,130982
3,575781	518,061906	89,352	0,129500
3,571793	515,135594	89,452	0,128230
3,567785	512,391543	89,556	0,127039
3,563775	509,830879	89,657	0,125928
3,559771	505,868376	89,757	0,124208
3,555786	503,550727	89,857	0,123202
3,551788	500,258767	89,957	0,121773
3,547771	497,942243	90,058	0,120768
3,543785	493,978615	90,158	0,119048
3,539768	491,235689	90,259	0,117857
3,535772	488,370131	90,375	0,116614
3,531754	485,137799	90,476	0,115211
3,527805	482,029225	90,576	0,113862
3,523795	478,980280	90,676	0,112539
3,519774	476,219353	90,788	0,111340
3,515766	473,614811	90,889	0,110210
3,511786	470,444358	90,990	0,108834
3,507796	466,969011	91,090	0,107326
3,503807	464,773996	91,191	0,106373
3,499748	461,177140	91,292	0,104812
3,495801	458,128195	91,393	0,103489
3,491791	455,141129	91,494	0,102192
3,487814	452,885360	91,604	0,101213
3,483775	449,775661	91,705	0,099864
3,479827	446,665962	91,806	0,098514
3,475750	442,885720	91,906	0,096874
3,471787	440,813337	92,023	0,095974
3,467832	437,825146	92,123	0,094677
3,463794	435,020341	92,223	0,093460
3,459825	431,301978	92,323	0,091846
3,455791	428,618682	92,433	0,090682
3,451794	425,448229	92,534	0,089306
3,447756	423,131705	92,635	0,088300
3,443817	419,656358	92,735	0,086792
3,439764	416,669292	92,840	0,085496
3,435782	413,559593	92,941	0,084146
3,431813	410,510648	93,042	0,082823
3,427835	407,462828	93,158	0,081500
3,423833	404,840285	93,259	0,080362
3,419788	402,218867	93,359	0,079224
3,415817	398,987660	93,460	0,077822
3,411844	396,182856	93,563	0,076604
3,407810	393,317297	93,663	0,075361
3,403770	390,146844	93,764	0,073985
3,399824	386,732251	93,865	0,072503
3,395824	384,171587	93,978	0,071392
3,391868	381,245275	94,079	0,070122
3,387833	378,501224	94,180	0,068931
3,383821	375,453404	94,281	0,067608
3,379849	373,075002	94,382	0,066576
3,375797	370,697725	94,483	0,065544
3,371852	366,246940	94,585	0,063612
3,367817	363,502889	94,685	0,062421
3,363826	360,515823	94,785	0,061125
3,359811	358,198175	94,886	0,060119
3,355790	354,478687	94,987	0,058505
3,351838	352,162163	95,087	0,057500
3,347810	349,053589	95,204	0,056150
3,343814	345,882011	95,305	0,054774
3,339825	343,504734	95,406	0,053742
3,335844	340,760684	95,506	0,052551
3,331845	337,652110	95,606	0,051202
3,327868	334,847305	95,706	0,049985
3,323806	333,262079	95,806	0,049297
3,319875	329,055435	95,906	0,047471
3,315853	326,737786	96,007	0,046465
3,311835	324,116368	96,109	0,045328
3,307849	320,396880	96,210	0,043713
3,303872	318,385252	96,310	0,042840
3,299822	315,701955	96,417	0,041676
3,295838	312,349240	96,518	0,040221
3,291854	309,118034	96,618	0,038818
3,287817	307,166034	96,719	0,037971
3,283884	303,691811	96,829	0,036463
3,279844	300,642866	96,929	0,035140
3,275852	298,142956	97,029	0,034055
3,271821	295,155890	97,131	0,032759
3,267877	292,900121	97,237	0,031780
3,263836	290,216824	97,337	0,030615
3,259831	286,558090	97,438	0,029027
3,255821	284,302320	97,557	0,028048
3,251824	281,010360	97,657	0,026620
3,247819	278,633083	97,757	0,025588
3,243845	276,071294	97,857	0,024476
3,239834	272,840087	97,965	0,023074
3,235867	270,402056	98,066	0,022016
3,231820	266,864829	98,167	0,020480
3,227828	264,305291	98,268	0,019370
3,223826	261,072959	98,384	0,017967
3,219819	258,268154	98,486	0,016750
3,215845	255,464475	98,587	0,015533
3,211894	252,598916	98,688	0,014289
3,207850	250,646916	98,806	0,013442
3,203840	247,050061	98,907	0,011881
3,199878	244,672784	99,007	0,010849
3,195844	241,318944	99,107	0,009394
3,191799	238,209245	99,218	0,008044
3,187851	235,404441	99,318	0,006827
3,183846	232,904531	99,418	0,005742
3,179833	230,222359	99,519	0,004578
3,175841	227,235293	99,639	0,003281
3,171862	224,551996	99,739	0,002117
3,167815	221,991332	99,839	0,001005
3,163849	218,271844	99,960	-0,000609
3,159869	215,955321	100,061	-0,001614
3,155859	213,455411	100,162	-0,002699
3,151848	210,345712	100,263	-0,004049
3,147848	207,297892	100,364	-0,005372
3,143862	205,529279	100,464	-0,006139
3,139882	202,358826	100,566	-0,007515
3,135841	199,615900	100,667	-0,008706
3,131857	197,054111	100,768	-0,009817
3,127805	194,067045	100,869	-0,011114
3,123855	190,713206	100,971	-0,012569
3,119885	188,335928	101,071	-0,013601
3,115877	184,434179	101,172	-0,015294
3,111864	182,116530	101,273	-0,016300
3,107852	179,434359	101,374	-0,017464
3,103873	176,995203	101,475	-0,018523
3,099870	173,519855	101,595	-0,020031
3,095846	170,776930	101,696	-0,021222
3,091880	167,849492	101,796	-0,022492
3,087891	165,045813	101,897	-0,023709
3,083846	162,301762	102,012	-0,024900
3,079854	158,765661	102,113	-0,026435
3,075887	156,509892	102,214	-0,027414
3,071870	153,765841	102,315	-0,028604
3,067894	150,778775	102,417	-0,029901
3,063901	148,827900	102,518	-0,030748
3,059889	145,657447	102,618	-0,032124
3,055918	143,644693	102,719	-0,032997
3,051872	140,962522	102,822	-0,034161
3,047823	138,462612	102,923	-0,035246
3,043866	135,292159	103,023	-0,036622
3,039852	134,133335	103,124	-0,037125
3,035861	131,451163	103,235	-0,038289
3,031947	129,195394	103,336	-0,039268
3,027863	126,451343	103,436	-0,040459
3,023922	124,744609	103,537	-0,041200
3,019888	122,731855	103,652	-0,042073
3,015911	120,110437	103,753	-0,043211
3,011907	118,342949	103,855	-0,043978
3,007883	115,110617	103,955	-0,045381
3,003871	114,013672	104,055	-0,045857
2,999842	111,087360	104,155	-0,047127
2,995893	109,989289	104,255	-0,047604
2,991872	108,708957	104,374	-0,048159
2,987865	107,307118	104,475	-0,048768
2,983814	105,538504	104,576	-0,049535
2,979895	104,807208	104,677	-0,049853
2,975872	102,063157	104,790	-0,051043
2,971860	101,453368	104,891	-0,051308
2,967886	99,990774	104,991	-0,051943
2,963869	99,685880	105,092	-0,052075
2,959895	97,125216	105,220	-0,053187
2,955906	96,576181	105,320	-0,053425
2,951897	95,295849	105,420	-0,053980
2,947882	93,466482	105,522	-0,054774
2,943876	92,003888	105,622	-0,055409
2,939906	90,722431	105,722	-0,055965
2,935836	89,746994	105,823	-0,056389
2,931869	89,869627	105,923	-0,056335
2,927895	87,674611	106,040	-0,057288
2,923886	86,210892	106,140	-0,057923
2,919903	85,601103	106,241	-0,058188
2,915888	84,809053	106,360	-0,058532
2,911900	84,381525	106,460	-0,058717
2,907866	83,650229	106,561	-0,059035
2,903892	81,943494	106,661	-0,059775
2,899852	81,515967	106,767	-0,059961
2,895928	80,663162	106,868	-0,060331
2,891896	80,419022	106,968	-0,060437
2,887876	79,565092	107,069	-0,060808
2,883878	78,407393	107,171	-0,061310
2,879883	77,248569	107,271	-0,061813
2,875913	75,602589	107,372	-0,062527
2,871920	74,504518	107,473	-0,063004
2,867893	73,651714	107,595	-0,063374
2,863826	72,432136	107,696	-0,063903
2,859884	71,456698	107,797	-0,064327
2,855869	69,688085	107,897	-0,065094
2,851853	69,261683	108,021	-0,065279
2,847911	67,371562	108,122	-0,066100
2,843874	66,456878	108,222	-0,066497
2,839904	66,701019	108,323	-0,066391
2,835896	65,115792	108,429	-0,067079
2,831886	63,407933	108,529	-0,067820
2,827893	62,250234	108,631	-0,068322
2,823905	61,945340	108,731	-0,068455
2,819882	60,665008	108,848	-0,069010
2,815856	59,750324	108,950	-0,069407
2,811889	58,530746	109,051	-0,069937
2,807870	58,165098	109,173	-0,070095
2,803929	56,152344	109,275	-0,070969
2,799883	55,604434	109,375	-0,071207
2,795900	54,140715	109,475	-0,071842
2,791896	52,738875	109,575	-0,072450
2,787857	52,068332	109,676	-0,072741
2,783878	50,299719	109,776	-0,073509
2,779901	49,568422	109,877	-0,073826
2,775872	48,471477	109,981	-0,074302
2,771897	47,678301	110,081	-0,074646
2,767875	46,275337	110,181	-0,075255
2,763929	44,995005	110,282	-0,075811
2,759939	43,653919	110,402	-0,076393
2,755908	42,922622	110,503	-0,076710
2,751864	41,458903	110,603	-0,077346
2,747849	40,971747	110,703	-0,077557
2,743859	38,593345	110,807	-0,078589
2,739898	38,409958	110,907	-0,078669
2,735904	38,227697	111,009	-0,078748
2,731926	36,276822	111,111	-0,079595
2,727900	35,422892	111,212	-0,079965
2,723902	34,325947	111,313	-0,080441
2,719881	33,288630	111,413	-0,080892
2,715905	32,801474	111,513	-0,081103
2,711871	30,911353	111,628	-0,081923
2,707862	29,996670	111,728	-0,082320
2,703937	29,326127	111,828	-0,082611
2,699905	28,229182	111,928	-0,083087
2,695903	26,947725	112,047	-0,083644
2,691927	25,485131	112,147	-0,084278
2,687891	24,326307	112,247	-0,084781
2,683882	23,411623	112,364	-0,085178
2,679853	21,949030	112,465	-0,085813
2,675859	21,399995	112,565	-0,086051
2,671883	19,814768	112,665	-0,086739
2,667897	19,204979	112,772	-0,087004
2,663873	18,717823	112,873	-0,087215
2,659870	17,680507	112,973	-0,087666
2,655903	17,619753	113,074	-0,087692
2,651910	17,619753	113,183	-0,087692
2,647926	15,242476	113,283	-0,088724
2,643882	13,901390	113,383	-0,089306
2,639892	12,559179	113,483	-0,089888
2,635914	11,827882	113,607	-0,090206
2,631888	10,364163	113,708	-0,090841
2,627869	10,181902	113,809	-0,090920
2,623929	10,059269	113,909	-0,090973
2,619864	8,839691	114,028	-0,091502
2,615938	7,559359	114,128	-0,092058
2,611872	5,791871	114,228	-0,092825
2,607949	5,182082	114,328	-0,093090
2,603925	3,657609	114,429	-0,093751
2,599875	4,023257	114,529	-0,093593
2,595911	2,987066	114,629	-0,094042
2,591916	1,401840	114,729	-0,094730
2,587916	0,731297	114,832	-0,095021
2,583888	0,182262	114,932	-0,095260
2,579905	-0,488281	115,032	-0,095551
2,575902	-1,768613	115,133	-0,096106
2,571857	-3,414594	115,234	-0,096821
2,567908	-4,024383	115,334	-0,097085
2,563886	-4,450785	115,434	-0,097271
2,559918	-5,122453	115,534	-0,097562
2,555934	-6,585046	115,634	-0,098197
2,551915	-6,585046	115,735	-0,098197
2,547950	-7,683117	115,835	-0,098673
2,543863	-8,840816	115,936	-0,099176
2,539905	-9,145710	116,050	-0,099308
2,535909	-8,048765	116,150	-0,098832
2,531914	-7,621238	116,251	-0,098646
2,527944	-8,109519	116,351	-0,098858
2,523877	-7,926132	116,459	-0,098779
2,519874	-7,683117	116,560	-0,098673
2,515906	-7,316343	116,661	-0,098514
2,511865	-7,560484	116,778	-0,098620
2,507894	-7,316343	116,879	-0,098514
2,503930	-6,706554	116,979	-0,098250
2,499928	-6,706554	117,080	-0,098250
2,495893	-6,524293	117,188	-0,098170
2,491912	-6,280152	117,289	-0,098064
2,487905	-6,097890	117,389	-0,097985
2,483938	-6,402785	117,490	-0,098118
2,479918	-5,670363	117,608	-0,097800
2,475948	-5,427347	117,708	-0,097694
2,471913	-4,147015	117,808	-0,097139
2,467913	-3,902875	117,908	-0,097033
2,463883	-3,658734	118,017	-0,096927
2,459910	-3,537226	118,117	-0,096874
2,455901	-3,353840	118,218	-0,096794
2,451916	-3,597980	118,318	-0,096900
2,447910	-3,537226	118,438	-0,096874
2,443947	-3,109699	118,538	-0,096688
2,439922	-3,353840	118,639	-0,096794
2,435897	-2,317648	118,739	-0,096345
2,431925	-3,232332	118,862	-0,096742
2,427948	-3,109699	118,963	-0,096688
2,423905	-2,560664	119,063	-0,096450
2,419880	-2,560664	119,185	-0,096450
2,415901	-2,134262	119,286	-0,096265
2,411884	-2,499910	119,387	-0,096424
2,407927	-2,012754	119,487	-0,096212
2,403914	-2,134262	119,587	-0,096265
2,399867	-1,950875	119,687	-0,096186
2,395892	-1,768613	119,789	-0,096106
2,391908	-1,585226	119,890	-0,096027
2,387924	-1,524473	120,008	-0,096000
2,383904	-1,585226	120,108	-0,096027
2,379910	-1,037316	120,209	-0,095789
2,375924	-0,304895	120,310	-0,095471
2,371976	-0,793176	120,431	-0,095683
2,367914	-0,366773	120,531	-0,095498
2,363920	-0,975437	120,631	-0,095762
2,359947	-0,549035	120,731	-0,095577
2,355888	-0,488281	120,838	-0,095551
2,351947	-0,183387	120,938	-0,095418
2,347911	0,000000	121,039	-0,095339
2,343911	-0,427527	121,140	-0,095524
2,339865	0,000000	121,266	-0,095339
2,335890	0,060754	121,368	-0,095313
2,331899	0,000000	121,469	-0,095339
2,327913	0,000000	121,585	-0,095339
2,323923	0,060754	121,685	-0,095313
2,319911	-0,183387	121,785	-0,095418
2,315945	0,182262	121,886	-0,095260
2,311915	-0,244141	121,987	-0,095445
2,307944	0,304895	122,089	-0,095207
2,303903	0,060754	122,189	-0,095313
2,299875	0,243016	122,289	-0,095233
2,295920	-0,061879	122,417	-0,095366
2,291915	0,182262	122,517	-0,095260
2,287904	-0,061879	122,617	-0,095366
2,283911	0,547910	122,719	-0,095101
2,279916	0,670543	122,839	-0,095048
2,275921	0,243016	122,939	-0,095233