File: Nanoindentation Datenauswertung/data/Test Measurement/modulus mapping on saphir, 2x2
Quasi static measurement routine
Tip parameters (shape,radius, material...)
29.06.2022

Piezo position[nm]	MEMS displ.[nm]	Time[ms]	Cap [pf]
eoh

X-Pos [um]	Y-Pos [um]
0,000000	0,070276

POC
3,583947
3,383734	0,421697	0,030	-0,089306
3,388705	0,721325	0,059	-0,089174
3,393878	-7,517312	0,109	-0,092799
3,398879	-7,095614	0,159	-0,092613
3,403900	-7,095614	0,210	-0,092613
3,408905	-7,877974	0,261	-0,092958
3,413908	-7,216575	0,312	-0,092667
3,418927	-7,336426	0,362	-0,092719
3,423904	-7,697088	0,413	-0,092878
3,428919	-7,095614	0,464	-0,092613
3,433888	-6,855913	0,514	-0,092508
3,438879	-7,637163	0,564	-0,092852
3,443837	-7,577237	0,614	-0,092825
3,448872	-7,276500	0,665	-0,092693
3,453860	-7,276500	0,715	-0,092693
3,458868	-7,216575	0,765	-0,092667
3,463874	-7,095614	0,816	-0,092613
3,468921	-7,637163	0,866	-0,092852
3,473881	-6,975763	0,916	-0,092561
3,478876	-7,036799	0,966	-0,092587
3,483883	-7,397461	1,017	-0,092746
3,488900	-7,216575	1,067	-0,092667
3,493885	-7,457386	1,118	-0,092772
3,498832	-8,058860	1,168	-0,093037
3,503877	-7,457386	1,218	-0,092772
3,508896	-7,336426	1,269	-0,092719
3,513893	-7,216575	1,319	-0,092667
3,518877	-7,276500	1,369	-0,092693
3,523865	-7,336426	1,419	-0,092719
3,528869	-6,915838	1,469	-0,092534
3,533935	-7,216575	1,519	-0,092667
3,538934	-7,336426	1,570	-0,092719
3,543887	-7,637163	1,621	-0,092852
3,548916	-6,915838	1,671	-0,092534
3,553923	-8,178711	1,722	-0,093090
3,558915	-8,539373	1,773	-0,093249
3,563873	-8,359597	1,823	-0,093169
3,568891	-8,359597	1,877	-0,093169
3,573856	-7,637163	1,927	-0,092852
3,578944	-7,517312	1,977	-0,092799
3,583853	-3,969505	2,027	-0,091238
3,588877	0,721325	2,077	-0,089174
3,593877	5,051491	2,127	-0,087269
3,598875	10,283869	2,178	-0,084966
3,603821	15,335360	2,237	-0,082744
3,608885	15,275435	2,287	-0,082770
3,613870	25,137607	2,338	-0,078431
3,618888	30,369984	2,388	-0,076128
3,623854	36,022949	2,438	-0,073641
3,628898	39,932528	2,489	-0,071921
3,633820	45,284757	2,539	-0,069566
3,638878	47,388805	2,589	-0,068640
3,643863	54,726341	2,639	-0,065412
3,648861	54,606490	2,690	-0,065464
3,653883	64,408736	2,741	-0,061151
3,658829	70,302512	2,791	-0,058558
3,663915	75,053267	2,841	-0,056468
3,668887	81,728294	2,892	-0,053531
3,673851	85,096325	2,942	-0,052049
3,678846	89,787154	2,993	-0,049985
3,683922	95,259233	3,044	-0,047577
3,688892	94,117321	3,094	-0,048080
3,693890	104,160378	3,145	-0,043661
3,698848	109,211870	3,196	-0,041438
3,703881	114,323287	3,246	-0,039189
3,708918	118,113015	3,296	-0,037521
3,713875	123,825906	3,346	-0,035008
3,718889	128,817472	3,396	-0,032812
3,723837	133,026678	3,446	-0,030959
3,728841	137,296919	3,497	-0,029081
3,733836	143,671209	3,548	-0,026276
3,738871	148,842551	3,598	-0,024000
3,743890	153,774192	3,648	-0,021831
3,748806	159,247381	3,698	-0,019422
3,753834	164,358798	3,748	-0,017173
3,758891	169,049627	3,798	-0,015109
3,763906	174,222079	3,848	-0,012833
3,768852	174,222079	3,899	-0,012833
3,773882	184,205211	3,949	-0,008441
3,778846	188,294567	4,000	-0,006642
3,783884	193,105247	4,050	-0,004525
3,788852	198,277699	4,100	-0,002249
3,793802	203,449041	4,151	0,000026
3,798802	203,389116	4,346	0,000000
3,803850	207,958984	4,426	0,002011
3,808885	217,762340	4,477	0,006324
3,813858	222,573020	4,527	0,008441
3,818824	227,745472	4,577	0,010717
3,823879	232,856889	4,628	0,012966
3,828833	237,908381	4,679	0,015188
3,833846	242,720170	4,729	0,017306
3,838854	247,470925	4,779	0,019396
3,843922	252,762118	4,829	0,021724
3,848897	257,452947	4,880	0,023788
3,853870	263,407759	4,931	0,026408
3,858798	267,977628	4,981	0,028419
3,863839	272,427646	5,031	0,030377
3,868843	272,909268	5,106	0,030589
3,873846	283,012251	5,157	0,035034
3,878883	286,860795	5,207	0,036728
3,883864	292,033248	5,257	0,039003
3,888861	297,145774	5,307	0,041253
3,893860	301,595792	5,357	0,043211
3,898827	306,586248	5,407	0,045407
3,903841	311,939586	5,457	0,047762
3,908835	311,398038	5,533	0,047524
3,913870	321,922718	5,584	0,052155
3,918847	326,793324	5,634	0,054298
3,923853	331,844815	5,684	0,056521
3,928832	336,656605	5,734	0,058638
3,933894	342,008833	5,784	0,060993
3,938905	346,337891	5,835	0,062897
3,943851	351,811080	5,886	0,065306
3,948802	356,201172	5,936	0,067237
3,953830	361,011852	5,986	0,069354
3,958853	366,365190	6,036	0,071709
3,963844	366,785778	6,087	0,071895
3,968817	375,685813	6,137	0,075811
3,973820	381,038042	6,187	0,078166
3,978848	386,270419	6,237	0,080468
3,983857	390,720437	6,444	0,082426
3,988842	395,471191	6,494	0,084516
3,993855	400,402832	6,545	0,086686
3,998822	405,394398	6,595	0,088882
4,003844	410,566850	6,646	0,091158
4,008766	410,326039	6,730	0,091052
4,013837	419,888583	6,781	0,095260
4,018811	425,420588	6,831	0,097694
4,023820	430,352228	6,881	0,099864
4,028734	435,102983	6,931	0,101954
4,033820	440,154474	6,982	0,104177
4,038826	445,446777	7,032	0,106505
4,043844	450,378418	7,083	0,108675
4,048848	455,429909	7,134	0,110898
4,053823	459,760076	7,184	0,112803
4,058753	464,811568	7,234	0,115026
4,063875	469,683283	7,285	0,117169
4,068823	474,553888	7,335	0,119313
4,073825	479,485529	7,385	0,121482
4,078833	484,957608	7,436	0,123890
4,083817	489,769398	7,486	0,126007
4,088817	493,617942	7,536	0,127701
4,093776	498,549583	7,587	0,129871
4,098817	504,262473	7,637	0,132384
4,103763	508,772417	7,687	0,134369
4,108774	514,425382	7,738	0,136856
4,113790	518,515847	7,788	0,138656
4,118776	524,047852	7,839	0,141090
4,123844	528,798606	7,905	0,143180
4,128795	533,670321	7,955	0,145324
4,133820	538,962624	8,005	0,147652
4,138791	543,894265	8,055	0,149822
4,143776	548,645020	8,105	0,151913
4,148850	553,515625	8,155	0,154056
4,153822	558,568226	8,205	0,156279
4,158799	562,717507	8,255	0,158104
4,163826	567,468262	8,307	0,160195
4,168806	572,579679	8,357	0,162444
4,173797	578,172718	8,407	0,164905
4,178819	583,104359	8,457	0,167075
4,183782	587,915039	8,507	0,169191
4,188796	593,147417	8,557	0,171494
4,193747	597,838246	8,607	0,173558
4,198779	602,829812	8,657	0,175754
4,203836	607,460716	8,708	0,177792
4,208744	612,753018	8,758	0,180120
4,213828	617,383922	8,808	0,182158
4,218793	622,074751	8,859	0,184222
4,223761	627,246094	8,909	0,186497
4,228781	632,297585	8,959	0,188720
4,233788	637,169300	9,009	0,190863
4,238787	641,920055	9,060	0,192954
4,243784	645,228161	9,197	0,194409
4,248788	652,143999	9,247	0,197452
4,253803	657,134455	9,297	0,199648
4,258731	661,946245	9,347	0,201765
4,263788	666,696999	9,397	0,203855
4,268743	671,868342	9,448	0,206131
4,273755	676,740057	9,498	0,208274
4,278722	682,032360	9,548	0,210603
4,283763	686,603338	9,598	0,212614
4,288736	691,233132	9,648	0,214651
4,293768	696,164773	9,699	0,216821
4,298748	701,096413	9,749	0,218991
4,303758	706,749379	9,800	0,221479
4,308800	706,328791	9,850	0,221293
4,313767	710,597923	9,919	0,223172
4,318715	721,122603	9,969	0,227803
4,323821	726,114169	10,019	0,229999
4,328749	730,564187	10,069	0,231957
4,333742	736,036266	10,119	0,234365
4,338782	740,607244	10,169	0,236376
4,343724	745,719771	10,219	0,238625
4,348772	750,831188	10,269	0,240875
4,353800	755,882679	10,319	0,243097
4,358769	760,874245	10,369	0,245293
4,363782	765,565075	10,419	0,247357
4,368780	770,375755	10,469	0,249474
4,373763	775,968794	10,519	0,251935
4,378803	780,960360	10,571	0,254131
4,383776	784,989790	10,621	0,255904
4,383757	785,471413	10,671	0,256116
4,383702	789,680620	10,721	0,257968
4,383717	790,282093	10,771	0,258233
4,383782	790,342019	10,821	0,258259
4,383758	790,401944	10,871	0,258286
4,383712	790,461870	10,921	0,258312
4,383751	790,101207	10,971	0,258153
4,383746	789,981357	11,021	0,258101
4,383730	789,560769	11,071	0,257916
4,383762	789,921431	11,121	0,258074
4,383748	790,041282	11,171	0,258127
4,383751	789,680620	11,221	0,257968
4,383760	789,740545	11,271	0,257995
4,383730	789,921431	11,322	0,258074
4,383761	789,560769	11,372	0,257916
4,383740	789,499734	11,422	0,257889
4,383775	790,162243	11,472	0,258180
4,383797	789,860396	11,522	0,258047
4,383753	789,740545	11,573	0,257995
4,383743	789,740545	11,623	0,257995
4,383753	789,680620	11,673	0,257968
4,383707	789,740545	11,723	0,257995
4,383736	790,101207	11,774	0,258153
4,383767	789,379883	11,824	0,257836
4,383729	790,041282	11,874	0,258127
4,383761	789,740545	11,924	0,257995
4,383738	790,162243	11,974	0,258180
4,383762	790,101207	12,024	0,258153
4,383724	789,800471	12,074	0,258021
4,383772	789,560769	12,124	0,257916
4,383716	790,162243	12,175	0,258180
4,383776	789,740545	12,226	0,257995
4,383752	789,319957	12,276	0,257810
4,383751	789,800471	12,326	0,258021
4,383747	789,981357	12,376	0,258101
4,383773	789,560769	12,426	0,257916
4,383737	789,680620	12,476	0,257968
4,383741	789,560769	12,527	0,257916
4,383755	789,860396	12,577	0,258047
4,383715	789,860396	12,628	0,258047
4,383771	789,981357	12,678	0,258101
4,383675	789,680620	12,728	0,257968
4,383718	789,560769	12,778	0,257916
4,383773	789,981357	12,829	0,258101
4,383713	789,139071	12,880	0,257730
4,383723	789,560769	12,930	0,257916
4,383718	789,740545	12,980	0,257995
4,383699	789,439808	13,030	0,257862
4,383746	789,740545	13,082	0,257995
4,383734	790,041282	13,133	0,258127
4,383750	789,981357	13,183	0,258101
4,383729	789,319957	13,233	0,257810
4,383742	789,921431	13,283	0,258074
4,383739	789,921431	13,334	0,258074
4,383717	789,620694	13,384	0,257942
4,383727	789,800471	13,435	0,258021
4,383749	789,620694	13,486	0,257942
4,383756	789,260032	13,536	0,257783
4,383747	789,319957	13,586	0,257810
4,383741	790,342019	13,636	0,258259
4,383770	789,379883	13,686	0,257836
4,383731	789,620694	13,736	0,257942
4,383753	789,680620	13,786	0,257968
4,383689	789,260032	13,836	0,257783
4,383745	789,319957	13,887	0,257810
4,383796	789,198997	13,937	0,257756
4,383737	789,921431	13,987	0,258074
4,383712	789,319957	14,038	0,257810
4,383727	789,620694	14,088	0,257942
4,383777	789,620694	14,138	0,257942
4,383729	789,680620	14,189	0,257968
4,383753	789,439808	14,240	0,257862
4,383721	788,658558	14,291	0,257519
4,383767	789,260032	14,341	0,257783
4,383721	789,379883	14,391	0,257836
4,383744	789,439808	14,442	0,257862
4,383734	789,139071	14,492	0,257730
4,383683	789,680620	14,542	0,257968
4,383752	789,079146	14,592	0,257704
4,383721	789,680620	14,643	0,257968
4,383725	789,800471	14,693	0,258021
4,383716	789,035866	14,743	0,257685
4,383756	789,198997	14,793	0,257756
4,383736	789,560769	14,844	0,257916
4,383760	789,981357	14,894	0,258101
4,383746	789,379883	14,945	0,257836
4,383736	789,620694	14,996	0,257942
4,383755	789,560769	15,047	0,257916
4,383735	789,560769	15,098	0,257916
4,383723	789,620694	15,148	0,257942
4,383760	789,620694	15,198	0,257942
4,383717	789,860396	15,248	0,258047
4,383740	789,800471	15,298	0,258021
4,383705	789,319957	15,348	0,257810
4,383776	789,439808	15,398	0,257862
4,383723	789,560769	15,449	0,257916
4,383723	788,658558	15,500	0,257519
4,383786	789,860396	15,551	0,258047
4,383745	789,800471	15,601	0,258021
4,383739	789,499734	15,651	0,257889
4,378781	789,260032	15,701	0,257783
4,373757	784,448242	15,751	0,255666
4,368753	783,906694	15,801	0,255428
4,363738	774,645996	15,851	0,251353
4,358724	769,955167	15,901	0,249289
4,353788	764,422053	15,951	0,246854
4,348698	758,528276	16,001	0,244261
4,343746	754,018333	16,052	0,242277
4,338827	749,387429	16,102	0,240239
4,333716	743,855424	16,153	0,237805
4,328750	738,983709	16,203	0,235662
4,323772	733,209783	16,253	0,233121
4,318754	729,060502	16,304	0,231295
4,313765	723,949086	16,355	0,229046
4,308698	718,656783	16,405	0,226718
4,303695	713,846103	16,457	0,224601
4,298753	708,793501	16,508	0,222378
4,293838	703,682085	16,559	0,220129
4,288735	698,570668	16,609	0,217880
4,283754	698,510742	16,659	0,217854
4,278742	688,948198	16,709	0,213646
4,273761	683,715820	16,759	0,211344
4,268772	680,048162	16,810	0,209730
4,263774	674,093350	16,860	0,207110
4,258814	668,320534	16,910	0,204570
4,253763	663,388894	16,960	0,202400
4,248724	659,119762	17,010	0,200521
4,243791	653,887385	17,060	0,198219
4,238822	648,535156	17,111	0,195864
4,233795	643,724476	17,162	0,193748
4,228798	638,311213	17,212	0,191366
4,223766	633,981046	17,262	0,189460
4,218727	628,508967	17,312	0,187053
4,213696	623,758212	17,362	0,184962
4,208743	618,285023	17,412	0,182554
4,203767	613,113681	17,463	0,180279
4,198764	608,602628	17,513	0,178294
4,193755	603,130549	17,563	0,175886
4,188749	597,838246	17,613	0,173558
4,183750	593,147417	17,663	0,171494
4,178747	588,036000	17,714	0,169245
4,173771	582,622736	17,765	0,166863
4,168767	577,692205	17,815	0,164693
4,163776	572,159091	17,866	0,162259
4,158810	568,009810	17,916	0,160433
4,153752	563,318981	17,967	0,158369
4,148777	558,688077	18,018	0,156332
4,143730	552,674450	18,068	0,153686
4,138794	548,043546	18,118	0,151648
4,133778	542,871094	18,169	0,149372
4,128805	537,518865	18,219	0,147017
4,123770	532,347523	18,269	0,144742
4,118775	528,378018	18,319	0,142995
4,113739	521,762917	18,369	0,140084
4,108742	517,673562	18,419	0,138285
4,103780	512,502219	18,469	0,136010
4,098775	507,329767	18,519	0,133734
4,093785	502,278276	18,569	0,131511
4,088798	497,286710	18,619	0,129315
4,083736	497,406561	18,669	0,129368
4,078816	487,484464	18,720	0,125002
4,073737	482,672674	18,771	0,122885
4,068782	477,320446	18,821	0,120530
4,063773	472,328880	18,871	0,118333
4,058772	467,457164	18,921	0,116190
4,053821	463,307884	18,972	0,114364
4,048820	456,873668	19,022	0,111533
4,043751	456,091309	19,072	0,111189
4,038742	447,371049	19,122	0,107352
4,033804	442,560369	19,172	0,105235
4,028756	437,989391	19,223	0,103224
4,023797	432,457386	19,273	0,100790
4,018800	428,006259	19,323	0,098832
4,013815	423,376465	19,373	0,096794
4,008813	417,903276	19,423	0,094386
4,003772	413,272372	19,474	0,092349
3,998808	408,341841	19,525	0,090179
3,993814	402,928578	19,575	0,087797
3,988794	397,877086	19,625	0,085575
3,983804	393,968617	19,676	0,083855
3,978726	388,435502	19,727	0,081420
3,973840	383,083274	19,778	0,079065
3,968835	378,091708	19,828	0,076869
3,963798	373,040217	19,879	0,074646
3,958797	367,988725	19,929	0,072424
3,953766	363,176935	19,980	0,070307
3,948825	358,005593	20,030	0,068031
3,943774	353,133878	20,080	0,065888
3,938750	348,263272	20,130	0,063745
3,933849	343,511408	20,180	0,061654
3,928768	340,023526	20,230	0,060119
3,923792	333,528276	20,281	0,057261
3,918781	331,605114	20,331	0,056415
3,913811	323,666104	20,382	0,052922
3,908795	318,674538	20,432	0,050726
3,903807	313,503196	20,482	0,048450
3,898814	308,270819	20,532	0,046148
3,893796	304,301314	20,582	0,044401
3,888844	299,068936	20,632	0,042099
3,883804	294,138406	20,685	0,039930
3,878762	288,906028	20,735	0,037627
3,873818	284,515936	20,785	0,035696
3,868831	279,584295	20,836	0,033526
3,863788	274,532804	20,886	0,031303
3,858777	270,383523	20,937	0,029478
3,853817	265,812544	20,987	0,027466
3,848826	260,761053	21,038	0,025244
3,843824	255,769487	21,088	0,023047
3,838846	250,116522	21,138	0,020560
3,833760	245,425692	21,189	0,018496
3,828822	240,674938	21,240	0,016406
3,823771	235,322710	21,290	0,014051
3,818802	230,331143	21,340	0,011854
3,813773	225,820091	21,390	0,009870
3,808863	220,708674	21,440	0,007621
3,803798	216,740279	21,490	0,005875
3,798837	212,169300	21,540	0,003863
3,793838	206,516335	21,590	0,001376
3,788848	201,524769	21,640	-0,000820
3,783819	197,074751	21,690	-0,002778
3,778791	191,962225	21,741	-0,005028
3,773851	187,392356	21,791	-0,007039
3,768821	183,182040	21,841	-0,008891
3,763861	178,431286	21,891	-0,010981
3,758782	173,138983	21,941	-0,013310
3,753867	168,147417	21,992	-0,015506
3,748850	162,976074	22,042	-0,017782
3,743849	157,743697	22,092	-0,020084
3,738803	153,473455	22,142	-0,021963
3,733798	148,242187	22,192	-0,024265
3,728787	142,889959	22,242	-0,026620
3,723827	137,958319	22,292	-0,028790
3,718830	133,267489	22,342	-0,030854
3,713845	128,395774	22,392	-0,032997
3,708804	123,885831	22,442	-0,034981
3,703796	118,773304	22,492	-0,037231
3,698827	113,120339	22,542	-0,039718
3,693821	110,594593	22,592	-0,040830
3,688802	104,401190	22,642	-0,043555
3,683806	99,890137	22,692	-0,045540
3,678821	94,297097	22,743	-0,048000
3,673798	89,245605	22,793	-0,050223
3,668803	84,434925	22,843	-0,052340
3,663857	81,006969	22,893	-0,053848
3,658808	74,932306	22,943	-0,056521
3,653826	69,701039	22,993	-0,058823
3,648832	66,513894	23,043	-0,060225
3,643832	59,777832	23,094	-0,063189
3,638782	54,545455	23,144	-0,065491
3,633765	49,854625	23,195	-0,067555
3,628826	45,645419	23,246	-0,069407
3,623806	40,413042	23,296	-0,071709
3,618812	35,662287	23,346	-0,073800
3,613856	30,911532	23,396	-0,075890
3,608815	25,979892	23,446	-0,078060
3,603828	20,446777	23,497	-0,080495
3,598785	15,395286	23,547	-0,082717
3,593839	11,065119	23,597	-0,084623
3,588827	6,555176	23,647	-0,086607
3,583771	1,503684	23,697	-0,088830
3,578866	-3,788619	23,749	-0,091158
3,573826	-9,080922	23,799	-0,093487
3,568824	-13,411088	23,849	-0,095392
3,563803	-8,599299	23,899	-0,093275
3,558838	-7,818049	23,949	-0,092931
3,553867	-8,299672	24,000	-0,093143
3,548880	-8,238636	24,051	-0,093116
3,543833	-8,599299	24,101	-0,093275
3,538881	-8,299672	24,152	-0,093143
3,533806	-8,479448	24,202	-0,093222
3,528831	-7,877974	24,252	-0,092958
3,523800	-7,877974	24,303	-0,092958
3,518817	-8,359597	24,353	-0,093169
3,513811	-8,359597	24,404	-0,093169
3,508864	-8,359597	24,454	-0,093169
3,503810	-8,238636	24,505	-0,093116
3,498864	-7,937900	24,555	-0,092984
3,493797	-7,877974	24,606	-0,092958
3,488832	-8,299672	24,657	-0,093143
3,483825	-7,095614	24,707	-0,092613
3,478857	-8,238636	24,757	-0,093116
3,473849	-8,359597	24,808	-0,093169
3,468851	-7,998935	24,859	-0,093011
3,463806	-7,637163	24,909	-0,092852
3,458881	-7,577237	24,959	-0,092825
3,453882	-7,937900	25,009	-0,092984
3,448837	-8,058860	25,059	-0,093037
3,443851	-7,517312	25,110	-0,092799
3,438847	-7,818049	25,160	-0,092931
3,433875	-7,877974	25,210	-0,092958
3,428834	-7,758123	25,261	-0,092905
3,423828	-7,517312	25,312	-0,092799
3,418949	-7,216575	25,362	-0,092667
3,413825	-7,156650	25,412	-0,092640
3,408903	-7,697088	25,462	-0,092878
3,403826	-7,156650	25,513	-0,092640
3,398862	-7,577237	25,563	-0,092825
3,393795	-7,457386	25,613	-0,092772
3,388882	-7,577237	25,663	-0,092825
3,383886	-7,517312	25,713	-0,092799

X-Pos [um]	Y-Pos [um]
0,000000	5,005777

POC
3,579487
3,379136	0,301847	0,020	-0,090391
3,384411	2,226119	0,057	-0,089544
3,389369	-5,171342	0,107	-0,092799
3,394434	-4,569869	0,157	-0,092534
3,399441	-4,870605	0,207	-0,092667
3,404432	-4,509943	0,258	-0,092508
3,409435	-4,930531	0,308	-0,092693
3,414455	-4,930531	0,358	-0,092693
3,419374	-4,690829	0,408	-0,092587
3,424420	-4,810680	0,458	-0,092640
3,429479	-4,569869	0,508	-0,092534
3,434451	-5,171342	0,558	-0,092799
3,439382	-4,870605	0,610	-0,092667
3,444443	-4,749645	0,660	-0,092613
3,449434	-5,111417	0,711	-0,092772
3,454440	-5,111417	0,763	-0,092772
3,459410	-5,652965	0,813	-0,093011
3,464431	-5,412154	0,864	-0,092905
3,469449	-5,111417	0,915	-0,092772
3,474349	-4,749645	0,966	-0,092613
3,479435	-5,171342	1,016	-0,092799
3,484405	-4,569869	1,066	-0,092534
3,489495	-5,111417	1,116	-0,092772
3,494415	-5,111417	1,166	-0,092772
3,499441	-5,412154	1,217	-0,092905
3,504381	-4,930531	1,268	-0,092693
3,509401	-4,990456	1,318	-0,092719
3,514429	-5,591930	1,368	-0,092984
3,519412	-4,749645	1,418	-0,092613
3,524390	-5,351119	1,470	-0,092878
3,529410	-5,532005	1,520	-0,092958
3,534445	-5,171342	1,570	-0,092799
3,539412	-5,051491	1,620	-0,092746
3,544431	-4,990456	1,670	-0,092719
3,549380	-4,870605	1,720	-0,092667
3,554423	-5,051491	1,771	-0,092746
3,559429	-6,073553	1,821	-0,093196
3,564397	-5,953702	1,872	-0,093143
3,569385	-6,434215	1,922	-0,093354
3,574402	-6,253329	1,972	-0,093275
3,579429	-2,344860	2,022	-0,091555
3,584420	1,563610	2,073	-0,089835
3,589397	6,556286	2,124	-0,087639
3,594403	10,104093	2,175	-0,086078
3,599420	16,418457	2,225	-0,083299
3,604449	21,770685	2,275	-0,080944
3,609435	27,062988	2,325	-0,078616
3,614400	31,333230	2,375	-0,076737
3,619438	36,384721	2,425	-0,074514
3,624387	40,834739	2,476	-0,072556
3,629416	45,826305	2,526	-0,070360
3,634489	51,899858	2,577	-0,067687
3,639440	56,350985	2,627	-0,065729
3,644441	61,281516	2,677	-0,063560
3,649418	65,852495	2,727	-0,061548
3,654461	71,325684	2,778	-0,059140
3,659461	76,256214	2,829	-0,056971
3,664404	80,767267	2,879	-0,054986
3,669297	85,697798	2,929	-0,052816
3,674379	91,350763	2,979	-0,050329
3,679470	95,801891	3,029	-0,048371
3,684425	101,214045	3,080	-0,045989
3,689341	105,544212	3,130	-0,044084
3,694420	110,896440	3,180	-0,041729
3,699384	115,707120	3,231	-0,039612
3,704401	120,458984	3,281	-0,037521
3,709393	125,149814	3,331	-0,035458
3,714436	130,681818	3,381	-0,033023
3,719477	135,011985	3,431	-0,031118
3,724389	140,304288	3,481	-0,028790
3,729410	144,634455	3,531	-0,026884
3,734434	150,287420	3,581	-0,024397
3,739457	155,098100	3,631	-0,022280
3,744428	159,848855	3,681	-0,020190
3,749411	160,691140	3,731	-0,019819
3,754466	170,915083	3,781	-0,015321
3,759385	174,883478	3,831	-0,013575
3,764476	180,717330	3,881	-0,011008
3,769474	185,408159	3,932	-0,008944
3,774423	190,579501	3,982	-0,006668
3,779397	194,970703	4,032	-0,004736
3,784429	200,142045	4,082	-0,002461
3,789437	199,961159	4,132	-0,002541
3,794462	210,125178	4,182	0,001932
3,799428	214,455344	4,232	0,003837
3,804346	219,746538	4,282	0,006165
3,809352	224,317516	4,332	0,008176
3,814412	229,128196	4,382	0,010293
3,819417	234,059837	4,433	0,012463
3,824391	239,232289	4,484	0,014739
3,829421	244,464666	4,536	0,017041
3,834450	249,215421	4,587	0,019131
3,839364	255,169123	4,638	0,021751
3,844425	259,919877	4,688	0,023841
3,849409	264,369895	4,738	0,025799
3,854395	269,421387	4,788	0,028022
3,859388	274,233176	4,838	0,030139
3,864425	279,705256	4,888	0,032547
3,869425	284,576971	4,938	0,034690
3,874428	289,086914	4,988	0,036675
3,879414	293,958629	5,039	0,038818
3,884385	299,010121	5,089	0,041041
3,889414	298,709384	5,139	0,040909
3,894381	309,173029	5,189	0,045513
3,899415	312,961648	5,239	0,047180
3,904349	318,855424	5,290	0,049773
3,909348	323,486328	5,341	0,051811
3,914405	328,237083	5,392	0,053901
3,919350	334,190785	5,443	0,056521
3,924368	338,160289	5,493	0,058267
3,929376	343,332741	5,543	0,060543
3,934342	348,203347	5,594	0,062686
3,939388	353,495650	5,644	0,065015
3,944419	358,547141	5,695	0,067237
3,949394	361,373624	5,745	0,068481
3,954416	367,928800	5,795	0,071365
3,959367	372,619629	5,845	0,073429
3,964409	377,370384	5,895	0,075520
3,969351	382,843572	5,945	0,077928
3,974400	387,775213	5,996	0,080098
3,979250	393,066406	6,047	0,082426
3,984377	397,155762	6,097	0,084225
3,989410	402,569025	6,147	0,086607
3,994352	407,680442	6,197	0,088856
3,999387	412,371271	6,247	0,090920
4,004343	417,302912	6,297	0,093090
4,009363	422,294478	6,347	0,095286
4,014297	427,286044	6,398	0,097482
4,019393	431,736062	6,448	0,099440
4,024325	437,148216	6,499	0,101822
4,029380	437,749689	6,549	0,102086
4,034350	447,011497	6,599	0,106162
4,039366	452,242765	6,650	0,108463
4,044410	456,753817	6,701	0,110448
4,049409	462,406783	6,751	0,112936
4,054306	466,916726	6,801	0,114920
4,059321	471,127042	6,851	0,116772
4,064405	476,298384	6,901	0,119048
4,069377	482,192161	6,951	0,121641
4,074305	486,341442	7,002	0,123467
4,079377	491,694780	7,052	0,125822
4,084379	497,226784	7,102	0,128256
4,089377	501,497026	7,152	0,130135
4,094349	505,827193	7,202	0,132041
4,099346	511,118386	7,253	0,134369
4,104377	516,290838	7,303	0,136645
4,109351	520,740856	7,353	0,138603
4,114358	525,852273	7,403	0,140852
4,119299	530,664062	7,453	0,142969
4,124392	536,076216	7,505	0,145350
4,129331	540,707120	7,555	0,147388
4,134367	545,758612	7,606	0,149610
4,139358	550,630327	7,657	0,151754
4,144325	554,779608	7,707	0,153580
4,149376	560,011985	7,757	0,155882
4,154378	565,424139	7,808	0,158263
4,159347	570,174893	7,858	0,160354
4,164278	574,685946	7,909	0,162338
4,169353	580,398837	7,959	0,164852
4,174424	584,608043	8,009	0,166704
4,179363	589,419833	8,059	0,168821
4,184367	594,651101	8,109	0,171123
4,189370	600,003329	8,159	0,173478
4,194350	604,755194	8,210	0,175569
4,199333	608,904474	8,260	0,177395
4,204417	614,376554	8,310	0,179802
4,209360	619,489080	8,360	0,182052
4,214384	624,600497	8,410	0,184301
4,219294	629,532138	8,460	0,186471
4,224340	634,403853	8,510	0,188614
4,229352	639,274458	8,561	0,190757
4,234342	644,085138	8,611	0,192874
4,239324	648,896928	8,661	0,194991
4,244294	654,128196	8,711	0,197293
4,249337	659,059837	8,761	0,199463
4,254335	664,232289	8,811	0,201739
4,259338	668,983043	8,861	0,203829
4,264348	673,492987	8,911	0,205813
4,269350	678,364702	8,961	0,207957
4,274372	683,296342	9,011	0,210127
4,279367	688,888272	9,061	0,212587
4,284330	693,459251	9,111	0,214599
4,289357	698,510742	9,161	0,216821
4,294337	703,322532	9,212	0,218938
4,299305	707,952326	9,263	0,220976
4,304328	713,425515	9,314	0,223384
4,309323	718,536932	9,364	0,225633
4,314309	722,687322	9,416	0,227459
4,319343	728,460138	9,466	0,229999
4,324332	732,790305	9,516	0,231904
4,329331	737,901722	9,566	0,234153
4,334297	742,953214	9,616	0,236376
4,339340	747,884854	9,667	0,238546
4,344335	752,455833	9,717	0,240557
4,349300	758,047763	9,767	0,243018
4,354299	763,039329	9,817	0,245214
4,359218	767,730158	9,868	0,247278
4,364297	772,480913	9,918	0,249368
4,369315	777,834251	9,968	0,251724
4,374375	782,764782	10,018	0,253893
4,379271	788,057085	10,068	0,256222
4,379294	792,387251	10,119	0,258127
4,379258	792,687988	10,169	0,258259
4,379257	792,146440	10,219	0,258021
4,379357	791,785778	10,269	0,257862
4,379298	792,568137	10,320	0,258207
4,379250	792,508212	10,370	0,258180
4,379277	792,447177	10,421	0,258153
4,379313	792,206365	10,471	0,258047
4,379245	792,687988	10,521	0,258259
4,379248	791,966664	10,572	0,257942
4,379285	792,086515	10,622	0,257995
4,379269	792,086515	10,672	0,257995
4,379315	792,146440	10,722	0,258021
4,379261	791,845703	10,772	0,257889
4,379204	792,327326	10,822	0,258101
4,379287	792,447177	10,872	0,258153
4,379318	792,026589	11,009	0,257968
4,379244	791,906738	11,059	0,257916
4,379268	792,086515	11,110	0,257995
4,379272	792,086515	11,161	0,257995
4,379231	792,568137	11,211	0,258207
4,379250	791,906738	11,261	0,257916
4,379276	791,845703	11,311	0,257889
4,379255	792,086515	11,362	0,257995
4,379233	791,906738	11,412	0,257916
4,379270	791,785778	11,463	0,257862
4,379256	792,447177	11,514	0,258153
4,379295	792,267401	11,565	0,258074
4,379285	792,026589	11,615	0,257968
4,379259	792,687988	11,665	0,258259
4,379326	792,267401	11,716	0,258074
4,379304	791,544966	11,767	0,257756
4,379342	792,206365	11,818	0,258047
4,379317	792,026589	11,869	0,257968
4,379305	791,785778	11,920	0,257862
4,379236	791,606001	11,970	0,257783
4,379295	791,665927	12,020	0,257810
4,379283	792,206365	12,070	0,258047
4,379268	791,425115	12,120	0,257704
4,379326	792,086515	12,170	0,257995
4,379267	792,146440	12,220	0,258021
4,379280	792,206365	12,270	0,258047
4,379272	792,026589	12,320	0,257968
4,379312	792,086515	12,370	0,257995
4,379305	792,026589	12,421	0,257968
4,379300	792,508212	12,471	0,258180
4,379260	791,544966	12,522	0,257756
4,379262	791,725852	12,574	0,257836
4,379264	791,966664	12,625	0,257942
4,379243	792,146440	12,676	0,258021
4,379311	792,086515	12,726	0,257995
4,379254	792,086515	12,777	0,257995
4,379291	791,906738	12,828	0,257916
4,379302	791,906738	12,878	0,257916
4,379294	791,906738	12,928	0,257916
4,379265	791,906738	12,978	0,257916
4,379256	791,606001	13,028	0,257783
4,379307	791,966664	13,078	0,257942
4,379273	791,966664	13,128	0,257942
4,379319	792,026589	13,178	0,257968
4,379283	791,725852	13,228	0,257836
4,379282	792,026589	13,280	0,257968
4,379305	791,845703	13,330	0,257889
4,379264	791,906738	13,381	0,257916
4,379273	792,387251	13,431	0,258127
4,379311	792,146440	13,481	0,258021
4,379270	791,966664	13,532	0,257942
4,379322	792,327326	13,583	0,258101
4,379289	792,146440	13,633	0,258021
4,379295	791,725852	13,684	0,257836
4,379349	791,906738	13,735	0,257916
4,379286	792,086515	13,785	0,257995
4,379253	792,086515	13,835	0,257995
4,379322	791,544966	13,885	0,257756
4,379246	791,725852	13,936	0,257836
4,379253	792,146440	13,986	0,258021
4,379272	791,606001	14,037	0,257783
4,379277	791,785778	14,087	0,257862
4,379240	792,026589	14,137	0,257968
4,379257	791,485041	14,187	0,257730
4,379270	792,146440	14,237	0,258021
4,379319	792,086515	14,288	0,257995
4,379300	792,146440	14,338	0,258021
4,379322	791,544966	14,388	0,257756
4,379285	791,906738	14,438	0,257916
4,379304	792,146440	14,488	0,258021
4,379295	792,026589	14,539	0,257968
4,379256	791,184304	14,589	0,257598
4,379294	791,725852	14,639	0,257836
4,379332	791,725852	14,690	0,257836
4,379301	791,544966	14,740	0,257756
4,379343	791,845703	14,791	0,257889
4,379296	792,026589	14,841	0,257968
4,379306	791,966664	14,891	0,257942
4,379299	791,665927	14,941	0,257810
4,379256	791,665927	14,991	0,257810
4,379302	791,906738	15,041	0,257916
4,379294	791,906738	15,091	0,257916
4,379255	791,845703	15,142	0,257889
4,379311	791,906738	15,192	0,257916
4,374253	791,785778	15,242	0,257862
4,369259	787,035023	15,293	0,255772
4,364285	781,622869	15,344	0,253391
4,359320	776,751154	15,395	0,251247
4,354294	771,579812	15,446	0,248972
4,349292	766,046697	15,496	0,246537
4,344287	761,355868	15,546	0,244473
4,339289	757,326438	15,596	0,242700
4,334356	751,493697	15,646	0,240134
4,329280	746,441096	15,696	0,237911
4,324330	741,690341	15,747	0,235820
4,319299	736,218262	15,797	0,233413
4,314305	731,225586	15,847	0,231216
4,309347	726,535866	15,898	0,229152
4,304305	721,483265	15,948	0,226929
4,299341	715,951261	15,999	0,224495
4,294294	711,440208	16,049	0,222510
4,289261	706,629528	16,099	0,220394
4,284339	701,096413	16,149	0,217959
4,279312	695,804110	16,199	0,215630
4,274294	690,993430	16,249	0,213514
4,269315	685,882013	16,299	0,211265
4,264286	680,408825	16,349	0,208856
4,259276	675,779031	16,400	0,206819
4,254304	670,065030	16,451	0,204305
4,249302	666,156561	16,502	0,202585
4,244257	661,465732	16,552	0,200521
4,239276	656,173429	16,602	0,198193
4,234337	650,881126	16,653	0,195864
4,229336	646,371183	16,704	0,193880
4,224266	640,957919	16,754	0,191498
4,219276	635,846502	16,805	0,189249
4,214300	631,456410	16,855	0,187317
4,209344	625,983221	16,905	0,184909
4,204319	620,871804	16,955	0,182660
4,199252	615,218839	17,006	0,180173
4,194327	610,287198	17,056	0,178003
4,189381	605,656294	17,106	0,175965
4,184343	600,725763	17,156	0,173796
4,179375	595,854048	17,207	0,171652
4,174316	590,501820	17,258	0,169297
4,169359	585,510254	17,308	0,167101
4,164305	580,518688	17,358	0,164905
4,159296	575,287420	17,408	0,162603
4,154338	570,535556	17,458	0,160512
4,149285	565,664950	17,508	0,158369
4,144311	560,372647	17,558	0,156041
4,139314	555,500932	17,608	0,153897
4,134350	550,449441	17,658	0,151674
4,129332	545,638761	17,708	0,149558
4,124368	545,517800	17,759	0,149504
4,119287	535,896440	17,809	0,145271
4,114324	530,423251	17,860	0,142863
4,109276	525,251909	17,910	0,140587
4,104329	520,440119	17,960	0,138470
4,099308	515,027965	18,010	0,136089
4,094350	510,216175	18,060	0,133972
4,089342	505,405495	18,110	0,131855
4,084306	499,812456	18,160	0,129394
4,079343	495,181552	18,211	0,127356
4,074361	490,070135	18,261	0,125107
4,069330	485,018643	18,311	0,122885
4,064323	479,967152	18,361	0,120662
4,059339	475,276323	18,412	0,118598
4,054312	469,623358	18,463	0,116111
4,049349	464,511941	18,514	0,113862
4,044320	459,881037	18,565	0,111824
4,039343	454,648659	18,615	0,109522
4,034342	450,499379	18,665	0,107696
4,029373	444,846413	18,716	0,105209
4,024339	439,673961	18,766	0,102933
4,019289	435,945268	18,816	0,101292
4,014318	430,953702	18,867	0,099096
4,009334	425,180886	18,917	0,096556
4,004275	420,790794	18,968	0,094625
3,999333	414,777166	19,018	0,091979
3,994300	410,446999	19,068	0,090073
3,989384	405,696245	19,118	0,087983
3,984339	400,945490	19,168	0,085893
3,979370	395,592152	19,219	0,083537
3,974323	390,540661	19,269	0,081314
3,969322	385,789906	19,320	0,079224
3,964313	379,535467	19,370	0,076472
3,959360	375,866699	19,421	0,074858
3,954363	370,153809	19,471	0,072344
3,949365	365,343129	19,521	0,070228
3,944346	360,110751	19,571	0,067925
3,939260	355,961470	19,622	0,066100
3,934293	351,029830	19,672	0,063930
3,929321	345,737527	19,723	0,061601
3,924348	340,866921	19,774	0,059458
3,919359	336,295943	19,824	0,057447
3,914366	331,304377	19,874	0,055250
3,909286	325,832298	19,925	0,052843
3,904320	321,681907	19,976	0,051017
3,899350	316,329679	20,027	0,048662
3,894338	311,459073	20,077	0,046519
3,889418	306,346547	20,127	0,044269
3,884306	301,896529	20,178	0,042311
3,879346	297,205700	20,228	0,040247
3,874360	291,853471	20,279	0,037892
3,869362	286,380282	20,329	0,035484
3,864328	282,351962	20,379	0,033711
3,859352	276,938699	20,429	0,031330
3,854376	277,299361	20,479	0,031488
3,849361	268,038663	20,529	0,027414
3,844356	268,219549	20,579	0,027493
3,839358	258,175382	20,630	0,023074
3,834329	252,643377	20,681	0,020640
3,829371	247,952548	20,731	0,018576
3,824384	243,201793	20,781	0,016485
3,819337	238,089267	20,831	0,014236
3,814315	233,157626	20,881	0,012066
3,809365	228,587757	20,931	0,010055
3,804290	223,536266	20,982	0,007833
3,799367	218,604625	21,032	0,005663
3,794376	214,515270	21,082	0,003863
3,789390	208,982156	21,133	0,001429
3,784354	203,930664	21,184	-0,000794
3,779320	199,781383	21,234	-0,002620
3,774332	194,429155	21,284	-0,004975
3,769356	189,858176	21,335	-0,006986
3,764313	185,647860	21,385	-0,008838
3,759388	180,476518	21,435	-0,011114
3,754394	174,823553	21,485	-0,013601
3,749295	170,975009	21,536	-0,015294
3,744357	166,224254	21,587	-0,017385
3,739408	160,149592	21,637	-0,020058
3,734325	155,338912	21,687	-0,022174
3,729379	150,648082	21,738	-0,024238
3,724358	144,393643	21,789	-0,026990
3,719375	141,146573	21,839	-0,028419
3,714324	136,214933	21,889	-0,030589
3,709312	130,802779	21,939	-0,032970
3,704371	126,953125	21,989	-0,034664
3,699364	120,698686	22,039	-0,037416
3,694409	116,429554	22,089	-0,039294
3,689408	114,744984	22,139	-0,040036
3,684373	106,986861	22,190	-0,043449
3,679371	101,815518	22,240	-0,045725
3,674357	96,523216	22,290	-0,048053
3,669363	91,531650	22,340	-0,050250
3,664382	87,141557	22,390	-0,052181
3,659357	82,030140	22,440	-0,054430
3,654377	76,437100	22,490	-0,056891
3,649374	72,286710	22,540	-0,058717
3,644385	67,656916	22,590	-0,060754
3,639358	62,785201	22,640	-0,062898
3,634386	56,891424	22,690	-0,065491
3,629405	52,501332	22,741	-0,067423
3,624398	47,750577	22,791	-0,069513
3,619354	42,037686	22,841	-0,072027
3,614372	38,489879	22,892	-0,073588
3,609369	33,016690	22,943	-0,075996
3,604345	27,965199	22,993	-0,078219
3,599403	23,274370	23,044	-0,080283
3,594399	20,147150	23,094	-0,081659
3,589397	13,111461	23,144	-0,084754
3,584419	8,359597	23,194	-0,086845
3,579350	3,308105	23,245	-0,089068
3,574393	-1,562500	23,295	-0,091211
3,569423	-1,201838	23,345	-0,091052
3,564380	-10,463645	23,395	-0,095127
3,559399	-5,532005	23,445	-0,092958
3,554412	-5,772816	23,495	-0,093063
3,549325	-6,314364	23,545	-0,093302
3,544351	-6,073553	23,595	-0,093196
3,539413	-6,013627	23,645	-0,093169
3,534404	-6,013627	23,695	-0,093169
3,529365	-5,953702	23,745	-0,093143
3,524456	-5,472079	23,795	-0,092931
3,519380	-6,013627	23,845	-0,093169
3,514406	-5,892667	23,896	-0,093116
3,509452	-5,712891	23,947	-0,093037
3,504361	-6,073553	23,997	-0,093196
3,499399	-5,772816	24,047	-0,093063
3,494404	-5,291193	24,098	-0,092852
3,489351	-5,953702	24,148	-0,093143
3,484408	-5,412154	24,198	-0,092905
3,479373	-5,953702	24,249	-0,093143
3,474423	-5,953702	24,299	-0,093143
3,469417	-5,772816	24,349	-0,093063
3,464331	-5,832741	24,399	-0,093090
3,459376	-5,532005	24,450	-0,092958
3,454393	-5,171342	24,500	-0,092799
3,449476	-4,870605	24,550	-0,092667
3,444398	-5,953702	24,600	-0,093143
3,439355	-5,652965	24,650	-0,093011
3,434452	-5,652965	24,701	-0,093011
3,429440	-5,712891	24,751	-0,093037
3,424430	-5,591930	24,801	-0,092984
3,419462	-5,051491	24,851	-0,092746
3,414443	-4,569869	24,901	-0,092534
3,409347	-4,509943	24,951	-0,092508
3,404390	-5,171342	25,001	-0,092799
3,399452	-5,351119	25,052	-0,092878
3,394409	-5,832741	25,102	-0,093090
3,389426	-4,749645	25,152	-0,092613
3,384384	-4,930531	25,202	-0,092693
3,379454	-4,749645	25,252	-0,092613

X-Pos [um]	Y-Pos [um]
4,999965	4,999064

POC
3,551209
3,350951	0,000000	0,014	-0,088936
3,356048	2,284934	0,043	-0,087930
3,361145	-8,178711	0,093	-0,092534
3,366158	-8,720259	0,144	-0,092772
3,371160	-8,539373	0,194	-0,092693
3,376140	-8,660334	0,244	-0,092746
3,381215	-8,479448	0,294	-0,092667
3,386211	-8,959961	0,345	-0,092878
3,391145	-8,780185	0,395	-0,092799
3,396174	-7,997825	0,446	-0,092455
3,401154	-9,321733	0,496	-0,093037
3,406180	-8,599299	0,546	-0,092719
3,411229	-8,358487	0,596	-0,092613
3,416095	-8,419522	0,646	-0,092640
3,421213	-8,599299	0,696	-0,092719
3,426111	-9,200772	0,746	-0,092984
3,431164	-8,238636	0,796	-0,092561
3,436204	-8,660334	0,846	-0,092746
3,441100	-8,720259	0,896	-0,092772
3,446152	-8,539373	0,947	-0,092693
3,451149	-8,599299	0,997	-0,092719
3,456179	-8,299672	1,047	-0,092587
3,461169	-8,419522	1,097	-0,092640
3,466186	-8,539373	1,147	-0,092693
3,471169	-8,900036	1,198	-0,092852
3,476166	-8,358487	1,248	-0,092613
3,481122	-8,599299	1,298	-0,092719
3,486173	-8,720259	1,349	-0,092772
3,491159	-8,840110	1,399	-0,092825
3,496084	-8,178711	1,449	-0,092534
3,501119	-8,780185	1,500	-0,092799
3,506173	-8,780185	1,550	-0,092799
3,511122	-8,900036	1,601	-0,092852
3,516153	-8,599299	1,651	-0,092719
3,521175	-8,840110	1,701	-0,092825
3,526110	-10,164018	1,751	-0,093408
3,531152	-10,222834	1,801	-0,093434
3,536235	-10,102983	1,851	-0,093381
3,541123	-9,802246	1,901	-0,093249
3,546165	-7,577237	1,951	-0,092270
3,551167	-3,187145	2,001	-0,090338
3,556122	1,744496	2,051	-0,088168
3,561189	6,314364	2,101	-0,086157
3,566185	11,967330	2,152	-0,083670
3,571172	16,598233	2,203	-0,081632
3,576197	21,589799	2,253	-0,079436
3,581155	26,461515	2,303	-0,077292
3,586165	31,513006	2,354	-0,075070
3,591108	36,564498	2,404	-0,072847
3,596157	41,255327	2,454	-0,070783
3,601193	46,006081	2,504	-0,068693
3,606158	51,539196	2,555	-0,066258
3,611186	56,650613	2,605	-0,064009
3,616126	60,860929	2,655	-0,062157
3,621231	65,972346	2,705	-0,059908
3,626180	70,842951	2,755	-0,057765
3,631130	75,774592	2,805	-0,055595
3,636160	80,887118	2,856	-0,053345
3,641148	86,058461	2,906	-0,051070
3,646184	90,990101	2,956	-0,048900
3,651168	95,921742	3,006	-0,046730
3,656117	100,912198	3,056	-0,044534
3,661121	100,551536	3,106	-0,044693
3,666142	110,354892	3,156	-0,040379
3,671156	115,285423	3,206	-0,038210
3,676145	120,999423	3,256	-0,035696
3,681140	122,923695	3,306	-0,034849
3,686140	130,441007	3,356	-0,031542
3,691131	134,470437	3,406	-0,029769
3,696166	140,003551	3,456	-0,027334
3,701144	140,062367	3,506	-0,027308
3,706174	150,406161	3,556	-0,022757
3,711155	155,458762	3,607	-0,020534
3,716171	160,751065	3,657	-0,018205
3,721200	164,840421	3,707	-0,016406
3,726144	170,252575	3,757	-0,014024
3,731194	176,086426	3,808	-0,011458
3,736114	180,295632	3,858	-0,009605
3,741110	184,926536	3,909	-0,007568
3,746199	190,338690	3,959	-0,005187
3,751125	194,909668	4,009	-0,003175
3,756152	200,742409	4,060	-0,000609
3,761176	200,081010	4,110	-0,000900
3,766172	209,944292	4,160	0,003440
3,771212	215,537331	4,210	0,005901
3,776098	219,686612	4,260	0,007727
3,781156	224,377441	4,310	0,009791
3,786119	227,564586	4,360	0,011193
3,791152	234,601385	4,410	0,014289
3,796126	239,772727	4,460	0,016564
3,801069	244,283780	4,510	0,018549
3,806186	249,034535	4,562	0,020640
3,811142	254,325728	4,612	0,022968
3,816128	259,558105	4,662	0,025270
3,821151	264,369895	4,713	0,027387
3,826170	269,722124	4,763	0,029742
3,831131	271,225808	4,813	0,030404
3,836195	278,982821	4,863	0,033817
3,841161	284,095348	4,913	0,036066
3,846149	288,965953	4,963	0,038209
3,851156	294,618919	5,014	0,040697
3,856105	298,588423	5,064	0,042443
3,861128	303,520064	5,114	0,044613
3,866172	308,511630	5,164	0,046810
3,871159	313,563121	5,215	0,049032
3,876142	317,832253	5,265	0,050911
3,881155	323,546254	5,418	0,053425
3,886127	328,116122	5,468	0,055436
3,891135	332,747026	5,519	0,057473
3,896132	338,459917	5,569	0,059987
3,901134	338,881614	5,619	0,060172
[...]
3,631068	81,909180	22,417	-0,052896
3,626037	76,736728	22,467	-0,055171
3,621080	76,495916	22,517	-0,055277
3,616083	66,994407	22,568	-0,059458
3,611084	62,363503	22,618	-0,061496
3,606157	58,274148	22,668	-0,063295
3,601071	52,861994	22,719	-0,065676
3,596121	47,209029	22,769	-0,068164
3,591148	43,360485	22,819	-0,069857
3,586028	38,007147	22,869	-0,072212
3,581168	32,415217	22,919	-0,074673
3,576116	28,025124	22,970	-0,076604
3,571095	23,274370	23,020	-0,078695
3,566111	17,861106	23,070	-0,081077
3,561139	13,351163	23,120	-0,083061
3,556107	8,720259	23,170	-0,085099
3,551161	3,308105	23,220	-0,087480
3,546098	-1,743386	23,271	-0,089703
3,541103	-6,194513	23,322	-0,091661
3,536071	-11,126154	23,372	-0,093831
3,531101	-10,009766	23,422	-0,093340
3,526103	-10,283869	23,472	-0,093460
3,521117	-9,862172	23,522	-0,093275
3,516102	-9,622470	23,572	-0,093169
3,511130	-9,261808	23,622	-0,093011
3,506157	-9,261808	23,672	-0,093011
3,501160	-9,200772	23,723	-0,092984
3,496078	-10,164018	23,773	-0,093408
3,491091	-9,441584	23,823	-0,093090
3,486126	-9,200772	23,873	-0,092984
3,481152	-8,900036	23,923	-0,092852
3,476160	-9,381658	23,973	-0,093063
3,471083	-9,562544	24,023	-0,093143
3,466113	-9,802246	24,074	-0,093249
3,461171	-9,441584	24,124	-0,093090
3,456153	-9,140847	24,174	-0,092958
3,451195	-9,501509	24,224	-0,093116
3,446099	-9,321733	24,274	-0,093037
3,441143	-9,622470	24,325	-0,093169
3,436126	-8,959961	24,375	-0,092878
3,431159	-9,562544	24,426	-0,093143
3,426147	-9,622470	24,477	-0,093169
3,421137	-9,562544	24,528	-0,093143
3,416186	-8,720259	24,578	-0,092772
3,411180	-8,840110	24,628	-0,092825
3,406196	-9,200772	24,678	-0,092984
3,401099	-9,261808	24,728	-0,093011
3,396080	-8,660334	24,778	-0,092746
3,391113	-8,238636	24,829	-0,092561
3,386124	-8,720259	24,879	-0,092772
3,381189	-8,720259	24,929	-0,092772
3,376112	-8,959961	24,979	-0,092878
3,371144	-8,959961	25,029	-0,092878
3,366134	-8,479448	25,079	-0,092667
3,361136	-8,660334	25,129	-0,092746
3,356195	-8,479448	25,179	-0,092667
3,351153	-9,321733	25,229	-0,093037

X-Pos [um]	Y-Pos [um]
4,999094	0,000000

POC
3,557001
3,356768	0,000000	0,015	-0,089465
3,361898	2,165083	0,034	-0,088512
3,366869	-7,457386	0,084	-0,092746
3,371900	-7,155540	0,134	-0,092613
3,376932	-7,457386	0,184	-0,092746
3,382001	-7,155540	0,234	-0,092613
3,386955	-7,396351	0,284	-0,092719
3,391953	-7,877974	0,334	-0,092931
3,396987	-7,757013	0,385	-0,092878
3,401959	-7,216575	0,435	-0,092640
3,406945	-7,577237	0,486	-0,092799
3,411977	-8,058860	0,536	-0,093011
3,416913	-7,096724	0,586	-0,092587
3,421989	-7,396351	0,636	-0,092719
3,426993	-7,096724	0,686	-0,092587
3,431989	-7,155540	0,736	-0,092613
3,436966	-7,697088	0,786	-0,092852
3,441967	-7,457386	0,836	-0,092746
3,447001	-7,096724	0,886	-0,092587
3,451938	-7,818049	0,936	-0,092905
3,456973	-7,155540	0,986	-0,092613
3,461926	-7,997825	1,036	-0,092984
3,466973	-7,155540	1,087	-0,092613
3,471899	-7,877974	1,137	-0,092931
3,476932	-7,336426	1,187	-0,092693
3,481966	-7,877974	1,238	-0,092931
3,486957	-7,396351	1,288	-0,092719
3,491961	-7,216575	1,338	-0,092640
3,496967	-7,697088	1,389	-0,092852
3,501991	-7,517312	1,439	-0,092772
3,506898	-7,276500	1,489	-0,092667
3,511939	-7,216575	1,539	-0,092640
3,516921	-7,035689	1,589	-0,092561
3,521935	-7,457386	1,640	-0,092746
3,526933	-6,975763	1,690	-0,092534
3,532001	-8,659224	1,740	-0,093275
3,536937	-8,659224	1,790	-0,093275
3,541941	-8,539373	1,840	-0,093222
3,546939	-8,659224	1,891	-0,093275
3,551911	-7,155540	1,941	-0,092613
3,556950	-2,344860	1,991	-0,090497
3,561956	2,286044	2,041	-0,088459
3,567002	2,225009	2,093	-0,088486
3,571969	11,606667	2,143	-0,084358
3,576954	17,380593	2,193	-0,081817
3,581944	22,071422	2,243	-0,079753
3,586913	27,242765	2,293	-0,077478
3,591950	31,873668	2,343	-0,075440
3,596959	36,383612	2,393	-0,073456
3,601937	41,736950	2,443	-0,071101
3,606941	47,089178	2,493	-0,068746
3,611944	51,659047	2,543	-0,066735
3,616962	56,891424	2,593	-0,064433
3,621949	62,183727	2,643	-0,062104
3,626985	67,295144	2,693	-0,059855
3,631997	71,264648	2,743	-0,058108
3,636940	76,075328	2,793	-0,055992
3,642033	80,766158	2,843	-0,053928
3,646952	86,359197	2,894	-0,051467
3,651959	91,169877	2,944	-0,049350
3,656936	96,764027	2,995	-0,046889
3,661900	101,333896	3,045	-0,044878
3,666959	105,964799	3,095	-0,042840
3,671942	111,376953	3,145	-0,040459
3,676998	116,067782	3,195	-0,038395
3,681974	116,187633	3,246	-0,038342
3,686979	125,570401	3,296	-0,034214
3,691994	130,500932	3,346	-0,032044
3,696984	135,492498	3,396	-0,029848
3,701934	140,784801	3,446	-0,027520
3,706975	146,017179	3,496	-0,025217
3,711933	150,587047	3,546	-0,023207
3,716937	155,458762	3,596	-0,021063
3,721933	160,810991	3,646	-0,018708
3,726971	163,095925	3,696	-0,017703
3,731943	170,854048	3,746	-0,014289
3,736904	175,604803	3,797	-0,012199
3,741904	180,536444	3,847	-0,010029
3,746915	185,647860	3,897	-0,007780
3,751880	190,339799	3,947	-0,005715
3,756925	195,150479	4,098	-0,003599
3,761922	195,029519	4,149	-0,003652
3,766949	204,952725	4,200	0,000714
3,771989	210,364879	4,250	0,003096
3,776971	215,055708	4,300	0,005160
3,781950	220,107200	4,350	0,007382
3,786938	224,437367	4,400	0,009288
3,791975	229,729670	4,451	0,011616
3,796968	234,902122	4,501	0,013892
3,801993	239,292214	4,551	0,015824
3,806909	244,644442	4,602	0,018179
3,811947	249,515048	4,652	0,020322
3,816876	254,687500	4,703	0,022598
3,821916	259,679066	4,754	0,024794
3,826962	264,369895	4,805	0,026858
3,831927	269,481312	4,855	0,029107
3,836934	274,293102	4,906	0,031224
3,841911	279,946067	4,956	0,033711
3,846911	284,636896	5,006	0,035775
3,851875	288,967063	5,056	0,037681
3,856924	294,558993	5,106	0,040141
3,861944	299,370783	5,156	0,042258
3,866910	304,181463	5,206	0,044375
3,871942	309,173029	5,257	0,046571
3,876983	314,405407	5,307	0,048874
3,881981	318,855424	5,357	0,050832
3,886913	323,606179	5,407	0,052922
3,891829	329,259144	5,457	0,055409
3,896847	333,288574	5,507	0,057182
3,901921	338,520952	5,557	0,059484
3,906973	343,813255	5,607	0,061813
3,911951	349,165483	5,657	0,064168
3,916877	353,495650	5,708	0,066073
3,921908	358,547141	5,758	0,068296
3,926960	363,117010	5,808	0,070307
3,931961	367,687988	5,858	0,072318
3,936918	373,160067	5,908	0,074726
3,941957	378,212669	5,958	0,076949
3,946933	383,324086	6,008	0,079198
3,951904	387,714178	6,058	0,081129
3,956911	393,247292	6,108	0,083564
3,961917	398,057972	6,158	0,085681
3,966941	402,147328	6,208	0,087480
3,971927	407,680442	6,258	0,089915
3,976902	412,911710	6,308	0,092216
3,981912	417,602539	6,358	0,094280
3,986915	422,113592	6,408	0,096265
3,991876	428,308105	6,458	0,098991
3,996918	432,577237	6,508	0,100869
4,001912	437,148216	6,558	0,102880
4,006905	442,680220	6,608	0,105314
4,011918	447,551935	6,658	0,107458
4,016966	452,061879	6,708	0,109442
4,021943	456,752708	6,758	0,111506
4,026915	462,045011	6,808	0,113835
4,031849	467,097612	6,858	0,116058
4,036929	472,629616	6,908	0,118492
4,041846	477,139560	6,958	0,120477
4,046877	479,305753	7,008	0,121430
4,051954	486,702104	7,059	0,124684
4,056875	491,513894	7,110	0,126801
4,061819	496,384499	7,160	0,128944
4,066897	501,616877	7,210	0,131247
4,071864	505,826083	7,261	0,133099
4,076903	511,118386	7,311	0,135427
4,081858	516,109952	7,361	0,137624
4,086911	521,643066	7,412	0,140058
4,091909	526,453746	7,463	0,142175
4,096938	531,265536	7,513	0,144292
4,101924	536,076216	7,563	0,146409
4,106880	540,826971	7,613	0,148499
4,111942	545,999423	7,663	0,150775
4,116948	551,411577	7,714	0,153156
4,121815	556,222257	7,764	0,155273
4,126948	561,334783	7,814	0,157522
4,131895	562,235884	7,865	0,157919
4,136910	570,535556	7,915	0,161571
4,141861	575,286310	7,965	0,163661
4,146883	576,549183	8,015	0,164217
4,151920	584,968706	8,065	0,167921
4,156872	590,381969	8,115	0,170303
4,161866	594,711026	8,165	0,172208
4,166877	599,883478	8,215	0,174484
4,171890	604,393422	8,265	0,176468
4,176943	609,745650	8,316	0,178823
4,181903	615,278764	8,366	0,181258
4,186861	619,368120	8,416	0,183057
4,191858	624,479537	8,466	0,185306
4,196881	630,132502	8,517	0,187793
4,201948	634,222967	8,567	0,189593
4,206949	639,635121	8,618	0,191975
4,211922	644,264915	8,669	0,194012
4,216844	649,256481	8,719	0,196208
4,221863	654,068271	8,769	0,198325
4,226887	659,721236	8,819	0,200813
4,231849	664,171254	8,870	0,202771
4,236903	669,403631	8,920	0,205073
4,241864	674,154386	8,970	0,207163
4,246906	679,205877	9,020	0,209386
4,251862	684,137518	9,070	0,211556
4,256920	688,948198	9,120	0,213672
4,261870	694,421387	9,171	0,216081
4,266895	698,269931	9,221	0,217774
4,271860	703,502308	9,272	0,220076
4,276875	708,673651	9,322	0,222352
4,281861	713,605291	9,372	0,224521
4,286847	718,777743	9,422	0,226797
4,291840	724,070046	9,473	0,229126
4,296879	728,940652	9,523	0,231269
4,301879	733,511630	9,573	0,233280
4,306874	738,623047	9,624	0,235529
4,311891	738,744007	9,678	0,235583
4,316863	747,763894	9,729	0,239551
4,321833	753,537820	9,780	0,242092
4,326903	758,107688	9,830	0,244103
4,331858	763,220215	9,880	0,246352
4,336894	768,210671	9,930	0,248548
4,341852	773,142312	9,980	0,250718
4,346826	778,434615	10,030	0,253046
4,351830	782,704856	10,080	0,254925
4,356873	784,208540	10,131	0,255587
4,356810	793,228427	10,181	0,259556
4,356808	792,928800	10,232	0,259424
4,356852	793,228427	10,282	0,259556
4,356782	793,108576	10,333	0,259503
4,356774	793,168501	10,383	0,259529
4,356821	793,048651	10,433	0,259477
4,356835	792,867765	10,483	0,259397
4,356809	793,048651	10,533	0,259477
4,356804	792,807839	10,583	0,259371
4,356864	792,567028	10,634	0,259265
4,356830	793,048651	10,684	0,259477
4,356821	793,108576	10,735	0,259503
4,356793	793,168501	10,786	0,259529
4,356836	792,867765	10,837	0,259397
4,356896	792,387251	10,887	0,259186
4,356862	791,485041	10,938	0,258789
4,356857	792,567028	10,988	0,259265
4,356833	792,387251	11,038	0,259186
4,356784	792,867765	11,088	0,259397
4,356857	792,988725	11,139	0,259450
4,356825	793,409313	11,190	0,259635
4,356847	792,626953	11,241	0,259291
4,356860	793,048651	11,291	0,259477
4,356788	792,867765	11,342	0,259397
4,356809	792,747914	11,392	0,259344
4,356823	792,867765	11,442	0,259397
4,356857	792,567028	11,492	0,259265
4,356857	792,867765	11,542	0,259397
4,356816	792,387251	11,593	0,259186
4,356759	792,807839	11,643	0,259371
4,356865	792,567028	11,695	0,259265
4,356836	792,687988	11,745	0,259318
4,356787	792,687988	11,795	0,259318
4,356824	792,747914	11,845	0,259344
4,356797	792,327326	11,895	0,259159
4,356842	792,807839	11,945	0,259371
4,356820	792,687988	11,995	0,259318
4,356844	792,507102	12,045	0,259238
4,356857	792,747914	12,095	0,259344
4,356789	792,266291	12,145	0,259132
4,356847	792,086515	12,196	0,259053
4,356816	792,507102	12,246	0,259238
4,356835	792,507102	12,296	0,259238
4,356816	792,507102	12,347	0,259238
4,356820	791,965554	12,397	0,259000
4,356789	792,447177	12,447	0,259212
4,356779	792,747914	12,497	0,259344
4,356834	792,807839	12,547	0,259371
4,356798	792,626953	12,597	0,259291
4,356835	792,807839	12,647	0,259371
4,356849	792,507102	12,697	0,259238
4,356825	792,807839	12,748	0,259371
4,356820	792,447177	12,799	0,259212
4,356847	792,626953	12,849	0,259291
4,356862	792,867765	12,899	0,259397
4,356835	792,626953	12,949	0,259291
4,356826	792,747914	12,999	0,259344
4,356780	792,626953	13,050	0,259291
4,356801	792,387251	13,100	0,259186
4,356829	792,327326	13,150	0,259159
4,356884	792,626953	13,200	0,259291
4,356851	792,687988	13,250	0,259318
4,356859	792,447177	13,300	0,259212
4,356912	792,687988	13,350	0,259318
4,356827	792,507102	13,400	0,259238
4,356866	791,965554	13,450	0,259000
4,356879	792,626953	13,500	0,259291
4,356793	792,567028	13,550	0,259265
4,356840	792,807839	13,601	0,259371
4,356846	792,807839	13,651	0,259371
4,356833	792,447177	13,701	0,259212
4,356837	792,626953	13,752	0,259291
4,356802	791,485041	13,802	0,258789
4,356815	792,086515	13,853	0,259053
4,356839	791,965554	13,903	0,259000
4,356824	792,507102	13,953	0,259238
4,356800	792,327326	14,003	0,259159
4,356785	792,507102	14,053	0,259238
4,356880	791,725852	14,104	0,258895
4,356844	792,387251	14,155	0,259186
4,356842	792,266291	14,205	0,259132
4,356867	792,447177	14,255	0,259212
4,356873	792,447177	14,306	0,259212
4,356844	792,266291	14,356	0,259132
4,356846	792,026589	14,407	0,259027
4,356817	792,266291	14,457	0,259132
4,356828	793,108576	14,507	0,259503
4,356786	793,228427	14,557	0,259556
4,356846	792,867765	14,607	0,259397
4,356771	793,048651	14,657	0,259477
4,356834	792,387251	14,707	0,259186
4,356917	792,687988	14,757	0,259318
4,356723	792,626953	14,807	0,259291
4,356788	793,168501	14,857	0,259529
4,356815	792,747914	14,907	0,259344
4,356869	792,387251	14,957	0,259186
4,356843	792,567028	15,007	0,259265
4,356819	792,327326	15,058	0,259159
4,356820	792,626953	15,108	0,259291
4,356874	792,567028	15,158	0,259265
4,351845	792,567028	15,208	0,259265
4,346864	787,094949	15,259	0,256857
4,341806	782,644931	15,309	0,254899
4,336778	777,352628	15,359	0,252570
4,331864	772,300027	15,410	0,250347
4,326809	767,248535	15,460	0,248125
4,321812	763,220215	15,510	0,246352
4,316856	757,025701	15,562	0,243626
4,311792	752,034135	15,612	0,241430
4,306798	747,343306	15,662	0,239366
4,301826	741,931152	15,712	0,236985
4,296828	736,878551	15,762	0,234762
4,291857	732,187722	15,813	0,232698
4,286837	726,655717	15,864	0,230264
4,281815	722,144664	15,914	0,228279
4,276859	716,672585	15,964	0,225871
4,271804	712,764116	16,014	0,224151
4,266838	706,749379	16,065	0,221505
4,261820	701,457076	16,115	0,219176
4,256898	696,887207	16,166	0,217166
4,251774	696,887207	16,216	0,217166
4,246793	686,784224	16,266	0,212720
4,241833	681,551847	16,316	0,210418
4,236812	676,801092	16,366	0,208328
4,231852	671,989302	16,416	0,206210
4,226790	666,696999	16,466	0,203882
4,221828	661,705433	16,516	0,201686
4,216810	656,293279	16,567	0,199304
4,211821	651,722301	16,617	0,197293
4,206836	646,491033	16,668	0,194991
4,201833	640,717108	16,718	0,192451
4,196855	636,627752	16,768	0,190651
4,191859	631,456410	16,818	0,188376
4,186872	626,283958	16,868	0,186100
4,181882	620,390181	16,919	0,183507
4,176870	616,481712	16,969	0,181787
4,171858	610,828746	17,019	0,179300
4,166837	606,018066	17,069	0,177183
4,161808	600,604803	17,119	0,174801
4,156848	596,093750	17,169	0,172816
4,151868	590,681596	17,219	0,170435
4,146843	586,111728	17,269	0,168424
4,141870	581,120162	17,319	0,166228
4,136830	575,827859	17,369	0,163899
4,131839	571,377841	17,419	0,161941
4,126885	565,844727	17,469	0,159507
4,121859	560,853161	17,519	0,157311
4,116868	556,343217	17,569	0,155326
4,111827	551,170765	17,619	0,153050
4,106872	545,577725	17,670	0,150589
4,101838	540,526234	17,720	0,148367
4,096819	535,835405	17,771	0,146303
4,091857	530,664062	17,821	0,144027
4,086909	525,612571	17,871	0,141805
4,081840	520,800781	17,921	0,139687
4,076830	515,327592	17,971	0,137279
4,071862	510,216175	18,021	0,135030
4,066785	505,345570	18,072	0,132887
4,061855	500,594815	18,123	0,130797
4,056847	495,542214	18,174	0,128574
4,051847	490,972346	18,225	0,126563
4,046904	485,559082	18,276	0,124181
4,041830	480,387740	18,326	0,121906
4,036919	475,577060	18,376	0,119789
4,031957	471,006081	18,426	0,117778
4,026814	465,172230	18,476	0,115211
4,021803	461,082875	18,527	0,113412
4,016861	456,031383	18,577	0,111189
4,011859	450,679155	18,628	0,108834
4,006824	445,326926	18,678	0,106479
4,001821	440,876909	18,729	0,104521
3,996853	435,403720	18,779	0,102113
3,991890	430,772816	18,829	0,100075
3,986935	425,842285	18,879	0,097906
3,981863	421,211381	18,929	0,095868
3,976836	415,377530	18,979	0,093301
3,971884	410,747736	19,029	0,091264
3,966886	406,236683	19,079	0,089279
3,961844	401,125266	19,129	0,087030
3,956877	395,832963	19,179	0,084702
3,951877	391,202060	19,229	0,082664
3,946855	386,210494	19,279	0,080468
3,941881	381,159002	19,330	0,078245
3,936842	375,926625	19,380	0,075943
3,931936	370,875133	19,431	0,073720
3,926839	366,244229	19,481	0,071683
3,921852	361,252663	19,531	0,069486
3,916847	356,382058	19,581	0,067343
3,911888	351,811080	19,631	0,065332
3,906851	346,277965	19,681	0,062897
3,901879	341,648171	19,731	0,060860
3,896856	336,236017	19,782	0,058479
3,891857	332,025701	19,832	0,056626
3,886825	326,191850	19,882	0,054060
3,881900	322,703968	19,932	0,052525
3,876914	316,690341	19,983	0,049879
3,871942	311,999512	20,033	0,047815
3,866980	307,549494	20,083	0,045857
3,861891	302,197266	20,133	0,043502
3,856884	297,506436	20,184	0,041438
3,851894	292,815607	20,234	0,039374
3,846880	287,703081	20,284	0,037125
3,841893	282,290927	20,335	0,034743
3,836871	277,359286	20,385	0,032573
3,831879	272,969194	20,435	0,030642
3,826849	268,218439	20,485	0,028551
3,821910	263,527610	20,536	0,026487
3,816831	258,416193	20,586	0,024238
3,811916	253,484553	20,636	0,022068
3,806894	248,492987	20,686	0,019872
3,801804	243,320534	20,736	0,017596
3,796803	238,330078	20,786	0,015400
3,791853	233,217551	20,836	0,013151
3,786934	228,346946	20,886	0,011008
3,781903	224,377441	20,937	0,009261
3,776876	219,325950	20,987	0,007039
3,771911	215,236594	21,037	0,005239
3,766862	210,004217	21,087	0,002937
3,761937	205,133612	21,137	0,000794
3,756934	200,803445	21,188	-0,001111
3,751884	195,270330	21,238	-0,003546
3,746807	190,398615	21,289	-0,005689
3,741917	185,828746	21,339	-0,007700
3,736927	181,077992	21,389	-0,009791
3,731845	175,965465	21,439	-0,012040
3,726891	171,154785	21,489	-0,014157
3,721814	165,983443	21,539	-0,016432
3,716921	161,352539	21,589	-0,018470
3,711920	157,203258	21,639	-0,020295
3,706848	152,873091	21,690	-0,022201
3,701880	145,475630	21,740	-0,025456
3,696855	140,424139	21,790	-0,027678
3,691863	136,334783	21,840	-0,029478
3,686858	130,921520	21,890	-0,031859
3,681894	126,411577	21,940	-0,033844
3,676890	121,780673	21,990	-0,035881
3,671866	116,007857	22,040	-0,038421
3,666882	111,617765	22,090	-0,040353
3,661887	107,347523	22,140	-0,042232
3,656860	102,416992	22,190	-0,044401
3,651933	96,943803	22,240	-0,046810
3,646872	92,493786	22,290	-0,048768
3,641889	87,080522	22,341	-0,051149
3,636932	82,090066	22,391	-0,053345
3,631987	77,579013	22,441	-0,055330
3,626864	72,467596	22,491	-0,057579
3,621924	67,476030	22,541	-0,059775
3,616956	62,845126	22,591	-0,061813
3,611875	58,034446	22,641	-0,063930
3,606839	52,921919	22,692	-0,066179
3,601842	47,991388	22,742	-0,068349
3,596850	43,540261	22,793	-0,070307
3,591940	38,488770	22,844	-0,072530
3,586913	34,219638	22,895	-0,074408
3,581860	28,566673	22,946	-0,076896
3,576991	24,175471	22,996	-0,078828
3,571911	18,944203	23,046	-0,081129
3,566882	13,711825	23,097	-0,083432
3,561947	8,359597	23,147	-0,085787
3,556880	3,728693	23,197	-0,087824
3,551852	-0,721325	23,247	-0,089782
3,546876	-5,352228	23,298	-0,091820
3,541902	-10,463645	23,349	-0,094069
3,536919	-8,238636	23,400	-0,093090
3,531908	-8,118786	23,450	-0,093037
3,526866	-8,419522	23,501	-0,093169
3,521948	-7,757013	23,551	-0,092878
3,516857	-8,419522	23,602	-0,093169
3,511880	-7,997825	23,652	-0,092984
3,506915	-8,298562	23,702	-0,093116
3,501914	-8,599299	23,753	-0,093249
3,496947	-8,659224	23,803	-0,093275
3,491940	-8,359597	23,854	-0,093143
3,486885	-8,298562	23,905	-0,093116
3,481940	-8,359597	23,956	-0,093143
3,476897	-8,419522	24,006	-0,093169
3,471909	-8,359597	24,056	-0,093143
3,466929	-8,720259	24,106	-0,093302
3,461886	-8,359597	24,156	-0,093143
3,456890	-7,757013	24,206	-0,092878
3,451976	-8,118786	24,257	-0,093037
3,446933	-8,479448	24,307	-0,093196
3,442011	-8,238636	24,357	-0,093090
3,436944	-8,238636	24,407	-0,093090
3,431969	-7,877974	24,458	-0,092931
3,426964	-7,937900	24,508	-0,092958
3,421974	-7,637163	24,559	-0,092825
3,416944	-7,997825	24,609	-0,092984
3,411934	-8,178711	24,659	-0,093063
3,406937	-8,359597	24,710	-0,093143
3,401915	-7,637163	24,761	-0,092825
3,396923	-7,577237	24,811	-0,092799
3,391977	-7,517312	24,861	-0,092772
3,386974	-7,035689	24,912	-0,092561
3,381913	-7,457386	24,962	-0,092746
3,376869	-7,096724	25,012	-0,092587
3,371971	-7,336426	25,063	-0,092693
3,366968	-7,276500	25,114	-0,092667
3,361956	-7,276500	25,164	-0,092667
3,356976	-7,637163	25,214	-0,092825