File: Nanoindentation Datenauswertung/data/Test Measurement/partial unload on sapphire-4
Quasi static measurement routine
Tip parameters (shape,radius, material...)
11.07.2022

Piezo position[nm]	MEMS displ.[nm]	Time[ms]	Cap [pf]
eoh
2,069949	0,060754	0,175	-0,115291
2,075939	0,670543	0,333	-0,115026
2,081933	0,852805	0,486	-0,114947
2,087935	0,670543	0,637	-0,115026
2,093943	0,182262	0,789	-0,115238
2,099963	0,792051	0,942	-0,114973
2,105906	1,280332	1,095	-0,114761
2,111979	2,193890	1,245	-0,114365
2,117950	1,950875	1,396	-0,114470
2,123977	2,865558	1,556	-0,114073
2,129932	3,291961	1,713	-0,113888
2,135942	0,121508	1,864	-0,115264
2,141950	1,890121	2,016	-0,114497
2,147946	2,682172	2,168	-0,114153
2,153952	2,621418	2,319	-0,114179
2,159946	3,779117	2,472	-0,113677
2,165905	4,449660	2,627	-0,113386
2,171964	4,572293	2,793	-0,113333
2,177952	6,157519	2,953	-0,112645
2,183954	5,365468	3,109	-0,112988
2,189986	5,791871	3,261	-0,112803
2,195957	8,231027	3,415	-0,111745
2,201959	8,231027	3,583	-0,111745
2,207909	8,352535	3,733	-0,111692
2,213953	10,547550	3,889	-0,110739
2,219941	10,913198	4,049	-0,110581
2,225955	-3,719488	4,201	-0,116931
2,231949	-6,707679	4,367	-0,118228
2,237965	-4,939066	4,518	-0,117460
2,243962	-3,293086	4,686	-0,116746
2,249980	-1,463719	4,836	-0,115952
2,255966	-0,365648	4,986	-0,115476
2,261993	1,950875	5,137	-0,114470
2,267907	0,182262	5,288	-0,115238
2,273926	-4,573418	5,440	-0,117302
2,279982	-0,793176	5,609	-0,115661
2,285917	3,231207	5,761	-0,113915
2,291932	7,377097	5,915	-0,112115
2,297928	10,790566	6,067	-0,110634
2,303942	14,814948	6,221	-0,108887
2,309932	19,083471	6,373	-0,107035
2,315952	22,558819	6,523	-0,105526
2,321939	27,070358	6,699	-0,103568
2,327925	31,032861	6,850	-0,101849
2,333870	34,935736	7,002	-0,100155
2,339970	39,568782	7,152	-0,098144
2,345970	43,104884	7,303	-0,096609
2,351931	47,312653	7,474	-0,094783
2,357924	50,788000	7,625	-0,093275
2,363954	54,933891	7,776	-0,091476
2,369917	58,957148	7,930	-0,089729
2,375962	62,676636	8,080	-0,088115
2,381961	64,932406	8,232	-0,087136
2,387931	69,017542	8,384	-0,085363
2,393945	72,004608	8,536	-0,084067
2,399951	75,236940	8,688	-0,082664
2,405921	78,528901	8,839	-0,081235
2,411989	81,576721	8,989	-0,079913
2,418016	84,686420	9,163	-0,078563
2,423938	88,040260	9,315	-0,077107
2,429985	91,394099	9,475	-0,075652
2,435920	95,722251	9,626	-0,073773
2,441953	99,136845	9,777	-0,072292
2,447982	101,758263	9,937	-0,071154
2,453922	106,087540	10,088	-0,069275
2,459980	109,502133	10,239	-0,067793
2,465951	112,611832	10,392	-0,066443
2,469869	115,049863	10,544	-0,065385
2,469910	114,623461	10,697	-0,065570
2,469931	114,805723	10,849	-0,065491
2,469886	114,867602	11,001	-0,065464
2,469953	114,805723	11,153	-0,065491
2,469947	114,257813	11,305	-0,065729
2,469928	115,049863	11,456	-0,065385
2,469904	114,379320	11,619	-0,065676
2,469904	114,074426	11,780	-0,065809
2,469896	114,135180	11,931	-0,065782
2,469953	114,074426	12,085	-0,065809
2,469944	114,135180	12,235	-0,065782
2,469925	114,195934	12,386	-0,065756
2,469891	113,952918	12,536	-0,065861
2,469940	113,281250	12,691	-0,066153
2,469877	113,281250	12,843	-0,066153
2,469956	113,464637	12,998	-0,066073
2,469914	113,587270	13,149	-0,066020
2,469930	113,220496	13,300	-0,066179
2,469892	113,830285	13,452	-0,065915
2,469939	113,281250	13,602	-0,066153
2,469874	113,403883	13,753	-0,066100
2,469934	112,794094	13,906	-0,066364
2,469966	113,038234	14,068	-0,066258
2,469970	113,220496	14,220	-0,066179
2,469922	113,646898	14,370	-0,065994
2,469938	113,403883	14,520	-0,066100
2,469971	113,220496	14,671	-0,066179
2,469921	113,220496	14,821	-0,066179
2,469942	113,159742	14,971	-0,066206
2,469935	113,708777	15,128	-0,065967
2,469968	113,403883	15,280	-0,066100
2,469935	112,977481	15,431	-0,066285
2,469972	114,379320	15,581	-0,065676
2,463916	109,074606	15,739	-0,067979
2,457928	106,087540	15,893	-0,069275
2,451936	102,002403	16,052	-0,071048
2,445894	95,966392	16,202	-0,073667
2,439884	91,942009	16,358	-0,075414
2,433959	87,551978	16,509	-0,077319
2,427985	83,163072	16,660	-0,079224
2,421985	79,138690	16,812	-0,080971
2,415855	74,809413	16,964	-0,082850
2,409953	70,542015	17,124	-0,084702
2,403957	65,786335	17,275	-0,086766
2,397963	61,761953	17,427	-0,088512
2,392005	57,860203	17,578	-0,090206
2,385948	53,348664	17,729	-0,092164
2,379947	49,019387	17,880	-0,094042
2,373933	44,750864	18,032	-0,095895
2,369900	41,337396	18,182	-0,097376
2,375987	46,337216	18,325	-0,095207
2,381939	49,873317	18,476	-0,093672
2,387895	54,568242	18,626	-0,091634
2,393913	59,201289	18,777	-0,089624
2,399926	62,555129	18,927	-0,088168
2,405931	67,127421	19,078	-0,086184
2,411926	70,968417	19,229	-0,084517
2,417926	76,333885	19,379	-0,082188
2,423973	80,663162	19,529	-0,080309
2,429928	84,686420	19,681	-0,078563
2,435967	89,199084	19,833	-0,076604
2,441957	93,527236	19,983	-0,074726
2,447955	97,551618	20,134	-0,072979
2,453926	102,246544	20,297	-0,070942
2,459954	106,269801	20,447	-0,069196
2,465881	110,599078	20,597	-0,067317
2,471925	114,684215	20,753	-0,065544
2,478001	119,318386	20,908	-0,063533
2,483950	122,975995	21,059	-0,061945
2,489938	127,366026	21,229	-0,060040
2,495968	131,085514	21,379	-0,058426
2,501944	134,316721	21,533	-0,057023
2,507959	137,669436	21,691	-0,055568
2,513951	141,572311	21,843	-0,053875
2,519955	145,290674	22,010	-0,052261
2,525987	146,693638	22,160	-0,051652
2,531967	151,875720	22,310	-0,049403
2,537966	154,985419	22,461	-0,048053
2,544014	158,400013	22,613	-0,046571
2,549964	162,606657	22,775	-0,044746
2,555945	165,532969	22,927	-0,043476
2,561953	168,824930	23,097	-0,042047
2,567911	172,483664	23,248	-0,040459
2,573938	176,142398	23,401	-0,038871
2,579986	179,860761	23,555	-0,037257
2,585939	183,885144	23,706	-0,035511
2,591992	187,238983	23,858	-0,034055
2,597920	191,629014	24,009	-0,032150
2,603968	194,555327	24,161	-0,030880
2,609978	197,360131	24,324	-0,029663
2,615992	201,627529	24,476	-0,027811
2,621935	204,858736	24,632	-0,026408
2,627954	208,822365	24,800	-0,024688
2,633984	212,175079	24,951	-0,023233
2,639949	215,468165	25,103	-0,021804
2,645974	219,674809	25,255	-0,019978
2,651931	224,125594	25,405	-0,018046
2,657983	227,173414	25,562	-0,016724
2,663964	231,563445	25,713	-0,014818
2,669970	235,343687	25,864	-0,013178
2,675979	239,245437	26,018	-0,011484
2,681951	243,086433	26,169	-0,009817
2,687938	246,866674	26,320	-0,008177
2,694015	250,525409	26,472	-0,006589
2,699908	253,817369	26,623	-0,005160
2,706007	258,512295	26,782	-0,003123
2,711930	263,146466	26,933	-0,001111
2,717980	267,413864	27,085	0,000741
2,723955	270,462810	27,240	0,002064
2,729960	274,303805	27,390	0,003731
2,735959	278,633083	27,541	0,005610
2,741982	282,229938	27,691	0,007171
2,747940	286,070934	27,842	0,008838
2,753938	289,729668	27,995	0,010426
2,759926	294,241206	28,145	0,012384
2,765936	297,898816	28,295	0,013971
2,771926	302,167339	28,463	0,015824
2,777968	306,434737	28,614	0,017676
2,783980	310,275733	28,765	0,019343
2,789936	314,300115	28,918	0,021089
2,795858	318,506759	29,070	0,022915
2,801912	322,652650	29,221	0,024714
2,807917	327,347575	29,371	0,026752
2,813915	330,578782	29,525	0,028154
2,819960	334,359024	29,675	0,029795
2,825968	338,627547	29,825	0,031647
2,831936	342,468543	29,975	0,033314
2,837899	345,638996	30,126	0,034690
2,843965	349,357359	30,292	0,036304
2,849941	354,174917	30,443	0,038395
2,855951	358,076667	30,595	0,040088
2,861928	362,161803	30,752	0,041861
2,867933	366,307694	30,903	0,043661
2,869954	367,771412	31,054	0,044296
2,869936	367,283131	31,204	0,044084
2,869895	367,038990	31,356	0,043978
2,869956	367,160498	31,508	0,044031
2,869904	366,550709	31,658	0,043766
2,869922	367,038990	31,808	0,043978
2,869913	366,734096	31,961	0,043846
2,869955	366,673342	32,121	0,043819
2,869937	366,673342	32,273	0,043819
2,869979	366,917483	32,424	0,043925
2,869901	366,002799	32,574	0,043528
2,869915	366,794850	32,739	0,043872
2,869910	365,942045	32,892	0,043502
2,869916	366,185061	33,043	0,043607
2,869902	366,612588	33,197	0,043793
2,869929	365,637151	33,347	0,043370
2,869888	365,942045	33,501	0,043502
2,869910	366,124307	33,653	0,043581
2,869932	365,881291	33,804	0,043476
2,869947	366,429201	33,957	0,043713
2,869950	365,637151	34,107	0,043370
2,869923	366,673342	34,259	0,043819
2,869924	365,881291	34,411	0,043476
2,869863	366,612588	34,566	0,043793
2,869939	365,637151	34,716	0,043370
2,869985	366,491080	34,867	0,043740
2,869936	366,612588	35,023	0,043793
2,869934	366,246940	35,174	0,043634
2,869971	365,942045	35,326	0,043502
2,869956	365,942045	35,477	0,043502
2,869910	366,368448	35,631	0,043687
2,869931	366,185061	35,789	0,043607
2,869910	365,758659	35,940	0,043422
2,867970	365,148870	36,091	0,043158
2,861950	360,881471	36,274	0,041306
2,855934	356,247300	36,441	0,039294
2,849899	352,222917	36,600	0,037548
2,843931	347,955519	36,752	0,035696
2,837997	344,175277	36,903	0,034055
2,831923	339,236211	37,054	0,031912
2,825921	334,968813	37,206	0,030060
2,819908	330,883677	37,358	0,028287
2,813965	326,798540	37,508	0,026514
2,807904	322,409634	37,662	0,024609
2,801965	317,714709	37,812	0,022571
2,795929	313,934467	37,962	0,020931
2,789943	309,300295	38,126	0,018919
2,783941	304,728003	38,286	0,016935
2,777936	302,410354	38,438	0,015929
2,771961	295,947941	38,589	0,013125
2,765945	291,862804	38,739	0,011352
2,759892	287,167879	38,890	0,009314
2,753968	283,692531	39,040	0,007806
2,747907	279,364379	39,207	0,005927
2,741949	275,462630	39,358	0,004234
2,735944	271,438247	39,508	0,002487
2,729941	266,499181	39,659	0,000344
2,723958	263,207220	39,813	-0,001085
2,717930	258,025139	39,964	-0,003334
2,711937	253,330213	40,114	-0,005372
2,705913	249,610725	40,269	-0,006986
2,699908	244,976553	40,419	-0,008997
2,693941	240,830663	40,574	-0,010796
2,687971	236,745527	40,726	-0,012569
2,681940	232,966410	40,877	-0,014209
2,675953	228,271484	41,037	-0,016247
2,669945	223,515805	41,189	-0,018311
2,673983	227,356801	41,323	-0,016644
2,679922	231,624199	41,475	-0,014792
2,685930	235,648582	41,627	-0,013045
2,691980	240,404261	41,779	-0,010981
2,698010	244,367890	41,929	-0,009261
2,703958	248,208885	42,080	-0,007594
2,709972	252,415530	42,231	-0,005769
2,715947	256,866314	42,392	-0,003837
2,721932	261,256345	42,542	-0,001932
2,727959	264,609060	42,693	-0,000477
2,733993	269,182478	42,852	0,001508
2,739973	273,938157	43,003	0,003572
2,745974	277,961415	43,161	0,005318
2,751965	282,229938	43,324	0,007171
2,757987	286,436582	43,475	0,008997
2,763922	290,582472	43,643	0,010796
2,769969	294,667609	43,793	0,012569
2,775969	299,241026	43,944	0,014554
2,781978	303,752565	44,094	0,016512
2,787980	307,837702	44,244	0,018285
2,793960	312,531502	44,414	0,020322
2,799921	317,652830	44,564	0,022544
2,805926	320,945916	44,723	0,023974
2,811982	325,518208	44,874	0,025958
2,817931	329,421083	45,025	0,027652
2,823973	333,932622	45,176	0,029610
2,829982	337,895125	45,328	0,031330
2,835935	342,590051	45,479	0,033367
2,841875	346,248785	45,639	0,034955
2,847935	350,516183	45,794	0,036807
2,853919	354,296425	45,949	0,038448
2,859940	358,991350	46,100	0,040485
2,865976	363,381381	46,250	0,042391
2,871988	367,709533	46,400	0,044269
2,877976	371,550529	46,552	0,045936
2,883946	376,306209	46,705	0,048000
2,889933	380,635486	46,856	0,049879
2,895874	385,207778	47,006	0,051863
2,901935	388,866512	47,163	0,053451
2,907990	393,012403	47,315	0,055250
2,913923	397,219047	47,466	0,057076
2,919980	401,243430	47,617	0,058823
2,925881	405,145179	47,772	0,060516
2,931965	409,169562	47,936	0,062263
2,937969	413,315452	48,104	0,064062
2,943941	417,705483	48,255	0,065967
2,949953	421,424971	48,415	0,067582
2,955891	425,936510	48,565	0,069540
2,961961	430,143154	48,715	0,071365
2,967985	433,862642	48,865	0,072979
2,973955	438,374181	49,021	0,074938
2,979922	442,154423	49,183	0,076578
2,985911	446,300313	49,335	0,078377
2,991885	450,506957	49,487	0,080203
2,997947	454,531340	49,638	0,081950
3,003912	458,860617	49,795	0,083829
3,009928	463,067261	49,954	0,085654
3,015940	467,518046	50,105	0,087586
3,021999	471,663936	50,263	0,089385
3,027912	476,175475	50,414	0,091343
3,033940	479,468561	50,564	0,092772
3,039920	483,980100	50,722	0,094730
3,045950	488,003357	50,874	0,096477
3,051957	492,576775	51,026	0,098461
3,057915	496,112876	51,176	0,099996
3,063972	500,868556	51,326	0,102060
3,069940	504,526165	51,482	0,103647
3,075900	508,550547	51,653	0,105394
3,081928	512,819070	51,811	0,107247
3,087933	517,086469	51,971	0,109099
3,093943	521,050097	52,122	0,110819
3,099938	525,317495	52,272	0,112671
3,105889	529,707526	52,428	0,114576
3,111872	533,609276	52,580	0,116270
3,117908	538,486463	52,731	0,118386
3,123983	542,145197	52,881	0,119974
3,129945	547,205771	53,043	0,122170
3,135938	550,986013	53,195	0,123811
3,141965	555,010396	53,348	0,125558
3,147914	558,851391	53,514	0,127225
3,153915	563,362930	53,668	0,129183
3,159899	567,264680	53,819	0,130876
3,165904	571,166430	53,971	0,132569
3,171936	575,739847	54,121	0,134554
3,177853	579,824984	54,273	0,136327
3,183908	584,092382	54,424	0,138179
3,189905	588,543167	54,574	0,140111
3,195933	592,567549	54,729	0,141857
3,201949	596,164405	54,882	0,143418
3,207898	600,980838	55,035	0,145509
3,213921	605,675763	55,201	0,147546
3,219895	609,700146	55,353	0,149293
3,225889	613,846036	55,515	0,151092
3,231897	618,113434	55,667	0,152944
3,237936	621,832922	55,819	0,154559
3,243926	626,283707	55,979	0,156490
3,249888	630,551105	56,129	0,158342
3,255899	634,819628	56,284	0,160195
3,261909	638,355730	56,435	0,161729
3,267859	643,355550	56,588	0,163899
3,269905	644,330987	56,738	0,164323
3,269885	644,452495	56,890	0,164375
3,269934	643,599690	57,040	0,164005
3,269900	643,965339	57,191	0,164164
3,269865	643,477058	57,342	0,163952
3,269874	644,270233	57,514	0,164296
3,269861	643,721198	57,667	0,164058
3,269858	643,842706	57,819	0,164111
3,269938	644,086847	57,975	0,164217
3,269852	643,965339	58,126	0,164164
3,269913	643,660444	58,277	0,164032
3,269869	643,781952	58,430	0,164084
3,269881	644,514374	58,582	0,164402
3,269869	643,904585	58,732	0,164138
3,269878	643,537811	58,883	0,163979
3,269849	643,842706	59,036	0,164111
3,269936	643,904585	59,188	0,164138
3,269914	644,086847	59,339	0,164217
3,269907	643,537811	59,489	0,163979
3,269879	643,537811	59,645	0,163979
3,269885	643,965339	59,800	0,164164
3,269865	643,965339	59,956	0,164164
3,269865	643,781952	60,113	0,164084
3,269891	643,904585	60,284	0,164138
3,269887	643,904585	60,434	0,164138
3,269914	643,477058	60,585	0,163952
3,269904	643,477058	60,736	0,163952
3,269888	643,721198	60,888	0,164058
3,269835	643,537811	61,038	0,163979
3,269884	643,842706	61,188	0,164111
3,269907	643,781952	61,339	0,164084
3,269855	643,537811	61,489	0,163979
3,269883	643,842706	61,640	0,164111
3,267853	641,952585	61,790	0,163291
3,261924	637,685187	61,952	0,161438
3,255866	633,721558	62,103	0,159718
3,249871	629,759055	62,254	0,157999
3,243886	625,369024	62,418	0,156093
3,237936	622,016309	62,569	0,154638
3,231878	617,808540	62,724	0,152812
3,225937	612,321564	62,875	0,150431
3,219864	608,357935	63,025	0,148710
3,213893	604,090537	63,178	0,146858
3,207903	599,457490	63,328	0,144848
3,201857	594,945952	63,479	0,142890
3,195879	591,774374	63,629	0,141513
3,189897	587,690362	63,780	0,139741
3,183898	582,263015	63,932	0,137385
3,177839	578,300511	64,083	0,135666
3,171796	574,276129	64,234	0,133919
3,165918	569,459695	64,387	0,131829
3,159866	565,740207	64,543	0,130214
3,153919	561,351301	64,699	0,128310
3,147883	557,509181	64,850	0,126642
3,141882	552,692747	65,000	0,124552
3,135966	548,668365	65,158	0,122805
3,129890	543,851932	65,309	0,120715
3,123893	540,315830	65,461	0,119180
3,117938	536,169940	65,622	0,117381
3,111902	531,170120	65,772	0,115211
3,105899	527,207616	65,934	0,113491
3,099931	522,756831	66,085	0,111560
3,093884	518,671695	66,235	0,109787
3,087964	514,281664	66,386	0,107881
3,081892	510,014266	66,538	0,106029
3,075901	506,050637	66,698	0,104309
3,069922	501,783239	66,877	0,102457
3,063894	497,149068	67,027	0,100446
3,057903	493,552212	67,184	0,098885
3,051955	488,796533	67,334	0,096821
3,045952	484,589889	67,484	0,094995
3,039876	480,565506	67,635	0,093249
3,033996	475,870581	67,786	0,091211
3,027903	471,541304	67,937	0,089332
3,021944	467,152398	68,087	0,087427
3,015973	463,798558	68,238	0,085972
3,009944	458,860617	68,389	0,083829
3,003923	454,592094	68,542	0,081976
2,997879	450,872606	68,692	0,080362
2,991915	446,116926	68,858	0,078298
2,985901	442,032915	69,010	0,076525
2,979904	437,703638	69,175	0,074646
2,973914	433,557748	69,327	0,072847
2,969908	430,203908	69,478	0,071392
2,975976	434,838080	69,641	0,073403
2,981964	439,471126	69,792	0,075414
2,987934	442,885720	69,973	0,076896
2,993904	447,519891	70,123	0,078907
2,999899	452,031430	70,277	0,080865
3,005913	456,421461	70,438	0,082770
3,011928	460,811492	70,589	0,084675
3,017960	464,773996	70,745	0,086395
3,023930	468,675745	70,896	0,088088
3,029918	473,431425	71,047	0,090152
3,035893	477,760702	71,201	0,092031
3,041902	482,272240	71,351	0,093989
3,047941	486,967166	71,512	0,096027
3,053896	490,686654	71,681	0,097641
3,059893	494,649158	71,831	0,099361
3,065911	499,404837	71,985	0,101425
3,071914	502,942063	72,137	0,102960
3,077959	507,575110	72,290	0,104971
3,083897	511,476860	72,474	0,106664
3,089918	516,598187	72,624	0,108887
3,095951	520,317675	72,780	0,110501
3,101932	524,951847	72,931	0,112512
3,107907	529,097737	73,083	0,114312
3,113857	533,304381	73,243	0,116137
3,119921	537,084623	73,395	0,117778
3,125906	541,596162	73,546	0,119736
3,131894	546,169580	73,696	0,121721
3,137932	550,681119	73,848	0,123679
3,143890	554,461361	74,000	0,125319
3,149907	558,545372	74,151	0,127092
3,155872	562,935403	74,301	0,128997
3,161868	567,082418	74,451	0,130797
3,167890	571,532078	74,602	0,132728
3,173903	575,679093	74,754	0,134528
3,179868	579,946492	74,904	0,136380
3,185879	584,946312	75,054	0,138550
3,191904	588,603921	75,210	0,140137
3,197906	592,933198	75,360	0,142016
3,203948	596,591932	75,512	0,143604
3,209907	601,408365	75,669	0,145694
3,215907	606,285552	75,819	0,147811
3,221959	610,187302	75,970	0,149504
3,227854	614,211685	76,121	0,151251
3,233840	618,236067	76,272	0,152998
3,239888	622,137817	76,437	0,154691
3,245921	626,222953	76,589	0,156464
3,251879	630,368844	76,739	0,158263
3,257858	635,003015	76,891	0,160274
3,263848	638,904765	77,042	0,161968
3,269898	643,416304	77,197	0,163926
3,275860	647,440686	77,347	0,165672
3,281879	652,257119	77,497	0,167763
3,287920	656,220748	77,648	0,169483
3,293915	660,793041	77,799	0,171467
3,299890	665,426087	77,949	0,173478
3,305928	669,024068	78,100	0,175040
3,311911	673,230712	78,250	0,176865
3,317849	677,376602	78,406	0,178665
3,323854	682,010774	78,556	0,180676
3,329881	685,851770	78,706	0,182343
3,335841	691,156484	78,863	0,184645
3,341881	695,058234	79,015	0,186338
3,347841	698,533581	79,170	0,187847
3,353853	703,105874	79,321	0,189831
3,359859	707,191010	79,474	0,191604
3,365859	711,336901	79,643	0,193403
3,371856	716,458228	79,793	0,195626
3,377888	720,299224	79,943	0,197293
3,383880	724,141345	80,093	0,198960
3,389845	727,859708	80,244	0,200574
3,395862	732,981036	80,395	0,202797
3,401837	736,456383	80,546	0,204305
3,407800	740,846414	80,698	0,206210
3,413839	745,009181	80,848	0,208017
3,419822	749,443089	80,998	0,209941
3,425808	753,101824	81,148	0,211529
3,431792	757,918257	81,299	0,213620
3,437891	761,698499	81,450	0,215260
3,443830	766,026651	81,610	0,217139
3,449788	770,295174	81,762	0,218991
3,455864	774,380310	81,913	0,220764
3,461821	778,465447	82,064	0,222537
3,467892	782,550583	82,215	0,224310
3,473910	786,513087	82,375	0,226030
3,479774	791,878555	82,526	0,228358
3,485844	795,475410	82,677	0,229919
3,491820	799,743934	82,842	0,231772
3,497824	803,462297	82,992	0,233386
3,503857	808,157222	83,153	0,235423
3,509802	812,547253	83,323	0,237329
3,515800	816,449003	83,473	0,239022
3,521804	820,839034	83,626	0,240927
3,527866	825,350572	83,777	0,242885
3,533837	828,887799	83,928	0,244420
3,539865	832,484654	84,100	0,245981
3,545820	837,301087	84,251	0,248072
3,551821	841,142083	84,401	0,249739
3,557820	845,166466	84,551	0,251485
3,563839	849,617251	84,703	0,253417
3,569821	853,274860	84,855	0,255004
3,575837	857,787523	85,005	0,256963
3,581824	861,750027	85,155	0,258683
3,587801	866,566460	85,305	0,260773
3,593766	869,859546	85,455	0,262202
3,599817	874,554471	85,605	0,264240
3,605819	879,187518	85,755	0,266250
3,611859	882,602112	85,905	0,267732
3,617806	886,625369	86,056	0,269479
3,623763	891,685943	86,206	0,271675
3,629827	895,405431	86,357	0,273289
3,635834	899,064165	86,508	0,274877
3,641832	905,100176	86,660	0,277497
3,647820	908,697032	86,821	0,279058
3,653817	912,721414	86,972	0,280804
3,659807	918,147636	87,122	0,283159
3,665827	921,439597	87,278	0,284588
3,669770	924,914945	87,431	0,286096
3,669771	924,488542	87,590	0,285911
3,669817	924,305156	87,744	0,285832
3,669773	924,488542	87,896	0,285911
3,669838	924,367034	88,052	0,285858
3,669841	924,610050	88,202	0,285964
3,669764	924,549296	88,356	0,285938
3,669796	924,549296	88,506	0,285938
3,669818	924,183648	88,657	0,285779
3,669786	924,122894	88,823	0,285752
3,669737	924,367034	88,975	0,285858
3,669792	924,426663	89,125	0,285884
3,669812	923,939507	89,279	0,285673
3,669835	924,183648	89,434	0,285779
3,669804	924,000261	89,594	0,285699
3,669773	924,367034	89,745	0,285858
3,669767	924,367034	89,901	0,285858
3,669807	924,793437	90,051	0,286043
3,669780	923,634613	90,202	0,285541
3,669777	923,695367	90,355	0,285567
3,669784	924,061015	90,505	0,285726
3,669761	924,244402	90,656	0,285805
3,669733	924,244402	90,808	0,285805
3,669838	923,939507	90,959	0,285673
3,669814	924,549296	91,111	0,285938
3,669848	923,939507	91,261	0,285673
3,669748	924,305156	91,412	0,285832
3,669797	924,061015	91,562	0,285726
3,669845	923,817999	91,712	0,285620
3,669822	924,488542	91,863	0,285911
3,669848	924,305156	92,014	0,285832
3,669806	924,000261	92,165	0,285699
3,669833	924,122894	92,315	0,285752
3,669812	924,000261	92,481	0,285699
3,663836	919,732863	92,648	0,283847
3,657817	915,464340	92,802	0,281995
3,651798	910,160750	92,964	0,279693
3,645774	906,075614	93,115	0,277920
3,639762	901,380688	93,267	0,275882
3,633786	896,746517	93,418	0,273871
3,627778	892,662505	93,572	0,272099
3,621827	888,149842	93,725	0,270140
3,615853	883,821690	93,876	0,268262
3,609845	879,066010	94,043	0,266198
3,603810	874,797487	94,194	0,264345
3,597823	870,712351	94,348	0,262572
3,591847	866,017425	94,500	0,260535
3,585903	860,713836	94,650	0,258233
3,579820	857,604137	94,801	0,256883
3,573755	852,482809	94,952	0,254661
3,567822	847,971270	95,105	0,252703
3,561791	843,520485	95,255	0,250771
3,555824	839,130454	95,412	0,248866
3,549881	834,679669	95,564	0,246934
3,543824	830,655287	95,715	0,245188
3,537817	826,082994	95,871	0,243203
3,531821	822,119366	96,028	0,241483
3,525831	817,486319	96,179	0,239472
3,519781	812,791394	96,331	0,237435
3,513806	808,583624	96,483	0,235608
3,507869	804,681875	96,634	0,233915
3,501848	800,048828	96,784	0,231904
3,495802	795,841059	96,934	0,230078
3,489847	791,634415	97,092	0,228252
3,483854	787,183630	97,252	0,226321
3,477861	782,916232	97,405	0,224469
3,471852	779,013357	97,555	0,222775
3,465823	774,319556	97,705	0,220738
3,459858	770,295174	97,855	0,218991
3,453857	766,149284	98,006	0,217192
3,447797	761,880760	98,156	0,215339
3,441832	757,795624	98,306	0,213566
3,435875	753,284085	98,464	0,211608
3,429837	748,590285	98,615	0,209571
3,423868	744,321762	98,766	0,207719
3,417859	740,785660	98,918	0,206184
3,411854	736,090735	99,069	0,204146
3,405906	731,518442	99,239	0,202162
3,399872	727,859708	99,390	0,200574
3,393857	723,469677	99,547	0,198669
3,387850	719,628681	99,697	0,197002
3,381876	715,726932	99,847	0,195309
3,375823	710,848619	100,001	0,193191
3,369836	706,215573	100,153	0,191181
3,363929	702,251944	100,305	0,189460
3,357853	698,167933	100,455	0,187688
3,351910	693,289621	100,607	0,185571
3,345874	689,509379	100,759	0,183930
3,339865	684,815578	100,911	0,181893
3,333893	680,912703	101,063	0,180199
3,327855	676,522672	101,225	0,178294
3,321814	672,132641	101,375	0,176389
3,315909	668,840681	101,525	0,174960
3,309915	663,780107	101,693	0,172764
3,303848	659,512709	101,843	0,170912
3,297835	655,793221	102,002	0,169297
3,291880	650,916034	102,154	0,167181
3,285937	646,647510	102,304	0,165328
3,279837	642,380112	102,481	0,163476
3,273901	638,416484	102,631	0,161756
3,269919	635,306785	102,787	0,160406
3,275865	639,819448	102,927	0,162365
3,281888	644,026093	103,077	0,164190
3,287886	648,537631	103,241	0,166148
3,293929	652,378627	103,392	0,167815
3,299943	656,952045	103,553	0,169800
3,305862	661,280197	103,704	0,171679
3,311853	665,304579	103,854	0,173425
3,317856	669,816118	104,004	0,175383
3,323911	673,718993	104,154	0,177077
3,329870	678,535426	104,304	0,179167
3,335897	682,315668	104,467	0,180808
3,341894	686,705699	104,617	0,182713
3,347921	690,668203	104,769	0,184433
3,353915	695,118988	104,920	0,186365
3,359904	699,996175	105,072	0,188481
3,365938	704,264698	105,245	0,190334
3,371914	708,776237	105,400	0,192292
3,377911	712,617233	105,552	0,193959
3,383939	716,885756	105,702	0,195812
3,389843	720,604119	105,852	0,197425
3,395863	725,116782	106,006	0,199384
3,401866	729,566442	106,166	0,201315
3,407892	734,200614	106,317	0,203326
3,413928	738,712153	106,468	0,205284
3,419823	742,249379	106,619	0,206819
3,425887	746,272636	106,770	0,208565
3,431848	750,418527	106,921	0,210365
3,437860	755,601734	107,071	0,212614
3,443848	759,564237	107,222	0,214334
3,449845	763,405233	107,375	0,216001
3,455899	767,490369	107,525	0,217774
3,461873	772,367557	107,677	0,219891
3,467848	776,331185	107,834	0,221611
3,473880	780,354443	107,997	0,223357
3,479895	785,293509	108,148	0,225500
3,485842	789,317891	108,298	0,227247
3,491878	793,403028	108,465	0,229020
3,497839	797,975320	108,615	0,231004
3,503893	802,121211	108,767	0,232804
3,509823	806,389734	108,918	0,234656
3,515851	810,901273	109,070	0,236614
3,521870	815,291304	109,221	0,238520
3,527836	817,973475	109,371	0,239684
3,533871	824,192873	109,522	0,242383
3,539874	827,363326	109,673	0,243759
3,545813	832,484654	109,828	0,245981
3,551897	836,447158	109,989	0,247701
3,557876	841,446978	110,140	0,249871
3,563859	845,653622	110,290	0,251697
3,569827	850,348547	110,447	0,253734
3,575842	854,982719	110,604	0,255746
3,581831	859,494258	110,765	0,257704
3,587835	864,005796	110,916	0,259662
3,593875	868,151687	111,075	0,261461
3,599851	872,420210	111,235	0,263313
3,605877	876,810241	111,386	0,265219
3,611846	881,443287	111,549	0,267229
3,617845	886,321600	111,700	0,269347
3,623806	890,284103	111,863	0,271066
3,629820	894,918275	112,016	0,273078
3,635848	898,636638	112,167	0,274691
3,641810	904,185493	112,317	0,277100
3,647838	908,147996	112,467	0,278819
3,653901	912,842922	112,617	0,280857
3,659845	917,598601	112,768	0,282921
3,665879	922,354281	112,919	0,284985
3,671835	926,683558	113,074	0,286864
3,677817	930,829448	113,228	0,288663
3,683856	935,767389	113,380	0,290806
3,689874	939,913279	113,531	0,292605
3,695824	944,303310	113,684	0,294511
3,701826	947,840537	113,848	0,296046
3,707792	952,839232	114,023	0,298215
3,713854	957,839052	114,175	0,300385
3,719825	962,045696	114,329	0,302211
3,725837	966,801375	114,497	0,304275
3,731792	970,765004	114,660	0,305995
3,737836	975,520683	114,820	0,308059
3,743804	980,519378	114,971	0,310229
3,749890	984,543761	115,127	0,311975
3,755818	989,360194	115,291	0,314065
3,761837	993,445331	115,441	0,315838
3,767825	999,359834	115,594	0,318405
3,773878	1003,443845	115,746	0,320178
3,779780	1007,163333	115,901	0,321792
3,785852	1011,736751	116,086	0,323777
3,791848	1016,248290	116,237	0,325735
3,797837	1021,125477	116,387	0,327852
3,803853	1025,881156	116,537	0,329916
3,809865	1030,210433	116,689	0,331794
3,815815	1034,905359	116,864	0,333832
3,821864	1038,867863	117,016	0,335552
3,827868	1043,928436	117,167	0,337748
3,833877	1048,744870	117,317	0,339838
3,839796	1053,013393	117,478	0,341691
3,845790	1057,159283	117,658	0,343490
3,851878	1062,280611	117,816	0,345713
3,857786	1066,731396	117,969	0,347645
3,863835	1071,365567	118,120	0,349656
3,869809	1075,632966	118,273	0,351508
3,875822	1080,815047	118,429	0,353757
3,881824	1083,742485	118,579	0,355027
3,887836	1089,839250	118,730	0,357673
3,893765	1094,655683	118,895	0,359764
3,899655	1099,167222	119,046	0,361722
3,905830	1103,374991	119,197	0,363548
3,911748	1107,886530	119,348	0,365506
3,917832	1112,885225	119,504	0,367675
3,923818	1117,031115	119,671	0,369475
3,929818	1121,665287	119,822	0,371486
3,935782	1126,725860	119,997	0,373682
3,941805	1130,627610	120,149	0,375375
3,947771	1136,297973	120,307	0,377836
3,953775	1140,322356	120,470	0,379583
3,959839	1144,589754	120,620	0,381435
3,965770	1149,650328	120,771	0,383631
3,971830	1154,284499	120,921	0,385643
3,977821	1158,674530	121,074	0,387548
3,983829	1163,735104	121,225	0,389744
3,989800	1166,905557	121,375	0,391120
3,995791	1172,331779	121,526	0,393475
4,001831	1176,904072	121,690	0,395459
4,007798	1181,659751	121,841	0,397523
4,013788	1185,561501	122,007	0,399217
4,019780	1190,682829	122,159	0,401439
4,025870	1195,317000	122,309	0,403451
4,031781	1200,133434	122,468	0,405541
4,037803	1204,889113	122,619	0,407605
4,043751	1209,341023	122,785	0,409537
4,049786	1214,156331	122,936	0,411627
4,055765	1217,937698	123,088	0,413268
4,061761	1223,059026	123,249	0,415491
4,067825	1227,509811	123,401	0,417422
4,069782	1229,095037	123,559	0,418110
4,069757	1229,095037	123,710	0,418110
4,069788	1229,339178	123,862	0,418216
4,069821	1228,850896	124,017	0,418004
4,069759	1228,606756	124,168	0,417898
4,069734	1229,155791	124,324	0,418137
4,069852	1228,850896	124,475	0,418004
4,069798	1228,485248	124,629	0,417846
4,069792	1228,790143	124,780	0,417978
4,069803	1228,850896	124,932	0,418004
4,069839	1229,095037	125,082	0,418110
4,069811	1228,972404	125,249	0,418057
4,069767	1228,972404	125,406	0,418057
4,069820	1229,216545	125,570	0,418163
4,069728	1228,546002	125,720	0,417872
4,069811	1228,301861	125,879	0,417766
4,069742	1228,180354	126,030	0,417713
4,069751	1228,667510	126,180	0,417925
4,069836	1227,631318	126,330	0,417475
4,069799	1228,850896	126,500	0,418004
4,069836	1228,118475	126,650	0,417687
4,069778	1228,729389	126,815	0,417952
4,069782	1227,875459	126,967	0,417581
4,069778	1228,180354	127,124	0,417713
4,069834	1228,180354	127,275	0,417713
4,069767	1227,936213	127,426	0,417607
4,069793	1228,301861	127,577	0,417766
4,069795	1228,301861	127,729	0,417766
4,069799	1227,692072	127,879	0,417501
4,069817	1228,546002	128,032	0,417872
4,069825	1227,814705	128,183	0,417555
4,069827	1228,362615	128,334	0,417792
4,069816	1228,241107	128,493	0,417740
4,067835	1227,021529	128,643	0,417210
4,061815	1222,814885	128,796	0,415385
4,055777	1217,510171	128,948	0,413083
4,049846	1213,303526	129,108	0,411257
4,043774	1208,121445	129,263	0,409008
4,037851	1203,609906	129,416	0,407050
4,031807	1199,462891	129,567	0,405250
4,025802	1194,402317	129,717	0,403054
4,019769	1188,976094	129,872	0,400699
4,013814	1185,135099	130,023	0,399032
4,007801	1180,136404	130,173	0,396862
4,001811	1175,502232	130,323	0,394851
3,995741	1170,015256	130,473	0,392470
3,989850	1165,868241	130,623	0,390670
3,983775	1161,235194	130,775	0,388659
3,977774	1156,845163	130,927	0,386754
3,971755	1153,064921	131,078	0,385113
3,965813	1147,577945	131,229	0,382732
3,959843	1142,456617	131,384	0,380509
3,953773	1137,700938	131,534	0,378445
3,947789	1133,615801	131,691	0,376672
3,941857	1128,920876	131,846	0,374635
3,935832	1123,860302	132,018	0,372438
3,929834	1119,288009	132,169	0,370454
3,923816	1115,142119	132,320	0,368655
3,917780	1109,958912	132,470	0,366405
3,911847	1105,568881	132,621	0,364500
3,905816	1100,875081	132,774	0,362463
3,899809	1096,240909	132,925	0,360452
3,893836	1091,911632	133,077	0,358573
3,887808	1086,303148	133,229	0,356139
3,881826	1082,218012	133,383	0,354366
3,875825	1077,949489	133,534	0,352513
3,869830	1072,645899	133,686	0,350211
3,863792	1068,195114	133,836	0,348280
3,857862	1063,256048	133,987	0,346136
3,851780	1059,415053	134,137	0,344469
3,845798	1054,903514	134,287	0,342511
3,839800	1050,390850	134,439	0,340553
3,833836	1045,087261	134,590	0,338251
3,827826	1041,185511	134,740	0,336558
3,821832	1036,612093	134,891	0,334573
3,815838	1031,795660	135,042	0,332482
3,809828	1027,344875	135,237	0,330551
3,803843	1022,894090	135,387	0,328619
3,797832	1017,894270	135,538	0,326449
3,791837	1013,138591	135,695	0,324385
3,785806	1009,358349	135,847	0,322745
3,779899	1004,115513	136,010	0,320469
3,773819	1000,091131	136,162	0,318723
3,767856	995,396205	136,313	0,316685
3,761842	990,579772	136,492	0,314595
3,755820	986,007479	136,643	0,312610
3,749844	981,617449	136,796	0,310705
3,743793	976,861769	136,946	0,308641
3,737775	973,020773	137,098	0,306974
3,731817	967,837567	137,253	0,304725
3,725879	963,570168	137,404	0,302873
3,719852	958,631102	137,555	0,300729
3,713848	954,973493	137,713	0,299142
3,707865	949,790287	137,865	0,296892
3,701862	945,888537	138,038	0,295199
3,695879	941,255490	138,201	0,293188
3,689866	936,499811	138,351	0,291124
3,683820	932,536182	138,503	0,289404
3,677816	927,902011	138,654	0,287393
3,671856	923,329718	138,811	0,285408
3,665865	918,818179	138,965	0,283450
3,659880	914,733043	139,117	0,281677
3,653812	908,941172	139,281	0,279164
3,647834	905,465825	139,441	0,277655
3,641880	900,893532	139,602	0,275671
3,635815	896,441622	139,753	0,273739
3,629795	891,747822	139,903	0,271702
3,623837	888,210595	140,072	0,270167
3,617855	883,394162	140,223	0,268076
3,611837	879,187518	140,391	0,266250
3,605860	874,310331	140,543	0,264134
3,599859	869,676159	140,704	0,262123
3,593839	865,713656	140,872	0,260403
3,587798	860,835343	141,023	0,258286
3,581840	855,653262	141,182	0,256037
3,575874	852,238668	141,333	0,254555
3,569832	847,422235	141,493	0,252464
3,563834	842,910696	141,649	0,250506
3,557875	839,007822	141,800	0,248812
3,551831	834,863056	141,952	0,247014
3,545833	829,923990	142,102	0,244870
3,539803	826,082994	142,254	0,243203
3,533890	821,204682	142,414	0,241086
3,527865	816,876530	142,565	0,239208
3,521849	812,912901	142,725	0,237487
3,515910	808,523996	142,884	0,235583
3,509916	804,133965	143,035	0,233677
3,503880	800,170336	143,193	0,231957
3,497832	795,475410	143,345	0,229919
3,491865	791,634415	143,507	0,228252
3,485888	786,878735	143,663	0,226188
3,479896	782,793599	143,814	0,224416
3,473901	778,647708	143,974	0,222616
3,467923	774,075416	144,125	0,220632
3,461877	769,867647	144,281	0,218806
3,455901	765,844389	144,434	0,217060
3,449880	761,393604	144,585	0,215128
3,443896	757,186960	144,735	0,213302
3,437880	753,162577	144,886	0,211556
3,431915	748,772546	145,036	0,209650
3,425867	743,895359	145,196	0,207534
3,419939	740,236625	145,347	0,205946
3,413857	736,395629	145,498	0,204279
3,407878	731,335055	145,662	0,202083
3,401900	727,676321	145,812	0,200495
3,395909	723,226662	145,963	0,198563
3,389931	719,385666	146,127	0,196896
3,383905	715,056389	146,282	0,195018
3,377905	710,544850	146,445	0,193060
3,371865	706,033311	146,596	0,191102
3,365922	702,374577	146,751	0,189514
3,359926	698,289441	146,901	0,187741
3,353886	694,082796	147,053	0,185915
3,347856	689,265238	147,220	0,183824
3,341891	684,753699	147,373	0,181866
3,335914	680,668563	147,523	0,180093
3,329905	676,828692	147,688	0,178427
3,323916	672,316028	147,839	0,176468
3,317906	667,925997	147,996	0,174563
3,311926	663,719353	148,146	0,172737
3,305868	659,694970	148,299	0,170991
3,299883	655,304940	148,477	0,169085
3,293870	650,549260	148,628	0,167021
3,287919	646,526003	148,797	0,165275
3,281907	642,928022	148,964	0,163714
3,275903	638,660624	149,115	0,161862
3,269902	633,660804	149,272	0,159692
3,263924	629,698301	149,422	0,157972
3,257921	625,491656	149,572	0,156146
3,251917	621,344641	149,728	0,154347
3,245865	617,137997	149,879	0,152521
3,239870	612,809845	150,043	0,150643
3,233885	608,846216	150,194	0,148922
3,227905	604,395431	150,344	0,146991
3,221889	600,188787	150,497	0,145165
3,215952	596,652686	150,648	0,143630
3,209943	591,469479	150,799	0,141381
3,203925	587,567729	150,949	0,139687
3,197945	582,995437	151,110	0,137703
3,191937	578,971054	151,279	0,135957
3,185910	574,338008	151,431	0,133946
3,179868	570,435133	151,581	0,132252
3,173939	565,740207	151,731	0,130214
3,167932	561,959965	151,881	0,128574
3,161943	557,814075	152,039	0,126774
3,155990	553,485923	152,190	0,124896
3,149987	549,035138	152,341	0,122964
3,143943	545,071510	152,506	0,121244
3,137911	540,620725	152,667	0,119313
3,131937	536,596342	152,826	0,117566
3,125955	532,024050	152,978	0,115582
3,119961	527,878159	153,132	0,113782
3,113926	523,061726	153,294	0,111692
3,107946	518,915836	153,444	0,109893
3,101972	515,317855	153,594	0,108331
3,095931	511,111211	153,744	0,106505
3,089925	506,173270	153,896	0,104362
3,083935	502,209641	154,054	0,102642
3,077971	498,186384	154,206	0,100896
3,071982	493,796353	154,357	0,098991
3,065971	489,101427	154,514	0,096953
3,059951	485,686834	154,669	0,095471
3,053993	483,065416	154,837	0,094333
3,047925	477,150913	154,989	0,091767
3,041886	472,516741	155,140	0,089755
3,035941	468,065956	155,292	0,087824
3,029920	464,713242	155,443	0,086369
3,023908	459,652668	155,614	0,084172
3,017929	455,811672	155,766	0,082505
3,011925	451,543149	155,917	0,080653
3,005928	447,764032	156,081	0,079013
2,999907	442,824966	156,232	0,076869
2,993959	439,167357	156,394	0,075282
2,987919	434,715447	156,544	0,073350
2,981910	429,777506	156,695	0,071207
2,975932	425,874631	156,859	0,069513
2,969942	421,424971	157,011	0,067582
2,963955	417,461343	157,163	0,065861
2,957933	413,315452	157,322	0,064062
2,951919	409,108808	157,473	0,062236
2,945941	404,230496	157,645	0,060119
2,939935	400,694394	157,795	0,058584
2,933964	395,756453	157,946	0,056441
2,927970	391,243790	158,099	0,054483
2,921956	387,220532	158,251	0,052737
2,915934	383,256903	158,412	0,051017
2,909985	379,050259	158,563	0,049191
2,903962	374,720982	158,713	0,047312
2,897934	370,209443	158,878	0,045354
2,891922	366,185061	159,029	0,043607
2,885979	361,796155	159,184	0,041703
2,879926	357,040476	159,334	0,039639
2,873935	354,235671	159,485	0,038421
2,867993	348,565308	159,656	0,035960
2,862022	345,089961	159,807	0,034452
2,855980	340,517668	159,958	0,032468
2,849962	336,798180	160,109	0,030854
2,843971	332,224762	160,264	0,028869
2,837978	328,749415	160,436	0,027360
2,831969	323,993736	160,588	0,025296
2,825959	319,238056	160,739	0,023232
2,819949	315,336307	160,908	0,021539
2,813968	310,459119	161,068	0,019422
2,807961	306,373983	161,229	0,017649
2,801994	302,349600	161,380	0,015903
2,795957	297,411659	161,538	0,013760
2,789977	293,508785	161,698	0,012066
2,783959	289,180633	161,849	0,010188
2,777991	284,973988	162,003	0,008362
2,771993	281,193746	162,153	0,006721
2,765954	276,925223	162,303	0,004869
2,759980	272,230298	162,457	0,002831
2,753996	267,962900	162,607	0,000979
2,747959	263,877763	162,762	-0,000794
2,741925	259,976013	162,943	-0,002487
2,735981	255,646736	163,100	-0,004366
2,729990	251,440092	163,257	-0,006192
2,723976	247,720604	163,407	-0,007806
2,717968	242,964925	163,563	-0,009870
2,711993	238,879788	163,713	-0,011643
2,705940	234,733898	163,864	-0,013442
2,699977	229,734078	164,023	-0,015612
2,694005	225,893082	164,173	-0,017279
2,687982	222,112840	164,323	-0,018920
2,681967	217,114145	164,483	-0,021089
2,675956	213,029009	164,633	-0,022862
2,669987	207,907681	164,784	-0,025085
2,664041	203,883299	164,955	-0,026832
2,657966	199,127619	165,106	-0,028896
2,651959	194,737588	165,262	-0,030801
2,645965	191,079979	165,412	-0,032388
2,639991	186,750702	165,563	-0,034267
2,633976	183,214601	165,717	-0,035802
2,628000	178,398167	165,869	-0,037892
2,621941	174,556047	166,045	-0,039560
2,616013	169,983754	166,197	-0,041544
2,609994	166,386899	166,348	-0,043105
2,603972	161,691973	166,513	-0,045143
2,597959	157,485329	166,665	-0,046968
2,591982	153,887349	166,817	-0,048530
2,585987	148,888654	166,967	-0,050699
2,579941	144,985779	167,118	-0,052393
2,573979	140,352733	167,290	-0,054404
2,567968	135,718561	167,441	-0,056415
2,561998	132,121706	167,591	-0,057976
2,556023	127,426780	167,751	-0,060014
2,550010	123,036749	167,903	-0,061919
2,543962	119,074246	168,059	-0,063639
2,537925	114,867602	168,209	-0,065464
2,531989	110,659832	168,368	-0,067291
2,526029	106,453188	168,519	-0,069116
2,519961	101,880895	168,669	-0,071101
2,513947	98,161407	168,819	-0,072715
2,507989	93,832130	168,971	-0,074594
2,501955	89,503978	169,124	-0,076472
2,495982	84,930561	169,283	-0,078457
2,489988	80,723916	169,433	-0,080283
2,483972	76,882921	169,602	-0,081950
2,477989	71,883101	169,753	-0,084120
2,471995	67,797964	169,904	-0,085893
2,465994	63,712828	170,061	-0,087666
2,459966	59,445430	170,212	-0,089518
2,453998	55,299539	170,364	-0,091317
2,448009	50,481981	170,514	-0,093408
2,441958	46,947005	170,664	-0,094942
2,435973	42,129446	170,818	-0,097033
2,429999	37,313013	170,970	-0,099123
2,423991	33,472017	171,123	-0,100790
2,417970	29,691775	171,307	-0,102431
2,411940	24,996850	171,457	-0,104468
2,405942	21,339241	171,613	-0,106056
2,399930	17,070718	171,765	-0,107908
2,393977	12,437671	171,915	-0,109919
2,387936	8,231027	172,068	-0,111745
2,381959	3,779117	172,219	-0,113677
2,375992	-0,488281	172,370	-0,115529
2,369960	-4,512664	172,533	-0,117275
2,363921	-8,719308	172,683	-0,119101
2,358001	-13,291601	172,851	-0,121085
2,351983	-18,048405	173,001	-0,123150
2,345973	-22,010909	173,159	-0,124870
2,339915	-25,851905	173,330	-0,126537
2,334029	-30,058549	173,482	-0,128362
2,327974	-34,143685	173,658	-0,130135
2,322004	-39,509154	173,808	-0,132464
2,315966	-43,350149	173,959	-0,134131
2,309987	-47,374532	174,125	-0,135877
2,303942	-52,190965	174,276	-0,137968
2,298011	-56,215348	174,447	-0,139714
2,291957	-60,482746	174,599	-0,141566
2,285938	-64,812023	174,750	-0,143445
2,280011	-13,048585	174,909	-0,120980
2,273963	-17,804264	175,061	-0,123044
2,267993	-20,730577	175,225	-0,124314
2,261950	-23,717643	175,383	-0,125610
2,255953	-25,607764	175,545	-0,126431
2,249957	-23,656889	175,701	-0,125584
2,243951	-24,083291	175,853	-0,125769
2,237949	-25,973412	176,025	-0,126589
2,231976	-28,351815	176,175	-0,127622
2,226018	-29,814408	176,325	-0,128256
2,219921	-30,546830	176,493	-0,128574
2,213941	-31,643775	176,643	-0,129050
2,207975	-33,778037	176,818	-0,129977
2,201925	-34,692720	176,969	-0,130374
2,195947	-33,838791	177,119	-0,130003
2,189982	-34,935736	177,278	-0,130479
2,183964	-36,825857	177,429	-0,131299
2,177990	-38,472962	177,580	-0,132014
2,171920	-25,791151	177,755	-0,126510
2,166003	-25,791151	177,907	-0,126510
2,159969	-26,766588	178,075	-0,126934
2,153971	-20,060034	178,226	-0,124023
2,147978	-14,571933	178,377	-0,121641
2,141963	-11,950515	178,559	-0,120503
2,135982	-12,499550	178,709	-0,120742
2,129973	-5,975257	178,873	-0,117910
2,123952	-7,012574	179,024	-0,118360
2,117955	-3,171578	179,175	-0,116693
2,111951	-3,719488	179,354	-0,116931
2,106013	-3,658734	179,506	-0,116905
2,100023	-2,804805	179,672	-0,116534
2,094004	-2,865558	179,823	-0,116561
2,087967	-1,586352	179,999	-0,116005
2,081950	-0,122633	180,149	-0,115370
2,075928	-0,549035	180,301	-0,115555
2,069963	-0,306020	180,475	-0,115450