File: Nanoindentation Datenauswertung/data/Test Measurement/partial unload on sapphire-3,50ms-2
Quasi static measurement routine
Tip parameters (shape,radius, material...)
28.06.2022

Piezo position[nm]	MEMS displ.[nm]	Time[ms]	Cap [pf]
eoh
4,299881	0,119851	0,060	-0,089227
4,302606	-8,419522	0,177	-0,092984
4,305653	-9,622470	0,328	-0,093513
4,308608	-9,141957	0,478	-0,093302
4,311587	-8,720259	0,630	-0,093116
4,314645	-8,781294	0,781	-0,093143
4,317654	-9,441584	0,932	-0,093434
4,320642	-8,359597	1,083	-0,092958
4,323641	-9,080922	1,234	-0,093275
4,326639	-9,502619	1,386	-0,093460
4,329629	-9,201882	1,537	-0,093328
4,332646	-9,682395	1,687	-0,093540
4,335648	-8,841220	1,838	-0,093169
4,338623	-8,961071	1,989	-0,093222
4,341656	-9,441584	2,141	-0,093434
4,344607	-8,540483	2,291	-0,093037
4,347612	-9,020996	2,442	-0,093249
4,350654	-9,382768	2,593	-0,093408
4,353644	-8,540483	2,743	-0,093037
4,356591	-9,141957	2,893	-0,093302
4,359642	-8,901145	3,044	-0,093196
4,362640	-9,080922	3,195	-0,093275
4,365608	-9,803356	3,347	-0,093593
4,368676	-9,261808	3,499	-0,093354
4,371635	-9,141957	3,649	-0,093302
4,374646	-8,781294	3,799	-0,093143
4,377622	-9,080922	3,949	-0,093275
4,380628	-8,841220	4,101	-0,093169
4,383636	-9,080922	4,253	-0,093275
4,386623	-9,382768	4,404	-0,093408
4,389648	-9,382768	4,555	-0,093408
4,392646	-7,638272	4,707	-0,092640
4,395646	-4,570978	4,858	-0,091291
4,398553	-2,105158	5,008	-0,090206
4,401611	1,803311	5,159	-0,088486
4,404574	4,089355	5,309	-0,087480
4,407621	6,854803	5,459	-0,086263
4,410601	9,862172	5,609	-0,084940
4,413638	13,350053	5,759	-0,083405
4,416578	15,996760	5,909	-0,082241
4,419614	19,424716	6,059	-0,080732
4,422591	21,709650	6,209	-0,079727
4,425644	24,715909	6,359	-0,078404
4,428626	28,083940	6,510	-0,076922
4,431608	31,091309	6,661	-0,075599
4,434605	34,097567	6,813	-0,074276
4,437592	37,706410	6,965	-0,072688
4,440612	39,750533	7,116	-0,071789
4,443624	43,058638	7,268	-0,070333
4,446628	45,404608	7,418	-0,069301
4,449579	48,531827	7,569	-0,067925
4,452587	51,838823	7,719	-0,066470
4,455614	54,726341	7,870	-0,065200
4,458591	58,093262	8,020	-0,063718
4,461597	60,439231	8,171	-0,062686
4,464608	64,046964	8,321	-0,061099
4,467617	66,392933	8,473	-0,060066
4,470609	69,699929	8,625	-0,058611
4,473615	71,685236	8,777	-0,057738
4,476581	75,413929	8,928	-0,056097
4,479600	78,961737	9,078	-0,054536
4,482585	80,525346	9,228	-0,053848
4,485586	84,674627	9,381	-0,052022
4,488582	87,561035	9,532	-0,050752
4,491569	90,688255	9,683	-0,049376
4,494623	93,454812	9,836	-0,048159
4,497562	96,462180	9,987	-0,046836
4,499628	99,709251	10,137	-0,045407
4,499568	100,009988	10,287	-0,045275
4,499595	99,408514	10,437	-0,045540
4,499596	100,009988	10,587	-0,045275
4,499595	99,468439	10,738	-0,045513
4,499572	99,408514	10,889	-0,045540
4,499640	99,288663	11,041	-0,045592
4,499643	99,890137	11,191	-0,045328
4,499569	99,769176	11,341	-0,045381
4,499622	99,468439	11,491	-0,045513
4,499644	99,348588	11,642	-0,045566
4,499606	99,468439	11,792	-0,045513
4,499548	99,829102	11,943	-0,045354
4,499583	99,107777	12,095	-0,045672
4,499623	99,649325	12,246	-0,045434
4,499600	99,227628	12,397	-0,045619
4,499651	99,890137	12,547	-0,045328
4,499592	99,168812	12,698	-0,045645
4,499586	98,928001	12,848	-0,045751
4,499566	99,288663	12,998	-0,045592
4,499633	99,227628	13,149	-0,045619
4,499577	99,589400	13,301	-0,045460
4,499627	99,168812	13,451	-0,045645
4,499561	99,950062	13,602	-0,045301
4,499541	99,769176	13,753	-0,045381
4,499596	99,649325	13,904	-0,045434
4,499610	99,649325	14,056	-0,045434
4,499571	99,468439	14,206	-0,045513
4,499608	99,227628	14,357	-0,045619
4,499604	99,589400	14,507	-0,045460
4,499606	100,009988	14,658	-0,045275
4,499649	99,709251	14,809	-0,045407
4,499554	99,408514	14,959	-0,045540
4,499610	99,649325	15,109	-0,045434
4,496633	97,063654	15,259	-0,046571
4,493621	94,777610	15,409	-0,047577
4,490585	91,289728	15,559	-0,049112
4,487614	89,305531	15,711	-0,049985
4,484635	85,336026	15,861	-0,051731
4,481561	81,848145	16,011	-0,053266
4,478567	79,382324	16,162	-0,054351
4,475579	76,074219	16,312	-0,055807
4,472623	73,008034	16,463	-0,057156
4,469593	70,602140	16,613	-0,058214
4,466593	67,234109	16,763	-0,059696
4,463537	64,347701	16,913	-0,060966
4,460614	60,678933	17,066	-0,062581
4,457560	58,213113	17,216	-0,063666
4,454586	55,266779	17,366	-0,064962
4,451663	52,320446	17,517	-0,066258
4,449646	49,434038	17,668	-0,067528
4,452630	50,936612	17,782	-0,066867
4,455578	54,184792	17,934	-0,065438
4,458590	57,612749	18,084	-0,063930
4,461586	60,258345	18,235	-0,062766
4,464617	63,686301	18,387	-0,061257
4,467602	66,572710	18,538	-0,059987
4,470625	69,098455	18,690	-0,058876
4,473628	72,045898	18,840	-0,057579
4,476619	76,015403	18,992	-0,055833
4,479558	78,059526	19,143	-0,054933
4,482585	81,186745	19,293	-0,053557
4,485536	84,433816	19,445	-0,052128
4,488581	87,321333	19,596	-0,050858
4,491591	90,568404	19,747	-0,049429
4,494595	93,454812	19,898	-0,048159
4,497527	96,522106	20,048	-0,046810
4,500607	99,468439	20,198	-0,045513
4,503579	102,535733	20,350	-0,044164
4,506578	105,603027	20,500	-0,042814
4,509593	107,587225	20,650	-0,041941
4,512607	111,196067	20,801	-0,040353
4,515571	114,082475	20,952	-0,039083
4,518595	117,149769	21,102	-0,037733
4,521666	119,554554	21,253	-0,036675
4,524618	123,103471	21,405	-0,035114
4,527562	125,328480	21,557	-0,034135
4,530584	128,696511	21,707	-0,032653
4,533533	131,522994	21,859	-0,031409
4,536570	133,688077	22,009	-0,030457
4,539591	137,596547	22,159	-0,028737
4,542611	140,723766	22,310	-0,027361
4,545567	143,009810	22,461	-0,026355
4,548510	146,737393	22,612	-0,024715
4,551558	150,165350	22,763	-0,023207
4,554522	154,194780	22,914	-0,021434
4,557543	155,819425	23,066	-0,020719
4,560529	158,945534	23,218	-0,019343
4,563579	162,434526	23,368	-0,017808
4,566578	164,779386	23,519	-0,016776
4,569580	168,388228	23,671	-0,015188
4,572589	171,093750	23,822	-0,013998
4,575501	174,642667	23,972	-0,012437
4,578590	177,108487	24,123	-0,011352
4,581602	180,595259	24,273	-0,009817
4,584553	183,422852	24,424	-0,008573
4,587572	185,948597	24,574	-0,007462
4,590584	188,954856	24,724	-0,006139
4,593560	191,841264	24,874	-0,004869
4,596501	195,029519	25,025	-0,003466
4,599621	198,216664	25,176	-0,002064
4,602587	200,862260	25,327	-0,000900
4,605569	204,230291	25,479	0,000582
4,608545	206,636186	25,630	0,001641
4,611581	209,582520	25,781	0,002937
4,614526	213,191362	25,932	0,004525
4,617539	215,476296	26,083	0,005530
4,620560	218,422630	26,234	0,006827
4,623633	221,069336	26,385	0,007991
4,626518	224,256481	26,537	0,009394
4,629496	227,503551	26,689	0,010822
4,632547	230,150257	26,841	0,011987
4,635501	232,856889	26,992	0,013178
4,638503	235,321600	27,144	0,014262
4,641498	239,110218	27,295	0,015929
4,644572	242,057662	27,446	0,017226
4,647487	245,244806	27,599	0,018628
4,650588	248,312100	27,749	0,019978
4,653556	251,198509	27,900	0,021248
4,656583	254,325728	28,052	0,022624
4,659481	256,671697	28,203	0,023656
4,662561	260,219505	28,355	0,025217
4,665543	263,527610	28,505	0,026673
4,668499	266,113281	28,656	0,027811
4,671604	269,661088	28,806	0,029372
4,674501	272,307795	28,956	0,030536
4,677568	275,373979	29,107	0,031885
4,680531	277,839799	29,257	0,032970
4,683514	281,207830	29,408	0,034452
4,686539	283,613725	29,560	0,035511
4,689512	286,920721	29,710	0,036966
4,692528	290,168901	29,860	0,038395
4,695552	292,694647	30,010	0,039506
4,698517	295,400169	30,160	0,040697
4,699528	298,287686	30,310	0,041967
4,699520	298,166726	30,460	0,041914
4,699501	298,166726	30,611	0,041914
4,699537	297,986950	30,762	0,041835
4,699549	298,166726	30,912	0,041914
4,699513	297,865989	31,064	0,041782
4,699554	297,625178	31,214	0,041676
4,699493	297,806064	31,365	0,041755
4,699522	297,986950	31,516	0,041835
4,699577	297,746138	31,667	0,041729
4,699510	297,324441	31,817	0,041543
4,699538	297,746138	31,968	0,041729
4,699515	297,986950	32,119	0,041835
4,699535	297,806064	32,270	0,041755
4,699529	298,046875	32,420	0,041861
4,699563	297,144664	32,570	0,041464
4,699517	297,264515	32,722	0,041517
4,699533	297,505327	32,873	0,041623
4,699504	297,505327	33,024	0,041623
4,699538	298,046875	33,176	0,041861
4,699536	297,445401	33,327	0,041597
4,699505	297,686213	33,478	0,041703
4,699526	297,625178	33,628	0,041676
4,699543	297,865989	33,778	0,041782
4,699570	297,686213	33,929	0,041703
4,699551	297,204590	34,079	0,041491
4,699527	297,565252	34,229	0,041649
4,699501	297,625178	34,380	0,041676
4,699534	297,746138	34,531	0,041729
4,699499	297,625178	34,682	0,041676
4,699527	297,385476	34,832	0,041570
4,699542	297,505327	34,984	0,041623
4,699557	298,287686	35,135	0,041967
4,698501	297,565252	35,286	0,041649
4,695515	294,497958	35,436	0,040300
4,692480	291,912287	35,587	0,039162
4,689566	288,364480	35,738	0,037601
4,686549	285,417037	35,891	0,036304
4,683503	282,470703	36,041	0,035008
4,680528	279,764071	36,191	0,033817
4,677535	276,817738	36,342	0,032521
4,674618	272,909268	36,493	0,030801
4,671545	270,443448	36,643	0,029716
4,668535	267,555930	36,793	0,028445
4,665570	265,030185	36,945	0,027334
4,662626	261,663263	37,095	0,025853
4,659585	258,896706	37,246	0,024635
4,656556	255,708452	37,398	0,023232
4,653498	252,642267	37,550	0,021883
4,650544	249,154386	37,701	0,020349
4,647520	246,327903	37,852	0,019105
4,644503	243,621271	38,004	0,017914
4,641548	240,253240	38,156	0,016432
4,638540	236,946245	38,306	0,014977
4,635590	233,998801	38,458	0,013680
4,632548	230,751731	38,608	0,012251
4,629550	227,925249	38,758	0,011008
4,626544	225,459428	38,908	0,009923
4,623519	222,392134	39,059	0,008573
4,620572	219,024103	39,209	0,007091
4,617571	216,679244	39,360	0,006060
4,614558	213,731800	39,511	0,004763
4,611613	210,243919	39,661	0,003228
4,608486	207,237660	39,812	0,001905
4,605544	203,328081	39,963	0,000185
4,602573	200,983221	40,113	-0,000847
4,599578	198,637251	40,263	-0,001879
4,601537	198,818137	40,377	-0,001799
4,604543	201,764471	40,529	-0,000503
4,607586	203,748668	40,679	0,000370
4,610532	207,718173	40,829	0,002117
4,613566	210,064142	40,980	0,003149
4,616589	213,552024	41,130	0,004684
4,619571	216,137695	41,281	0,005821
4,622503	219,145064	41,431	0,007145
4,625529	221,609775	41,581	0,008229
4,628568	225,338468	41,732	0,009870
4,631509	228,706499	41,883	0,011352
4,634628	231,112393	42,035	0,012410
4,637514	234,299538	42,186	0,013813
4,640585	237,426758	42,337	0,015188
4,643564	240,012429	42,487	0,016326
4,646527	243,079723	42,638	0,017676
4,649548	246,688565	42,789	0,019264
4,652593	249,274237	42,939	0,020401
4,655552	251,919833	43,089	0,021565
4,658560	254,265803	43,239	0,022598
4,661491	258,896706	43,390	0,024635
4,664566	261,422452	43,541	0,025747
4,667506	265,151145	43,692	0,027387
4,670541	267,376154	43,843	0,028366
4,673531	270,684260	43,993	0,029822
4,676522	273,029119	44,143	0,030854
4,679481	276,757812	44,293	0,032494
4,682524	279,704146	44,443	0,033791
4,685522	282,470703	44,595	0,035008
4,688532	286,199396	44,747	0,036648
4,691560	288,484331	44,901	0,037654
4,694525	292,153098	45,053	0,039268
4,697548	294,858620	45,203	0,040458
4,700508	297,445401	45,353	0,041597
4,703510	301,053134	45,505	0,043184
4,706474	303,699840	45,667	0,044349
4,709601	306,646174	45,817	0,045645
4,712505	309,232955	45,968	0,046783
4,715510	312,660911	46,119	0,048292
4,718568	315,547319	46,272	0,049562
4,721494	318,252841	46,423	0,050752
4,724528	321,680797	46,573	0,052260
4,727536	324,928977	46,726	0,053689
4,730482	327,273837	46,878	0,054721
4,733531	331,423118	47,029	0,056547
4,736514	333,888938	47,179	0,057632
4,739548	336,956232	47,329	0,058981
4,742529	339,302202	47,481	0,060014
4,745497	342,790083	47,632	0,061548
4,748519	345,435680	47,784	0,062712
4,751481	348,022461	47,936	0,063851
4,754566	351,329457	48,087	0,065306
4,757538	354,396751	48,237	0,066655
4,760559	357,944558	48,388	0,068216
4,763511	360,169567	48,538	0,069195
4,766474	362,695312	48,688	0,070307
4,769468	366,003418	48,839	0,071762
4,772435	369,250488	48,989	0,073191
4,775531	372,317782	49,139	0,074541
4,778528	375,385076	49,289	0,075890
4,781508	378,151634	49,439	0,077107
4,784495	381,157892	49,590	0,078430
4,787517	384,465998	49,740	0,079886
4,790490	386,991744	49,891	0,080997
4,793515	388,856090	50,042	0,081817
4,796505	393,486994	50,194	0,083855
4,799502	396,192516	50,344	0,085045
4,802508	399,139959	50,494	0,086342
4,805473	401,966442	50,644	0,087586
4,808494	405,273437	50,796	0,089041
4,811464	407,980069	50,947	0,090232
4,814546	411,107289	51,098	0,091608
4,817510	414,114657	51,248	0,092931
4,820501	416,880105	51,399	0,094148
4,823461	419,586737	51,550	0,095339
4,826455	422,954767	51,700	0,096821
4,829481	425,299627	51,850	0,097853
4,832499	428,547807	52,001	0,099282
4,835465	431,734952	52,152	0,100684
4,838507	434,441584	52,303	0,101875
4,841485	436,907404	52,453	0,102960
4,844493	440,634988	52,605	0,104600
4,847504	444,122869	52,756	0,106135
4,850464	446,528764	52,906	0,107193
4,853475	449,717019	53,057	0,108596
4,856478	452,181729	53,210	0,109681
4,859461	455,730646	53,361	0,111242
4,862509	458,015581	53,511	0,112248
4,865409	460,119629	53,661	0,113173
4,868482	463,849432	53,811	0,114814
4,871397	467,397239	53,962	0,116375
4,874451	470,765270	54,114	0,117857
4,877499	472,929244	54,265	0,118810
4,880490	476,297275	54,415	0,120292
4,883453	479,183683	54,569	0,121562
4,886452	481,950240	54,719	0,122779
4,889419	484,897683	54,870	0,124076
4,892497	488,024902	55,022	0,125452
4,895419	490,550648	55,172	0,126563
4,898432	494,038530	55,322	0,128098
4,899457	496,263539	55,473	0,129077
4,899461	495,662065	55,623	0,128812
4,899418	496,263539	55,774	0,129077
4,899482	495,842951	55,924	0,128892
4,899462	496,143688	56,074	0,129024
4,899461	496,384499	56,225	0,129130
4,899437	495,662065	56,376	0,128812
4,899416	496,263539	56,526	0,129077
4,899468	495,721990	56,676	0,128838
4,899450	496,082653	56,826	0,128997
4,899424	496,022727	56,978	0,128971
4,899476	496,203613	57,128	0,129050
4,899446	496,143688	57,278	0,129024
4,899472	495,482289	57,429	0,128733
4,899435	496,082653	57,579	0,128997
4,899482	495,962802	57,729	0,128944
4,899474	496,263539	57,879	0,129077
4,899491	496,082653	58,030	0,128997
4,899445	495,602140	58,182	0,128786
4,899505	495,842951	58,332	0,128892
4,899436	495,361328	58,484	0,128680
4,899385	495,962802	58,635	0,128944
4,899450	496,082653	58,787	0,128997
4,899461	495,902876	58,938	0,128918
4,899482	496,504350	59,089	0,129183
4,899455	496,384499	59,240	0,129130
4,899490	496,263539	59,390	0,129077
4,899499	496,143688	59,540	0,129024
4,899474	496,143688	59,690	0,129024
4,899455	496,022727	59,841	0,128971
4,899477	496,082653	59,991	0,128997
4,899448	495,783026	60,141	0,128865
4,899474	495,962802	60,291	0,128944
4,898460	496,444425	60,441	0,129156
4,895475	492,715732	60,592	0,127516
4,892429	490,309837	60,742	0,126457
4,889432	486,941806	60,893	0,124975
4,886476	484,176358	61,044	0,123758
4,883514	480,627441	61,196	0,122197
4,880454	477,800959	61,347	0,120953
4,877487	474,553888	61,501	0,119524
4,874470	472,568581	61,652	0,118651
4,871508	468,118564	61,803	0,116693
4,868460	465,833629	61,954	0,115687
4,865492	463,186923	62,106	0,114523
4,862471	459,338379	62,257	0,112830
4,859410	455,910423	62,408	0,111321
4,856498	453,444602	62,559	0,110236
4,853470	450,918857	62,712	0,109125
4,850506	447,671786	62,863	0,107696
4,847450	444,724343	63,014	0,106399
4,844469	441,537198	63,167	0,104997
4,841511	438,230202	63,319	0,103542
4,838486	435,643422	63,471	0,102404
4,835498	432,997825	63,622	0,101240
4,832443	428,908469	63,774	0,099440
4,829495	425,781250	63,926	0,098064
4,826535	422,954767	64,077	0,096821
4,823497	420,669833	64,229	0,095815
4,820527	417,843350	64,379	0,094572
4,817535	414,475320	64,530	0,093090
4,814509	411,167214	64,681	0,091634
4,811505	409,063166	64,834	0,090708
4,808476	404,732999	64,985	0,088803
4,805479	402,146218	65,136	0,087665
4,802486	399,199885	65,286	0,086369
4,799493	396,433327	65,437	0,085151
4,796487	392,885520	65,587	0,083590
4,793481	389,698375	65,737	0,082188
4,790536	386,450195	65,887	0,080759
4,787495	383,503862	66,037	0,079462
4,784480	380,978116	66,187	0,078351
4,781492	377,729936	66,339	0,076922
4,778504	376,227362	66,491	0,076261
4,775479	371,957120	66,642	0,074382
4,772532	369,611151	66,792	0,073350
4,769510	365,822532	66,942	0,071683
4,766489	363,658558	67,092	0,070730
4,763497	359,689054	67,243	0,068984
4,760504	356,741610	67,394	0,067687
4,757492	354,155939	67,544	0,066549
4,754522	349,885698	67,695	0,064670
4,751486	348,562900	67,846	0,064088
4,749512	345,797452	67,997	0,062872
4,752491	346,879439	68,112	0,063348
4,755459	349,946733	68,262	0,064697
4,758578	353,073952	68,412	0,066073
4,761503	355,779474	68,566	0,067264
4,764516	358,906694	68,718	0,068640
4,767498	361,192738	68,869	0,069646
4,770516	365,041282	69,020	0,071339
4,773493	368,168501	69,170	0,072715
4,776507	370,994984	69,322	0,073958
4,779520	373,941317	69,472	0,075255
4,782502	377,790971	69,622	0,076949
4,785436	380,135831	69,772	0,077980
4,788468	383,143200	69,922	0,079304
4,791443	385,308283	70,080	0,080256
4,794478	389,216752	70,231	0,081976
4,797511	391,923384	70,383	0,083167
4,800485	395,531117	70,537	0,084754
4,803514	398,417525	70,687	0,086024
4,806471	401,424893	70,838	0,087348
4,809552	404,492187	70,989	0,088697
4,812510	406,896973	71,141	0,089755
4,815417	409,844416	71,291	0,091052
4,818490	413,573109	71,443	0,092693
4,821526	416,459517	71,594	0,093963
4,824481	419,286000	71,744	0,095207
4,827491	422,353294	71,895	0,096556
4,830417	425,480513	72,046	0,097932
4,833458	428,066184	72,196	0,099070
4,836408	431,434215	72,347	0,100552
4,839465	434,139737	72,497	0,101742
4,842443	437,027255	72,648	0,103013
4,845434	440,394176	72,798	0,104494
4,848501	443,341619	72,949	0,105791
4,851483	446,649725	73,099	0,107247
4,854444	449,476207	73,250	0,108490
4,857455	452,061879	73,402	0,109628
4,860485	456,030273	73,553	0,111374
4,863443	458,255282	73,703	0,112353
4,866430	461,322576	73,853	0,113703
4,869400	464,931419	74,003	0,115291
4,872404	467,578125	74,154	0,116455
4,875450	471,125932	74,305	0,118016
4,878459	472,267844	74,455	0,118519
4,881479	476,598011	74,606	0,120424
4,884450	479,846191	74,757	0,121853
4,887448	482,672674	74,912	0,123097
4,890477	485,919744	75,063	0,124525
4,893425	488,686301	75,215	0,125743
4,896447	491,693670	75,366	0,127066
4,899464	494,459118	75,517	0,128283
4,902390	497,406561	75,678	0,129580
4,905508	500,233043	75,829	0,130823
4,908442	503,239302	75,979	0,132146
4,911470	507,088956	76,131	0,133840
4,914438	509,674627	76,281	0,134978
4,917440	512,381259	76,432	0,136168
4,920438	514,905895	76,587	0,137279
4,923465	518,394886	76,737	0,138814
4,926422	521,882768	76,889	0,140349
4,929395	525,551536	77,040	0,141963
4,932449	527,595659	77,191	0,142863
4,935460	530,121404	77,341	0,143974
4,938405	533,368475	77,492	0,145403
4,941378	536,315918	77,643	0,146700
4,944389	539,323287	77,794	0,148023
4,947422	543,111905	77,944	0,149690
4,950368	544,374778	78,094	0,150246
4,953419	548,524059	78,245	0,152071
4,956418	551,470392	78,396	0,153368
4,959436	554,177024	78,553	0,154559
4,962405	557,845792	78,703	0,156173
4,965419	559,108665	78,854	0,156729
4,968388	563,077060	79,007	0,158475
4,971461	565,964577	79,158	0,159745
4,974388	568,430398	79,310	0,160830
4,977425	572,038130	79,460	0,162417
4,980428	574,984464	79,611	0,163714
4,983437	578,112793	79,761	0,165090
4,986339	580,037065	79,913	0,165937
4,989425	582,622736	80,064	0,167075
4,992404	586,471280	80,216	0,168768
4,995381	589,719460	80,368	0,170197
4,998398	592,966531	80,519	0,171626
5,001398	595,793013	80,669	0,172870
5,004430	598,860307	80,820	0,174219
5,007456	601,987527	80,974	0,175595
5,010384	604,573198	81,126	0,176733
5,013421	607,459606	81,277	0,178003
5,016401	610,166238	81,427	0,179194
5,019427	613,474343	81,577	0,180649
5,022412	616,179865	81,728	0,181840
5,025402	619,667747	81,878	0,183375
5,028379	622,675115	82,028	0,184698
5,031364	625,200861	82,180	0,185809
5,034428	628,748668	82,330	0,187370
5,037358	630,192427	82,482	0,188005
5,040444	634,642445	82,632	0,189963
5,043398	637,349077	82,783	0,191154
5,046363	640,295410	82,934	0,192451
5,049405	642,580344	83,084	0,193456
5,052419	646,249112	83,235	0,195070
5,055351	648,955744	83,385	0,196261
5,058387	651,902077	83,536	0,197558
5,061415	654,969371	83,687	0,198907
5,064432	658,457253	83,839	0,200442
5,067394	661,163885	83,989	0,201633
5,070391	664,110218	84,140	0,202929
5,073367	667,057662	84,290	0,204226
5,076382	670,304732	84,440	0,205655
5,079406	673,071289	84,591	0,206872
5,082400	675,957697	84,741	0,208142
5,085404	678,062855	84,893	0,209068
5,088323	681,610662	85,045	0,210629
5,091348	684,858842	85,198	0,212059
5,094347	688,225763	85,349	0,213540
5,097390	691,233132	85,500	0,214863
5,099369	693,698952	85,650	0,215948
5,099373	693,938654	85,801	0,216054
5,099406	693,639027	85,952	0,215922
5,099417	693,999689	86,103	0,216081
5,099396	693,818803	86,253	0,216001
5,099360	693,097479	86,403	0,215684
5,099381	693,338290	86,554	0,215790
5,099429	693,879838	86,705	0,216028
5,099332	693,639027	86,856	0,215922
5,099361	693,639027	87,007	0,215922
5,099369	693,458141	87,157	0,215842
5,099393	693,217330	87,307	0,215736
5,099370	693,639027	87,458	0,215922
5,099379	693,818803	87,608	0,216001
5,099383	693,097479	87,759	0,215684
5,099391	693,698952	87,911	0,215948
5,099359	693,398216	88,062	0,215816
5,099424	693,577992	88,214	0,215895
5,099362	693,458141	88,366	0,215842
5,099373	693,758878	88,517	0,215975
5,099372	693,698952	88,667	0,215948
5,099415	693,879838	88,818	0,216028
5,099331	693,698952	88,969	0,215948
5,099343	693,097479	89,120	0,215684
5,099355	692,856667	89,271	0,215578
5,099335	693,518066	89,422	0,215869
5,099334	693,577992	89,572	0,215895
5,099392	693,577992	89,722	0,215895
5,099345	693,518066	89,873	0,215869
5,099399	692,856667	90,024	0,215578
5,099358	693,938654	90,175	0,216054
5,099407	693,278365	90,325	0,215763
5,099367	693,458141	90,476	0,215842
5,099375	693,157404	90,627	0,215710
5,096349	692,015492	90,777	0,215208
5,093360	688,587536	90,928	0,213699
5,090395	685,399281	91,079	0,212296
5,087407	681,730513	91,230	0,210682
5,084424	679,205877	91,381	0,209571
5,081356	676,017623	91,533	0,208168
5,078380	674,694824	91,683	0,207586
5,075465	670,304732	91,834	0,205655
5,072441	667,177512	91,986	0,204279
5,069355	663,869407	92,138	0,202823
5,066437	660,502486	92,290	0,201342
5,063392	657,254306	92,441	0,199913
5,060375	655,330034	92,591	0,199066
5,057398	651,962003	92,741	0,197584
5,054399	649,977805	92,891	0,196711
5,051413	645,708674	93,042	0,194833
5,048424	643,242853	93,193	0,193748
5,045416	639,514160	93,350	0,192107
5,042403	636,566717	93,502	0,190810
5,039472	633,620384	93,652	0,189514
5,036411	630,493164	93,802	0,188138
5,033397	628,027344	93,952	0,187053
5,030393	625,982111	94,102	0,186153
5,027400	621,593129	94,252	0,184222
5,024418	618,825462	94,402	0,183004
5,021397	615,998979	94,554	0,181760
5,018431	612,210360	94,706	0,180093
5,015397	608,783514	94,857	0,178585
5,012467	606,858132	95,008	0,177738
5,009401	603,250400	95,158	0,176151
5,006385	602,047452	95,309	0,175622
5,003396	597,416548	95,460	0,173584
5,000439	593,868741	95,610	0,172023
4,997377	591,763583	95,761	0,171097
4,994431	588,756214	95,912	0,169773
4,991431	585,809881	96,062	0,168477
4,988475	582,562811	96,212	0,167048
4,985427	579,675293	96,363	0,165778
4,982451	577,150657	96,515	0,164667
4,979464	573,421964	96,666	0,163026
4,976446	570,595481	96,816	0,161783
4,973410	567,227450	96,967	0,160301
4,970443	564,580744	97,117	0,159136
4,967462	561,935147	97,267	0,157972
4,964452	559,108665	97,417	0,156729
4,961408	555,199086	97,567	0,155008
4,958429	553,575550	97,717	0,154294
4,955460	549,185458	97,870	0,152362
4,952420	546,538752	98,020	0,151198
4,949440	544,014116	98,170	0,150087
4,946491	539,984686	98,321	0,148314
4,943471	537,399015	98,471	0,147176
4,940425	533,969949	98,621	0,145667
4,937469	531,204501	98,773	0,144451
4,934436	528,378018	98,923	0,143207
4,931412	525,250799	99,074	0,141831
4,928427	522,183505	99,226	0,140481
4,925402	519,176136	99,384	0,139158
4,922444	516,951127	99,535	0,138179
4,919427	514,004794	99,686	0,136883
4,916373	510,997425	99,836	0,135560
4,913455	507,027921	99,987	0,133813
4,910462	503,901811	100,138	0,132438
4,907452	500,954368	100,289	0,131141
4,904390	497,827148	100,440	0,129765
4,901447	495,181552	100,594	0,128601
4,899448	492,294034	100,745	0,127330
4,902406	494,520153	100,857	0,128310
4,905453	497,165749	101,008	0,129474
4,908408	500,173118	101,158	0,130797
4,911406	502,577903	101,310	0,131855
4,914408	506,126820	101,462	0,133417
4,917501	509,734553	101,613	0,135004
4,920435	511,959561	101,763	0,135983
4,923416	515,628329	101,913	0,137597
4,926351	518,273926	102,065	0,138761
4,929411	521,641957	102,216	0,140243
4,932425	524,167702	102,366	0,141354
4,935397	527,956321	102,516	0,143021
4,938426	530,722878	102,666	0,144239
4,941453	533,549361	102,817	0,145482
4,944445	536,796431	102,968	0,146911
4,947452	539,443137	103,120	0,148076
4,950429	542,329545	103,270	0,149346
4,953414	545,998313	103,423	0,150960
4,956364	549,065607	103,573	0,152310
4,959410	551,892090	103,724	0,153553
4,962366	554,296875	103,874	0,154611
4,965409	558,688077	104,024	0,156543
4,968447	560,371538	104,174	0,157284
4,971439	563,438832	104,327	0,158634
4,974399	567,227450	104,478	0,160301
4,977394	570,053933	104,628	0,161544
4,980387	572,398793	104,781	0,162576
4,983382	575,045499	104,932	0,163741
4,986368	578,412420	105,083	0,165222
4,989399	582,321999	105,233	0,166942
4,992416	584,787820	105,383	0,168027
4,995396	588,095925	105,533	0,169483
4,998462	590,922408	105,684	0,170727
5,001394	592,966531	105,836	0,171626
5,004392	596,995961	105,986	0,173399
5,007454	600,243031	106,161	0,174828
5,010386	603,009588	106,312	0,176045
5,013385	606,377619	106,463	0,177527
5,016362	608,182040	106,613	0,178321
5,019433	611,909624	106,764	0,179961
5,022371	614,616255	106,915	0,181152
5,025416	617,563699	107,069	0,182449
5,028378	621,472168	107,220	0,184168
5,031354	623,878063	107,372	0,185227
5,034410	626,704545	107,522	0,186471
5,037440	629,350142	107,672	0,187635
5,040379	632,958984	107,823	0,189223
5,043427	636,265980	107,974	0,190678
5,046365	639,753862	108,126	0,192212
5,049399	642,400568	108,277	0,193377
5,052363	645,167125	108,429	0,194594
5,055366	648,414196	108,580	0,196023
5,058370	651,120827	108,731	0,197214
5,061384	654,188121	108,881	0,198563
5,064425	657,074529	109,031	0,199833
5,067366	659,600275	109,182	0,200945
5,070409	662,907271	109,333	0,202400
5,073380	666,456188	109,483	0,203961
5,076379	669,041859	109,634	0,205099
5,079364	672,469815	109,784	0,206607
5,082396	675,537109	109,935	0,207957
5,085371	677,521307	110,085	0,208830
5,088327	681,190075	110,236	0,210444
5,091442	683,715820	110,386	0,211556
5,094369	687,624290	110,537	0,213275
5,097384	690,631658	110,687	0,214599
5,100413	693,278365	110,838	0,215763
5,103364	696,164773	110,988	0,217033
5,106388	698,991255	111,138	0,218277
5,109344	702,298251	111,288	0,219732
5,112367	705,305620	111,439	0,221055
5,115270	709,034313	111,591	0,222696
5,118349	711,980646	111,742	0,223992
5,121305	714,265581	111,893	0,224998
5,124357	717,332875	112,043	0,226347
5,127342	720,099432	112,193	0,227564
5,130382	723,226651	112,344	0,228940
5,133372	725,873358	112,494	0,230105
5,136360	729,240279	112,644	0,231586
5,139367	732,247647	112,795	0,232910
5,142345	735,255016	112,947	0,234233
5,145363	738,322310	113,098	0,235583
5,148331	741,268643	113,248	0,236879
5,151309	744,696600	113,398	0,238387
5,154322	746,680797	113,548	0,239260
5,157373	749,988903	113,698	0,240716
5,160340	752,694425	113,848	0,241906
5,163322	756,062456	113,998	0,243388
5,166343	758,648127	114,150	0,244526
5,169434	761,595570	114,300	0,245823
5,172334	763,519842	114,452	0,246669
5,175305	767,909934	114,602	0,248601
5,178364	770,615456	114,753	0,249792
5,181356	773,983487	114,903	0,251273
5,184392	776,569158	115,054	0,252411
5,187292	779,997115	115,206	0,253919
5,190427	782,823597	115,356	0,255163
5,193370	785,109641	115,506	0,256169
5,196411	788,537598	115,657	0,257677
5,199329	791,664817	115,810	0,259053
5,202284	794,792037	115,961	0,260429
5,205329	797,738370	116,112	0,261726
5,208310	800,625888	116,263	0,262996
5,211366	803,632147	116,413	0,264319
5,214296	806,217818	116,564	0,265457
5,217350	808,984375	116,714	0,266674
5,220368	811,870783	116,864	0,267944
5,223327	815,840288	117,016	0,269690
5,226333	818,486994	117,168	0,270855
5,229263	821,433327	117,320	0,272151
5,232376	824,199885	117,472	0,273369
5,235357	827,446955	117,623	0,274797
5,238325	830,213512	117,775	0,276015
5,241324	833,581543	117,927	0,277497
5,244382	836,527876	118,077	0,278793
5,247314	839,053622	118,229	0,279904
5,250327	842,001065	118,380	0,281201
5,253329	844,646662	118,530	0,282365
5,256286	848,014693	118,681	0,283847
5,259336	851,442649	118,832	0,285355
5,262321	854,088246	118,982	0,286520
5,265308	857,155540	119,132	0,287869
5,268299	859,862172	119,283	0,289060
5,271336	863,169167	119,433	0,290515
5,274351	865,875799	119,586	0,291706
5,277281	869,182795	119,737	0,293161
5,280302	872,250089	119,889	0,294511
5,283317	874,835760	120,039	0,295648
5,286288	877,903054	120,190	0,296998
5,289253	880,850497	120,340	0,298295
5,292318	883,436168	120,491	0,299433
5,295336	886,804199	120,641	0,300915
5,298265	889,810458	120,792	0,302237
5,299364	891,735840	120,942	0,303084
5,299373	891,975542	121,093	0,303190
5,299324	892,096502	121,243	0,303243
5,299368	892,156428	121,393	0,303270
5,299335	891,975542	121,544	0,303190
5,299301	891,554954	121,695	0,303005
5,299300	891,674805	121,847	0,303058
5,299322	891,614879	121,998	0,303031
5,299344	891,735840	122,148	0,303084
5,299321	891,975542	122,299	0,303190
5,299332	891,554954	122,450	0,303005
5,299303	891,495028	122,600	0,302979
5,299308	892,035467	122,751	0,303216
5,299364	891,795765	122,902	0,303111
5,299355	891,554954	123,053	0,303005
5,299293	891,314142	123,203	0,302899
5,299290	891,674805	123,355	0,303058
5,299325	891,735840	123,505	0,303084
5,299284	891,795765	123,657	0,303111
5,299302	891,495028	123,807	0,302979
5,299298	891,554954	123,957	0,303005
5,299309	891,495028	124,107	0,302979
5,299283	890,953480	124,258	0,302740
5,299285	891,795765	124,408	0,303111
5,299296	891,735840	124,558	0,303084
5,299326	891,314142	124,709	0,302899
5,299335	891,855691	124,860	0,303137
5,299298	891,314142	125,011	0,302899
5,299347	891,495028	125,162	0,302979
5,299333	891,554954	125,313	0,303005
5,299315	891,375178	125,463	0,302926
5,299372	891,674805	125,614	0,303058
5,299293	891,314142	125,766	0,302899
5,298316	891,013406	125,917	0,302767
5,295313	888,126998	126,067	0,301497
5,292316	885,059703	126,218	0,300147
5,289299	882,173295	126,369	0,298877
5,286298	879,225852	126,519	0,297580
5,283351	875,978782	126,671	0,296151
5,280293	872,671786	126,823	0,294696
5,277277	870,265891	126,973	0,293638
5,274318	867,559260	127,124	0,292447
5,271288	864,612926	127,275	0,291150
5,268331	861,485707	127,425	0,289774
5,265378	858,117676	127,576	0,288292
5,262368	855,231268	127,727	0,287022
5,259283	852,163974	127,877	0,285673
5,256283	848,976829	128,028	0,284271
5,253364	846,691895	128,179	0,283265
5,250368	843,443714	128,329	0,281836
5,247327	840,196644	128,481	0,280407
5,244362	836,587802	128,633	0,278819
5,241395	834,302868	128,784	0,277814
5,238354	830,874911	128,935	0,276306
5,235318	827,988503	129,087	0,275036
5,232412	824,861284	129,237	0,273660
5,229392	821,914950	129,387	0,272363
5,226352	819,388095	129,537	0,271251
5,223366	816,200950	129,687	0,269849
5,220333	812,953880	129,837	0,268420
5,217366	810,187322	129,987	0,267203
5,214347	807,240989	130,137	0,265907
5,211358	803,932884	130,288	0,264451
5,208363	801,286177	130,440	0,263287
5,205313	797,678445	130,591	0,261699
5,202344	795,453436	130,741	0,260720
5,199374	792,266291	130,892	0,259318
5,196332	788,958185	131,042	0,257862
5,193307	786,071777	131,192	0,256592
5,190313	782,823597	131,343	0,255163
5,187291	780,478738	131,495	0,254131
5,184361	776,449308	131,645	0,252358
5,181370	773,682750	131,795	0,251141
5,178323	771,037154	131,947	0,249977
5,175340	768,089711	132,097	0,248680
5,172388	764,601829	132,247	0,247146
5,169378	761,655495	132,398	0,245849
5,166340	758,588201	132,549	0,244500
5,163388	755,281206	132,700	0,243044
5,160400	752,333762	132,851	0,241748
5,157348	749,447354	133,003	0,240478
5,154359	747,041460	133,153	0,239419
5,151383	743,373801	133,303	0,237805
5,148414	740,607244	133,454	0,236588
5,145353	737,480025	133,605	0,235212
5,142398	734,713468	133,756	0,233995
5,139402	732,307573	133,906	0,232936
5,136361	727,737704	134,056	0,230925
5,133397	725,150923	134,206	0,229787
5,130328	722,384366	134,357	0,228570
5,127377	719,678844	134,509	0,227379
5,124427	716,430664	134,659	0,225950
5,121401	713,785067	134,810	0,224786
5,118386	710,237260	134,961	0,223225
5,115376	706,869229	135,112	0,221743
5,112397	704,403409	135,262	0,220658
5,109347	702,057440	135,412	0,219626
5,106444	697,788308	135,563	0,217748
5,103380	695,503374	135,714	0,216742
5,100435	692,195268	135,865	0,215287
5,097414	689,609597	136,015	0,214149
5,094408	686,602228	136,166	0,212826
5,091384	682,933461	136,317	0,211211
5,088403	680,287864	136,468	0,210047
5,085364	677,822044	136,620	0,208962
5,082421	674,935636	136,770	0,207692
5,079386	671,266868	136,921	0,206078
5,076425	668,741122	137,071	0,204967
5,073427	664,892578	137,222	0,203273
5,070382	662,366832	137,372	0,202162
5,067472	659,299538	137,523	0,200813
5,064443	655,991433	137,673	0,199357
5,061470	653,045099	137,824	0,198061
5,058438	650,097656	137,974	0,196764
5,055417	647,091397	138,126	0,195441
5,052417	644,866388	138,276	0,194462
5,049408	641,257546	138,428	0,192874
5,046429	638,251287	138,578	0,191551
5,043454	635,303844	138,729	0,190254
5,040428	632,176625	138,879	0,188878
5,037471	629,290217	139,029	0,187608
5,034436	626,162997	139,181	0,186232
5,031383	623,336515	139,332	0,184989
5,028411	620,209295	139,483	0,183613
5,025404	617,142001	139,634	0,182263
5,022473	614,375444	139,785	0,181046
5,019427	610,767711	139,936	0,179458
5,016418	607,881303	140,087	0,178188
5,013426	604,993786	140,237	0,176918
5,010425	602,228338	140,387	0,175701
5,007474	598,619496	140,538	0,174113
5,004417	595,672053	140,688	0,172816
5,001447	593,447044	140,839	0,171837
4,998379	589,779386	140,989	0,170224
4,995394	586,411355	141,140	0,168742
4,992468	583,704723	141,292	0,167551
4,989425	580,878240	141,442	0,166307
4,986479	577,571245	141,595	0,164852
4,983490	574,563876	141,746	0,163529
4,980395	571,858354	141,896	0,162338
4,977415	568,910911	142,048	0,161042
4,974495	565,723766	142,198	0,159639
4,971433	562,596547	142,348	0,158263
4,968436	559,949840	142,499	0,157099
4,965389	556,702770	142,649	0,155670
4,962436	553,756436	142,800	0,154374
4,959485	551,170765	142,950	0,153236
4,956481	547,381037	143,100	0,151568
4,953455	544,795366	143,251	0,150431
4,950450	541,789107	143,402	0,149108
4,947485	539,022550	143,553	0,147891
4,944525	535,413707	143,703	0,146303
4,941468	532,708185	143,853	0,145112
4,938449	529,219194	144,003	0,143577
4,935441	526,693448	144,154	0,142466
4,932489	523,386452	144,306	0,141011
4,929467	520,920632	144,457	0,139926
4,926546	517,612527	144,608	0,138470
4,923450	514,606268	144,758	0,137147
4,920451	511,658825	144,908	0,135851
4,917497	507,930131	145,058	0,134210
4,914416	504,863947	145,209	0,132861
4,911498	501,976429	145,359	0,131590
4,908508	498,909135	145,510	0,130241
4,905418	496,865012	145,660	0,129341
4,902464	493,256170	145,810	0,127753
4,899482	491,212047	145,960	0,126854
4,896462	487,182617	146,112	0,125081
4,893511	484,475985	146,263	0,123890
4,890498	481,109064	146,413	0,122409
4,887460	478,582209	146,563	0,121297
4,884492	475,275213	146,713	0,119842
4,881415	472,388805	146,863	0,118572
4,878484	469,562322	147,014	0,117328
4,875449	465,953480	147,165	0,115740
4,872448	463,007147	147,317	0,114444
4,869493	460,240589	147,468	0,113227
4,866423	456,812633	147,618	0,111718
4,863491	454,167037	147,768	0,110554
4,860475	451,219593	147,919	0,109257
4,857515	447,972523	148,070	0,107829
4,854469	445,265891	148,221	0,106638
4,851532	442,018821	148,372	0,105209
4,848534	439,493075	148,524	0,104098
4,845508	436,065119	148,674	0,102589
4,842471	433,358487	148,824	0,101398
4,839525	431,434215	148,979	0,100552
4,836527	427,825373	149,129	0,098964
4,833492	423,916903	149,280	0,097244
4,830482	421,210272	149,430	0,096053
4,827554	417,903276	149,580	0,094598
4,824507	414,895907	149,730	0,093275
4,821458	411,768688	149,882	0,091899
4,818494	410,686701	150,039	0,091423
4,815492	405,755060	150,191	0,089253
4,812512	404,612038	150,341	0,088750
4,809461	401,544744	150,504	0,087400
4,806454	396,914950	150,655	0,085363
4,803479	393,606845	150,910	0,083908
4,800465	392,343972	151,060	0,083352
4,797460	388,073730	151,211	0,081473
4,794489	384,947621	151,362	0,080098
4,791478	382,481800	151,512	0,079013
4,788478	378,872958	151,663	0,077425
4,785501	376,166326	151,815	0,076234
4,782530	373,700506	151,966	0,075149
4,779492	371,716309	152,122	0,074276
4,776532	367,626953	152,273	0,072477
4,773502	364,139071	152,424	0,070942
4,770472	361,131703	152,574	0,069619
4,767579	357,824707	152,724	0,068164
4,764486	356,020286	152,874	0,067370
4,761528	352,893066	153,024	0,065994
4,758552	349,584961	153,174	0,064538
4,755523	346,578702	153,324	0,063215
4,752505	343,872070	153,475	0,062024
4,749540	340,444114	153,627	0,060516
4,746543	337,738592	153,777	0,059326
4,743553	335,392623	154,010	0,058293
4,740481	331,363192	154,160	0,056521
4,737501	328,476784	154,312	0,055250
4,734539	325,590376	154,464	0,053980
4,731518	322,403232	154,615	0,052578
4,728546	320,117187	154,766	0,051572
4,725545	317,952104	154,916	0,050620
4,722516	313,802823	155,067	0,048794
4,719477	310,675604	155,219	0,047418
4,716517	307,368608	155,372	0,045963
4,713560	304,602051	155,523	0,044746
4,710521	302,076305	155,673	0,043634
4,707473	298,949086	155,824	0,042258
4,704535	296,062678	155,976	0,040988
4,701502	292,934348	156,127	0,039612
4,698534	290,348677	156,277	0,038474
4,695470	286,860795	156,428	0,036939
4,692541	284,275124	156,586	0,035802
4,689540	281,688343	156,737	0,034664
4,686570	278,140536	156,887	0,033103
4,683550	275,674716	157,040	0,032018
4,680557	272,307795	157,190	0,030536
4,677537	270,804110	157,340	0,029875
4,674568	266,593794	157,490	0,028022
4,671584	263,647461	157,642	0,026726
4,668570	261,241566	157,797	0,025667
4,665533	257,933461	157,947	0,024211
4,662526	254,566539	158,097	0,022730
4,659588	251,439320	158,248	0,021354
4,656543	249,093350	158,398	0,020322
4,653547	246,929377	158,549	0,019370
4,650600	241,637074	158,701	0,017041
4,647531	239,531916	158,852	0,016115
4,644550	236,885210	159,003	0,014950
4,641557	232,976740	159,153	0,013230
4,638575	230,570845	159,304	0,012172
4,635529	227,985174	159,454	0,011034
4,632588	225,218617	159,605	0,009817
4,629535	222,752797	159,755	0,008732
4,626529	219,384766	159,906	0,007250
4,623552	216,498358	160,056	0,005980
4,620575	213,912686	160,206	0,004842
4,617539	211,146129	160,358	0,003625
4,614549	207,779208	160,508	0,002144
4,611589	204,831765	160,658	0,000847
4,608570	201,283958	160,808	-0,000714
4,605563	200,682484	160,958	-0,000979
4,602557	196,292392	161,108	-0,002911
4,599559	193,225098	161,259	-0,004260
4,596566	190,879128	161,410	-0,005292
4,593539	188,173606	161,560	-0,006483
4,590509	185,226163	161,710	-0,007780
4,587507	182,098944	161,860	-0,009156
4,584570	179,212536	162,011	-0,010426
4,581561	177,288263	162,161	-0,011272
4,578516	174,340820	162,311	-0,012569
4,575615	171,093750	162,461	-0,013998
4,572602	168,267267	162,612	-0,015242
4,569633	164,839311	162,762	-0,016750
4,566557	163,275701	162,922	-0,017438
4,563552	158,885609	163,073	-0,019370
4,560545	156,299938	163,223	-0,020507
4,557604	154,676403	163,373	-0,021222
4,554559	150,887784	163,523	-0,022889
4,551568	147,098056	163,674	-0,024556
4,548601	144,873047	163,824	-0,025535
4,545539	141,145463	163,975	-0,027175
4,542604	139,701705	164,138	-0,027811
4,539576	135,431463	164,288	-0,029689
4,536514	132,965643	164,438	-0,030774
4,533539	129,297985	164,597	-0,032388
4,530562	127,613414	164,747	-0,033129
4,527561	123,645020	164,898	-0,034875
4,524575	122,561923	165,053	-0,035352
4,521562	118,051980	165,204	-0,037336
4,518524	116,307484	165,355	-0,038104
4,515566	113,180265	165,505	-0,039480
4,512537	109,331721	165,655	-0,041173
4,509574	106,686124	165,807	-0,042337
4,506565	103,437944	165,958	-0,043767
4,503577	101,032049	166,111	-0,044825
4,500580	98,025790	166,262	-0,046148
4,497631	94,536799	166,412	-0,047683
4,494538	93,275036	166,562	-0,048238
4,491563	89,004794	166,712	-0,050117
4,488525	85,817649	166,862	-0,051520
4,485542	84,073153	167,012	-0,052287
4,482499	80,164684	167,162	-0,054007
4,479587	77,277166	167,312	-0,055277
4,476510	74,872381	167,462	-0,056335
4,473541	70,842951	167,613	-0,058108
4,470648	69,279341	167,763	-0,058796
4,467595	65,610574	167,913	-0,060411
4,464604	62,845126	168,064	-0,061627
4,461526	59,777832	168,215	-0,062977
4,458579	57,011275	168,366	-0,064194
4,455582	54,786266	168,517	-0,065173
4,452548	50,816761	168,667	-0,066920
4,449581	47,930353	168,818	-0,068190
4,446609	45,163796	168,969	-0,069407
4,443588	42,457164	169,120	-0,070598
4,440644	40,112305	169,271	-0,071630
4,437570	36,624423	169,421	-0,073165
4,434591	33,075506	169,571	-0,074726
4,431590	31,271085	169,732	-0,075520
4,428584	27,543501	169,882	-0,077160
4,425573	24,476207	170,032	-0,078510
4,422590	22,130238	170,188	-0,079542
4,419578	18,763317	170,339	-0,081023
4,416605	15,815874	170,489	-0,082320
4,413557	12,748580	170,651	-0,083670
4,410578	9,862172	170,803	-0,084940
4,407566	7,517312	170,955	-0,085972
4,404579	4,089355	171,105	-0,087480
4,401604	1,022061	171,256	-0,088830
4,398571	-1,924272	171,407	-0,090126
4,395598	-4,691939	171,557	-0,091344
4,392612	-7,577237	171,708	-0,092613
4,389610	-10,464755	171,858	-0,093884
4,386597	-13,351163	172,008	-0,095154
4,383602	-9,080922	172,160	-0,093275
4,380623	-9,562544	172,312	-0,093487
4,377580	-9,321733	172,463	-0,093381
4,374562	-8,600408	172,613	-0,093063
4,371595	-8,781294	172,765	-0,093143
4,368589	-9,080922	172,915	-0,093275
4,365570	-9,080922	173,067	-0,093275
4,362582	-9,020996	173,218	-0,093249
4,359589	-9,080922	173,368	-0,093275
4,356671	-9,261808	173,519	-0,093354
4,353619	-8,841220	173,670	-0,093169
4,350612	-9,080922	173,820	-0,093275
4,347578	-8,720259	173,971	-0,093116
4,344636	-9,682395	174,121	-0,093540
4,341639	-8,841220	174,273	-0,093169
4,338566	-9,502619	174,423	-0,093460
4,335585	-8,720259	174,588	-0,093116
4,332610	-9,321733	174,739	-0,093381
4,329606	-9,080922	174,891	-0,093275
4,326588	-9,141957	175,043	-0,093302
4,323583	-8,901145	175,193	-0,093196
4,320647	-8,961071	175,347	-0,093222
4,317625	-8,961071	175,497	-0,093222
4,314605	-9,441584	175,647	-0,093434
4,311601	-8,841220	175,809	-0,093169
4,308643	-8,961071	175,959	-0,093222
4,305625	-9,321733	176,110	-0,093381
4,302634	-8,841220	176,265	-0,093169
4,299623	-8,781294	176,416	-0,093143