File: Nanoindentation Datenauswertung/data/Test Measurement/test on saphire
Quasi static measurement routine
Tip parameters (shape,radius, material...)
04.05.2022

Piezo position[nm]	MEMS displ.[nm]	Time[ms]
eoh
5,203327	0,464977	0,00
5,204271	-0,180886	81,00
5,205273	0,601474	257,00
5,206313	1,081987	477,00
5,207335	2,045233	627,00
5,208324	2,585671	758,00
5,209238	2,405895	900,00
5,210343	3,547807	1044,00
5,211310	4,390092	1190,00
5,212274	5,473189	1333,00
5,213304	5,652965	1488,00
5,214314	5,772816	1615,00
5,215321	6,555176	1759,00
5,216250	7,397461	1897,00
5,217304	8,540483	2044,00
5,218361	9,561435	2205,00
5,219342	9,682395	2354,00
5,220271	10,164018	2496,00
5,221312	12,268066	2644,00
5,222276	12,508878	2801,00
5,223321	13,170277	2950,00
5,224286	14,433150	3096,00
5,225283	14,914773	3220,00
5,226305	15,094549	3410,00
5,227286	16,056685	3561,00
5,228297	17,079856	3711,00
5,229334	17,741255	3847,00
5,230290	19,004128	4000,00
5,231300	19,846413	4145,00
5,232231	20,567738	4272,00
5,233298	21,348988	4418,00
5,234293	21,529874	4567,00
5,235265	22,792747	4718,00
5,236258	23,995694	4864,00
5,237283	24,776944	5015,00
5,238265	25,378418	5168,00
5,239305	26,401589	5316,00
5,240291	27,423651	5471,00
5,241294	28,264826	5620,00
5,242298	29,167037	5768,00
5,243300	29,829545	5920,00
5,244311	30,129173	6069,00
5,245290	31,692782	6209,00
5,246280	32,656028	6331,00
5,247327	33,256392	6481,00
5,248326	33,437278	6627,00
5,249296	34,158603	6773,00
5,250272	35,541326	6924,00
5,251299	36,323686	7047,00
5,252273	37,466708	7187,00
5,253252	38,068182	7320,00
5,254250	39,030318	7472,00
5,255230	39,811568	7634,00
5,256345	41,255327	7792,00
5,257307	42,036577	7933,00
5,258293	42,818936	8072,00
5,259306	43,299450	8198,00
5,260267	43,900923	8341,00
5,261291	45,404608	8476,00
5,262266	46,186967	8602,00
5,263250	46,788441	8735,00
5,264296	47,810502	8860,00
5,265290	48,832564	8999,00
5,266281	48,952415	9143,00
5,267331	50,095437	9284,00
5,268274	50,517134	9437,00
5,269301	51,539196	9592,00
5,270303	52,861994	9730,00
5,271257	52,861994	9853,00
5,272203	54,545455	9997,00
5,273341	55,327814	10137,00
5,274293	56,409801	10261,00
5,275274	56,349876	10395,00
5,276262	57,853560	10546,00
5,277328	58,514959	10692,00
5,278216	59,417170	10850,00
5,279289	60,439231	10997,00
5,280214	60,920854	11147,00
5,281222	62,123801	11274,00
5,282286	62,785201	11413,00
5,283284	63,747337	11565,00
5,284277	64,048074	11709,00
5,285301	65,370872	11858,00
5,286218	66,153232	12008,00
5,287281	67,115368	12147,00
5,288262	68,558017	12292,00
5,289312	68,979714	12442,00
5,290256	70,061701	12594,00
5,291220	70,242587	12741,00
5,292241	71,806197	12876,00
5,293257	72,647372	13019,00
5,294283	73,069070	13156,00
5,295304	74,391868	13281,00
5,296277	75,413929	13418,00
5,297203	75,413929	13570,00
5,298315	77,758789	13728,00
5,299231	77,879750	13865,00
5,300280	78,541149	14018,00
5,301245	79,924982	14170,00
5,302280	80,224609	14312,00
5,303282	81,247781	14477,00
5,304277	81,548517	14621,00
5,305278	83,112127	14764,00
5,306330	83,652566	14889,00
5,307271	84,674627	15031,00
5,308230	85,036399	15175,00
5,309202	86,659934	15298,00
5,310262	86,960671	15441,00
5,311319	88,944869	15584,00
5,312295	88,584206	15737,00
5,313258	89,787154	15900,00
5,314290	90,448553	16043,00
5,315298	91,531650	16179,00
5,316265	92,072088	16310,00
5,317269	92,854448	16447,00
5,318301	93,756658	16598,00
5,319294	94,537908	16743,00
5,320231	95,800781	16886,00
5,321211	96,522106	17040,00
5,322255	97,605202	17196,00
5,323248	98,808150	17346,00
5,324256	98,627264	17485,00
5,325242	99,950062	17613,00
5,326228	101,574707	17761,00
5,327250	101,574707	17898,00
5,328243	102,355957	18035,00
5,329295	103,618830	18157,00
5,330323	104,401190	18288,00
5,331230	105,001554	18434,00
5,332312	106,445313	18584,00
5,333252	107,046786	18716,00
5,334234	107,528409	18860,00
5,335262	108,249734	18996,00
5,336295	109,933194	19137,00
5,337284	110,114080	19266,00
5,338252	111,857466	19410,00
5,339263	112,098278	19549,00
5,340276	113,181374	19697,00
5,341293	114,444247	19822,00
5,342275	115,225497	19958,00
5,343278	115,886896	20091,00
5,344294	117,210804	20216,00
5,345225	117,872203	20355,00
5,346271	119,374778	20508,00
5,347241	119,856401	20648,00
5,348295	120,698686	20810,00
5,349289	121,660822	20960,00
5,350245	122,803844	21101,00
5,351311	123,704945	21225,00
5,352235	124,667081	21363,00
5,353269	125,088778	21505,00
5,354286	126,953125	21628,00
5,355244	127,013050	21766,00
5,356210	128,215998	21911,00
5,357232	128,937322	22063,00
5,358294	129,478871	22208,00
5,359217	131,102406	22335,00
5,360202	131,162331	22473,00
5,361250	132,546165	22614,00
5,362166	133,387340	22764,00
5,363165	134,891025	22920,00
5,364245	135,251687	23062,00
5,365189	136,334783	23187,00
5,366241	137,537731	23324,00
5,367250	137,537731	23466,00
5,368281	138,800604	23611,00
5,369222	140,484064	23746,00
5,370245	140,424139	23881,00
5,371228	141,746937	24019,00
5,372225	142,228560	24163,00
5,373232	143,370472	24294,00
5,374283	144,152832	24433,00
5,375312	145,716442	24587,00
5,376185	146,137029	24737,00
5,377227	147,219016	24876,00
5,378239	148,182262	25004,00
5,379308	149,204324	25154,00
5,380287	149,805797	25291,00
5,381276	151,008745	25431,00
5,382222	151,549183	25556,00
5,383290	152,150657	25699,00
5,384217	153,413530	25841,00
5,385275	153,955078	25995,00
5,386242	155,217951	26142,00
5,387230	155,939276	26295,00
5,388220	156,841486	26447,00
5,389240	157,502885	26600,00
5,390254	158,645907	26737,00
5,391233	159,548118	26880,00
5,392274	160,570179	27011,00
5,393254	161,291504	27152,00
5,394203	162,494451	27303,00
5,395206	164,238947	27448,00
5,396266	164,960272	27595,00
5,397217	165,742631	27763,00
5,398195	166,404031	27902,00
5,399216	167,306241	28054,00
5,400188	167,606978	28191,00
5,401204	168,748890	28315,00
5,402227	169,770952	28464,00
5,403231	170,913974	28607,00
5,403251	171,334561	28760,00
5,403239	171,455522	28910,00
5,403166	171,274636	29051,00
5,403200	171,094860	29177,00
5,403249	170,973899	29315,00
5,403248	171,214711	29467,00
5,403178	171,635298	29612,00
5,403258	171,515447	29735,00
5,403225	171,515447	29911,00
5,403212	171,997070	30065,00
5,403250	171,816184	30214,00
5,403249	171,455522	30361,00
5,403178	171,395597	30489,00
5,403228	171,214711	30629,00
5,403199	171,515447	30774,00
5,403198	171,274636	30976,00
5,403205	171,034934	31122,00
5,403190	171,214711	31261,00
5,403202	171,154785	31393,00
5,403250	171,395597	31527,00
5,403267	171,214711	31677,00
5,403234	171,214711	31816,00
5,403162	171,034934	31951,00
5,403240	171,575373	32100,00
5,403247	171,154785	32270,00
5,403237	171,034934	32405,00
5,403242	170,854048	32558,00
5,403266	170,132724	32695,00
5,403149	170,553311	32847,00
5,403229	170,733088	32985,00
5,403294	170,913974	33138,00
5,403296	170,673162	33285,00
5,403238	171,034934	33426,00
5,403257	171,334561	33571,00
5,403243	171,395597	33706,00
5,403232	171,094860	33850,00
5,403209	170,794123	33991,00
5,403186	170,673162	34141,00
5,403287	170,794123	34301,00
5,403251	170,553311	34450,00
5,403260	171,696333	34595,00
5,403231	171,515447	34741,00
5,403216	170,973899	34892,00
5,403259	171,214711	35044,00
5,403285	170,673162	35185,00
5,403267	171,214711	35314,00
5,403304	171,395597	35450,00
5,403252	171,395597	35596,00
5,403208	170,973899	35739,00
5,403229	171,334561	35863,00
5,403252	171,515447	35997,00
5,403209	171,756259	36148,00
5,403285	171,154785	36301,00
5,403150	170,973899	36450,00
5,403231	171,455522	36573,00
5,403219	171,515447	36752,00
5,403250	171,334561	36902,00
5,403262	171,274636	37042,00
5,403291	171,154785	37185,00
5,403284	170,794123	37317,00
5,403182	171,214711	37458,00
5,403247	170,913974	37611,00
5,403239	170,794123	37756,00
5,403198	171,094860	37892,00
5,403235	171,455522	38017,00
5,403212	171,455522	38154,00
5,403233	171,094860	38275,00
5,403236	171,034934	38419,00
5,403292	171,214711	38557,00
5,403248	171,274636	38704,00
5,403221	170,913974	38828,00
5,403210	170,973899	38965,00
5,403228	171,274636	39125,00
5,403252	170,192649	39260,00
5,403240	170,433461	39404,00
5,403198	171,094860	39527,00
5,403203	170,312500	39681,00
5,403299	170,854048	39824,00
5,403220	171,094860	39956,00
5,403238	170,493386	40081,00
5,403220	170,733088	40221,00
5,403242	170,913974	40371,00
5,403207	171,274636	40511,00
5,403210	170,794123	40659,00
5,403172	171,395597	40789,00
5,403274	171,274636	40927,00
5,403266	171,050471	41067,00
5,403196	170,493386	41190,00
5,403233	170,372425	41332,00
5,403215	170,854048	41466,00
5,403239	171,094860	41606,00
5,403258	170,673162	41742,00
5,403271	171,154785	41886,00
5,403215	170,913974	42025,00
5,403231	170,854048	42169,00
5,403214	170,132724	42330,00
5,403198	170,132724	42471,00
5,403266	170,854048	42598,00
5,403266	170,854048	42746,00
5,403214	170,794123	42881,00
5,402237	171,214711	43028,00
5,401237	169,471325	43184,00
5,400216	169,109553	43328,00
5,399234	168,147417	43470,00
5,398235	167,545943	43603,00
5,397240	166,103294	43735,00
5,396273	165,922408	43887,00
5,395270	164,179022	44027,00
5,394212	163,456587	44153,00
5,393200	162,735263	44297,00
5,392261	162,494451	44437,00
5,391276	160,751065	44592,00
5,390201	158,946644	44740,00
5,389220	159,006570	44892,00
5,388268	157,743697	45038,00
5,387227	156,721635	45194,00
5,386302	156,060236	45352,00
5,385192	155,038175	45496,00
5,384203	154,134854	45641,00
5,383283	153,654341	45787,00
5,382253	152,632280	45913,00
5,381269	151,730069	46057,00
5,380237	150,286310	46198,00
5,379240	149,204324	46342,00
5,378269	148,242187	46468,00
5,377242	147,640714	46614,00
5,376175	146,617543	46760,00
5,375216	145,956143	46901,00
5,374232	144,814231	47049,00
5,373235	143,551358	47195,00
5,372242	143,129661	47340,00
5,371215	142,589222	47475,00
5,370243	140,183327	47619,00
5,369277	138,920455	47761,00
5,368271	139,100231	47907,00
5,367307	137,837358	48049,00
5,366205	136,996183	48200,00
5,365267	135,552424	48369,00
5,364257	133,928888	48512,00
5,363292	133,928888	48666,00
5,362202	132,305353	48815,00
5,361270	132,305353	48947,00
5,360239	130,922630	49069,00
5,359292	130,620783	49211,00
5,358248	130,080344	49358,00
5,357272	128,636586	49500,00
5,356238	127,614524	49629,00
5,355201	126,953125	49796,00
5,354286	126,411577	49951,00
5,353240	125,208629	50074,00
5,352237	124,126642	50224,00
5,351231	123,405318	50372,00
5,350283	122,141335	50516,00
5,349217	121,300160	50661,00
5,348194	120,637651	50807,00
5,347280	119,916326	50965,00
5,346262	119,195002	51106,00
5,345197	117,751243	51234,00
5,344218	116,969993	51373,00
5,343251	115,826971	51530,00
5,342220	115,165572	51672,00
5,341281	113,962624	51814,00
5,340259	112,820712	51963,00
5,339273	111,617765	52106,00
5,338267	111,557839	52231,00
5,337264	110,534668	52377,00
5,336247	109,692383	52523,00
5,335246	107,769221	52673,00
5,334293	107,948997	52821,00
5,333243	106,566273	52947,00
5,332281	104,942738	53086,00
5,331244	104,580966	53241,00
5,330263	103,258168	53384,00
5,329268	103,198242	53524,00
5,328234	102,055220	53686,00
5,327187	101,754483	53825,00
5,326281	100,491610	53955,00
5,325266	99,650435	54103,00
5,324183	98,567338	54244,00
5,323278	97,244540	54389,00
5,322280	96,522106	54556,00
5,321357	95,380194	54718,00
5,320278	94,898571	54850,00
5,319296	94,959606	54997,00
5,318224	93,095259	55131,00
5,317270	92,673562	55281,00
5,316230	91,831277	55437,00
5,315291	90,087891	55581,00
5,314223	89,606268	55724,00
5,313252	89,004794	55857,00
5,312259	88,223544	55987,00
5,311237	87,862882	56130,00
5,310300	86,840820	56258,00
5,309302	84,674627	56409,00
5,308298	84,254039	56554,00
5,307260	83,231978	56689,00
5,306294	83,112127	56843,00
5,305259	82,149991	56996,00
5,304223	81,427557	57140,00
5,303310	79,804022	57279,00
5,302332	79,563210	57420,00
5,301286	78,421298	57585,00
5,300235	77,157315	57719,00
5,299308	76,316140	57853,00
5,298350	75,233043	57999,00
5,297346	75,233043	58136,00
5,296242	74,031206	58284,00
5,295252	72,768333	58419,00
5,294285	72,105824	58590,00
5,293267	71,685236	58738,00
5,292280	70,121626	58884,00
5,291271	70,001776	59013,00
5,290257	69,460227	59159,00
5,289290	67,956543	59310,00
5,288223	67,776767	59454,00
5,287233	66,874556	59609,00
5,286325	65,972346	59762,00
5,285316	64,829324	59929,00
5,284253	63,687411	60078,00
5,283310	62,725275	60214,00
5,282253	61,521218	60372,00
5,281273	60,799893	60513,00
5,280251	60,319380	60650,00
5,279229	58,755771	60779,00
5,278284	57,612749	60920,00
5,277271	56,650613	61060,00
5,276319	56,409801	61182,00
5,275252	55,809437	61320,00
5,274247	54,606490	61457,00
5,273309	52,802069	61591,00
5,272268	53,403542	61725,00
5,271260	51,358310	61869,00
5,270291	50,517134	62016,00
5,269278	49,674849	62139,00
5,268296	48,832564	62287,00
5,267269	48,591752	62441,00
5,266337	47,810502	62592,00
5,265334	47,149103	62748,00
5,264221	45,705344	62881,00
5,263264	45,886230	63037,00
5,262296	44,502397	63174,00
5,261225	44,021884	63324,00
5,260300	43,360485	63529,00
5,259251	41,796875	63678,00
5,258284	41,255327	63813,00
5,257321	41,014515	63936,00
5,256253	39,090243	64085,00
5,255280	38,669656	64233,00
5,254221	37,827370	64381,00
5,253266	36,805309	64520,00
5,252343	36,323686	64653,00
5,251309	36,082875	64786,00
5,250294	35,120739	64926,00
5,249273	33,797940	65048,00
5,248338	33,316317	65192,00
5,247253	31,873668	65331,00
5,246287	32,174405	65470,00
5,245262	29,888361	65604,00
5,244239	29,287997	65743,00
5,243249	29,347923	65898,00
5,242261	28,926225	66037,00
5,241273	27,603427	66189,00
5,240277	26,641291	66335,00
5,239280	26,160778	66464,00
5,238303	24,776944	66602,00
5,237261	23,573997	66740,00
5,236253	23,273260	66866,00
5,235200	21,950462	67010,00
5,234334	21,890536	67162,00
5,233294	21,649725	67299,00
5,232292	20,026190	67450,00
5,231277	19,064054	67597,00
5,230315	18,342729	67756,00
5,229304	17,500444	67905,00
5,228304	16,478382	68045,00
5,227222	15,215510	68190,00
5,226290	14,554110	68351,00
5,225264	14,673961	68506,00
5,224304	13,411088	68645,00
5,223304	12,508878	68772,00
5,222282	11,787553	68907,00
5,221284	10,765492	69058,00
5,220295	10,584606	69199,00
5,219266	9,802246	69323,00
5,218279	9,441584	69467,00
5,217303	8,359597	69609,00
5,216296	7,517312	69759,00
5,215339	6,254439	69902,00
5,214296	5,833851	70025,00
5,213332	5,111417	70177,00
5,212283	4,690829	70322,00
5,211268	4,029430	70474,00
5,210282	2,826483	70615,00
5,209345	2,045233	70757,00
5,208240	1,804421	70883,00
5,207295	1,623535	71023,00
5,206323	0,240811	71179,00
5,205251	0,240811	71318,00
5,204314	-0,180886	71455,00
5,203310	-0,782360	71583,00