File: Nanoindentation Datenauswertung/data/0,7um
Quasi static measurement routine
Tip parameters (shape,radius, material...)
11.07.2022

Piezo position[nm]	MEMS displ.[nm]	Time[ms]	Cap [pf]
eoh
2,375882	0,853930	0,170	-0,105129
2,377883	0,792051	0,220	-0,105156
2,379928	0,304895	0,270	-0,105368
2,381893	0,731297	0,321	-0,105183
2,383895	0,121508	0,371	-0,105447
2,385885	0,182262	0,421	-0,105421
2,387935	0,609789	0,471	-0,105235
2,389899	-0,183387	0,521	-0,105580
2,391924	0,060754	0,571	-0,105474
2,393910	0,182262	0,645	-0,105421
2,395880	-0,670543	0,695	-0,105791
2,397881	-0,793176	0,746	-0,105844
2,399922	-0,670543	0,796	-0,105791
2,401894	-0,975437	0,846	-0,105923
2,403878	-1,158824	0,897	-0,106003
2,405895	-1,342211	0,947	-0,106083
2,407941	-1,036191	1,005	-0,105950
2,409928	-1,098070	1,060	-0,105977
2,411891	-1,524473	1,111	-0,106162
2,413905	-1,280332	1,161	-0,106056
2,415899	-1,463719	1,211	-0,106135
2,417874	-1,707859	1,261	-0,106241
2,419911	-1,280332	1,312	-0,106056
2,421902	-1,524473	1,363	-0,106162
2,423875	-1,950875	1,436	-0,106347
2,425884	-1,707859	1,486	-0,106241
2,427861	-2,195015	1,536	-0,106453
2,429895	-1,890121	1,586	-0,106320
2,431881	-2,621418	1,636	-0,106638
2,433862	-3,109699	1,687	-0,106850
2,435927	-2,744051	1,738	-0,106691
2,437931	-2,378402	1,814	-0,106532
2,439872	-2,865558	1,864	-0,106744
2,441936	-3,170453	1,914	-0,106876
2,443875	-3,475347	1,964	-0,107008
2,445866	-3,536101	2,014	-0,107035
2,447875	-4,085136	2,064	-0,107273
2,449917	-3,780242	2,114	-0,107141
2,451876	-3,597980	2,164	-0,107062
2,453834	-4,267398	2,215	-0,107352
2,455867	-3,840996	2,274	-0,107167
2,457868	-4,634172	2,324	-0,107511
2,459919	-4,511539	2,375	-0,107458
2,461885	-4,573418	2,425	-0,107485
2,463945	-5,183207	2,475	-0,107750
2,465883	-5,060574	2,525	-0,107696
2,467911	-5,426222	2,575	-0,107855
2,469909	-5,426222	2,651	-0,107855
2,471874	-5,853750	2,701	-0,108041
2,473929	-8,170273	2,751	-0,109046
2,475879	-7,986886	2,801	-0,108966
2,477886	-7,438976	2,851	-0,108729
2,479920	-7,621238	2,901	-0,108808
2,481861	-7,865378	2,951	-0,108914
2,483888	-7,865378	3,010	-0,108914
2,485892	-7,986886	3,060	-0,108966
2,487947	-7,865378	3,111	-0,108914
2,489887	-8,414414	3,162	-0,109152
2,491891	-8,414414	3,212	-0,109152
2,493907	-8,291781	3,263	-0,109099
2,495934	-8,719308	3,313	-0,109284
2,497902	-12,804444	3,364	-0,111057
2,499879	-12,925952	3,436	-0,111110
2,501927	-12,925952	3,487	-0,111110
2,503888	-12,072023	3,537	-0,110739
2,505882	-11,829007	3,587	-0,110634
2,507859	-13,779882	3,638	-0,111480
2,509871	-13,352355	3,688	-0,111295
2,511925	-13,657249	3,738	-0,111427
2,513904	-13,474987	3,788	-0,111348
2,515908	-14,206284	3,857	-0,111666
2,517877	-13,108214	3,907	-0,111189
2,519903	-16,706194	3,957	-0,112750
2,521933	-16,462054	4,007	-0,112645
2,523903	-16,340546	4,057	-0,112592
2,525866	-16,522807	4,107	-0,112671
2,527872	-17,742386	4,158	-0,113200
2,529894	-18,840456	4,219	-0,113677
2,531894	-19,083471	4,283	-0,113782
2,533877	-19,388366	4,334	-0,113915
2,535866	-19,266858	4,384	-0,113862
2,537880	-19,998155	4,435	-0,114179
2,539904	-20,119663	4,485	-0,114232
2,541890	-19,754014	4,535	-0,114073
2,543885	-20,060034	4,614	-0,114206
2,545871	-20,486436	4,676	-0,114391
2,547897	-20,425682	4,727	-0,114365
2,549896	-21,583381	4,777	-0,114867
2,551893	-21,766768	4,828	-0,114947
2,553890	-29,937041	4,878	-0,118493
2,555903	-32,679967	4,928	-0,119683
2,557856	-32,558459	4,985	-0,119630
2,559906	-31,278127	5,035	-0,119075
2,561894	-29,814408	5,086	-0,118439
2,563889	-29,327252	5,136	-0,118228
2,565889	-27,619393	5,186	-0,117487
2,567847	-26,766588	5,236	-0,117117
2,569872	-26,278307	5,286	-0,116905
2,571896	-24,205924	5,336	-0,116005
2,573959	-23,047100	5,386	-0,115502
2,575944	-21,522627	5,437	-0,114841
2,577888	-20,852085	5,487	-0,114550
2,579955	-19,632506	5,537	-0,114021
2,581853	-19,206104	5,587	-0,113835
2,583885	-18,291421	5,637	-0,113438
2,585867	-17,071843	5,687	-0,112909
2,587894	-16,157159	5,738	-0,112512
2,589906	-14,084776	5,788	-0,111613
2,591886	-13,962144	5,838	-0,111560
2,593882	-13,230847	5,888	-0,111242
2,595917	-11,950515	5,939	-0,110687
2,597873	-11,462234	5,989	-0,110475
2,599861	-10,181902	6,039	-0,109919
2,601852	-9,206464	6,090	-0,109496
2,603916	-8,231027	6,141	-0,109072
2,605891	-7,316343	6,191	-0,108675
2,607868	-4,999820	6,242	-0,107670
2,609938	-5,060574	6,292	-0,107696
2,611904	-4,267398	6,342	-0,107352
2,613874	-3,048945	6,392	-0,106823
2,615912	-1,280332	6,442	-0,106056
2,617922	-0,122633	6,492	-0,105553
2,619866	0,547910	6,542	-0,105262
2,621897	1,950875	6,592	-0,104653
2,623905	2,926312	6,642	-0,104230
2,625911	3,475347	6,692	-0,103992
2,627898	4,450785	6,742	-0,103568
2,629862	5,913378	6,792	-0,102934
2,631900	7,072203	6,843	-0,102431
2,633867	8,352535	6,894	-0,101875
2,635882	9,572113	6,944	-0,101346
2,637867	10,181902	7,018	-0,101081
2,639903	11,767128	7,068	-0,100393
2,641850	12,559179	7,118	-0,100049
2,643851	13,840636	7,168	-0,099493
2,645890	15,181722	7,218	-0,098911
2,647871	16,157159	7,268	-0,098488
2,649868	16,583561	7,318	-0,098303
2,651865	17,985401	7,368	-0,097694
2,653921	19,449120	7,419	-0,097059
2,655876	20,607944	7,469	-0,096556
2,657910	21,888276	7,519	-0,096000
2,659939	23,473502	7,569	-0,095313
2,661885	25,119483	7,620	-0,094598
2,663899	26,339061	7,671	-0,094069
2,665895	26,886971	7,722	-0,093831
2,667890	28,655584	7,772	-0,093063
2,669867	30,180057	7,840	-0,092402
2,671930	31,277002	7,890	-0,091926
2,673861	32,924107	7,940	-0,091211
2,675893	34,447455	7,990	-0,090550
2,677886	35,850419	8,040	-0,089941
2,679888	37,374892	8,090	-0,089279
2,681878	39,142380	8,140	-0,088512
2,683871	38,471837	8,191	-0,088803
2,685914	41,520782	8,249	-0,087480
2,687896	43,714673	8,300	-0,086528
2,689900	44,386341	8,351	-0,086236
2,691857	45,910813	8,401	-0,085575
2,693900	48,227337	8,451	-0,084569
2,695954	49,385036	8,501	-0,084067
2,697861	50,666493	8,551	-0,083511
2,699912	51,702684	8,616	-0,083061
2,701917	53,226031	8,667	-0,082400
2,703882	54,507488	8,717	-0,081844
2,705900	56,274977	8,767	-0,081077
2,707840	57,555309	8,817	-0,080521
2,709902	57,981711	8,867	-0,080336
2,711919	60,115972	8,917	-0,079410
2,713914	61,579691	8,968	-0,078774
2,715876	62,250234	9,021	-0,078483
2,717877	64,079601	9,072	-0,077689
2,719920	66,030476	9,123	-0,076843
2,721854	66,456878	9,174	-0,076658
2,723912	68,042105	9,224	-0,075970
2,725883	69,261683	9,274	-0,075440
2,727898	70,053733	9,324	-0,075097
2,729905	71,151804	9,374	-0,074620
2,731885	72,187995	9,425	-0,074170
2,733866	73,225311	9,476	-0,073720
2,735858	73,651714	9,526	-0,073535
2,737869	75,115432	9,576	-0,072900
2,739881	75,115432	9,627	-0,072900
2,741862	75,724096	9,678	-0,072636
2,743880	77,066307	9,729	-0,072053
2,745905	77,553463	9,779	-0,071842
2,747902	79,199444	9,835	-0,071127
2,749880	80,174881	9,885	-0,070704
2,751885	80,907303	9,935	-0,070386
2,753865	81,455213	9,986	-0,070148
2,755898	82,309143	10,036	-0,069778
2,757918	83,223826	10,086	-0,069381
2,759847	84,199264	10,137	-0,068958
2,761882	85,113947	10,219	-0,068561
2,763879	87,125576	10,280	-0,067687
2,765899	87,492350	10,330	-0,067528
2,767866	89,259838	10,380	-0,066761
2,769852	89,015697	10,430	-0,066867
2,771865	90,418662	10,480	-0,066258
2,773926	91,638240	10,531	-0,065729
2,775888	93,161587	10,581	-0,065068
2,777869	94,259658	10,631	-0,064591
2,779867	94,625306	10,681	-0,064433
2,781885	97,064462	10,731	-0,063374
2,783906	97,246724	10,782	-0,063295
2,785889	98,223286	10,832	-0,062871
2,787888	99,320231	10,882	-0,062395
2,789921	100,539810	10,933	-0,061866
2,791853	101,576001	10,983	-0,061416
2,793867	102,795579	11,033	-0,060887
2,795915	104,320051	11,084	-0,060225
2,797910	105,233610	11,134	-0,059829
2,799934	106,453188	11,185	-0,059299
2,801905	107,551258	11,235	-0,058823
2,803881	108,892344	11,285	-0,058241
2,805934	109,136485	11,335	-0,058135
2,807885	111,208867	11,385	-0,057235
2,809891	112,672586	11,456	-0,056600
2,811910	113,831410	11,507	-0,056097
2,813864	113,708777	11,558	-0,056150
2,815944	114,989109	11,609	-0,055595
2,817856	116,635090	11,659	-0,054880
2,819889	117,184125	11,709	-0,054642
2,821876	118,220316	11,760	-0,054192
2,823868	119,562527	11,810	-0,053610
2,825888	119,988929	11,860	-0,053425
2,827878	122,428085	11,910	-0,052366
2,829897	123,464277	11,960	-0,051917
2,831874	123,769171	12,011	-0,051784
2,833881	125,049503	12,062	-0,051229
2,835896	125,475905	12,113	-0,051043
2,837863	126,573976	12,163	-0,050567
2,839860	127,854308	12,216	-0,050011
2,841865	128,464097	12,266	-0,049747
2,843878	129,805183	12,316	-0,049165
2,845871	131,146268	12,367	-0,048583
2,847930	131,939444	12,418	-0,048238
2,849917	133,097143	12,468	-0,047736
2,851946	134,682370	12,518	-0,047048
2,853872	135,292159	12,569	-0,046783
2,855900	135,780440	12,619	-0,046571
2,857847	138,218471	12,670	-0,045513
2,859911	138,645998	12,720	-0,045328
2,861834	139,316541	12,771	-0,045037
2,863872	141,206662	12,821	-0,044216
2,865949	141,449678	12,871	-0,044111
2,867810	142,547748	12,921	-0,043634
2,869929	144,011467	12,972	-0,042999
2,871864	145,291799	13,033	-0,042443
2,873921	145,474060	13,084	-0,042364
2,875890	146,815146	13,134	-0,041782
2,877878	147,608322	13,185	-0,041438
2,879804	148,644513	13,235	-0,040988
2,881894	150,352373	13,286	-0,040247
2,883856	151,570826	13,336	-0,039718
2,885890	152,303247	13,415	-0,039400
2,887883	154,498263	13,465	-0,038448
2,889868	154,803157	13,516	-0,038315
2,891872	155,900103	13,566	-0,037839
2,893934	157,546083	13,616	-0,037125
2,895890	158,582274	13,666	-0,036675
2,897881	159,863731	13,716	-0,036119
2,899874	160,899923	13,767	-0,035669
2,901882	161,753852	13,817	-0,035299
2,903844	162,667411	13,868	-0,034902
2,905837	163,460586	13,918	-0,034558
2,907842	164,496778	13,968	-0,034108
2,909908	165,289954	14,018	-0,033764
2,911863	166,203512	14,068	-0,033368
2,913886	166,386899	14,119	-0,033288
2,915864	167,119321	14,169	-0,032970
2,917848	168,277020	14,220	-0,032468
2,919893	168,094758	14,270	-0,032547
2,921911	168,947563	14,320	-0,032177
2,923863	169,557352	14,370	-0,031912
2,925899	170,472035	14,420	-0,031515
2,927903	170,960316	14,470	-0,031303
2,929873	170,472035	14,520	-0,031515
2,931909	172,606297	14,570	-0,030589
2,933829	173,825875	14,620	-0,030060
2,935892	174,008137	14,671	-0,029980
2,937871	175,776750	14,722	-0,029213
2,939882	176,934449	14,772	-0,028710
2,941887	179,007957	14,822	-0,027811
2,943857	179,496238	14,872	-0,027599
2,945903	180,593183	14,923	-0,027123
2,947876	181,752007	14,973	-0,026620
2,949915	182,178409	15,029	-0,026435
2,951854	183,458741	15,079	-0,025879
2,953844	185,227355	15,129	-0,025111
2,955878	186,080159	15,179	-0,024741
2,957916	187,421245	15,229	-0,024159
2,959874	188,153667	15,279	-0,023841
2,961894	189,860401	15,329	-0,023101
2,963841	189,738893	15,379	-0,023153
2,965853	192,238803	15,441	-0,022068
2,967895	193,214241	15,492	-0,021645
2,969870	194,494573	15,542	-0,021089
2,971869	195,348502	15,592	-0,020719
2,973931	196,689588	15,642	-0,020137
2,975871	197,542393	15,692	-0,019767
2,977865	198,701217	15,742	-0,019264
2,979833	199,250252	15,792	-0,019025
2,981892	200,835478	15,843	-0,018337
2,983893	201,322635	15,893	-0,018126
2,985866	202,907861	15,944	-0,017438
2,987890	203,822545	15,994	-0,017041
2,989893	205,286263	16,044	-0,016406
2,991852	205,896052	16,095	-0,016141
2,993908	207,114505	16,146	-0,015612
2,995916	207,907681	16,196	-0,015268
2,997912	209,310646	16,259	-0,014659
2,999921	210,468345	16,309	-0,014157
3,001874	210,833993	16,360	-0,013998
3,003846	211,443782	16,410	-0,013733
3,005864	212,176204	16,461	-0,013416
3,007849	212,907501	16,511	-0,013098
3,009884	213,456536	16,561	-0,012860
3,011871	214,553481	16,611	-0,012384
3,013853	215,345532	16,661	-0,012040
3,015882	217,174899	16,712	-0,011246
3,017871	218,150337	16,762	-0,010823
3,019886	219,309161	16,812	-0,010320
3,021847	220,894387	16,862	-0,009632
3,023862	221,443422	16,913	-0,009394
3,025890	223,089403	16,964	-0,008679
3,027850	224,064840	17,016	-0,008256
3,029908	225,589313	17,066	-0,007594
3,031871	226,259856	17,116	-0,007303
3,033845	227,296047	17,166	-0,006854
3,035882	228,149977	17,216	-0,006483
3,037945	229,551816	17,266	-0,005875
3,039852	230,284238	17,316	-0,005557
3,041903	231,441937	17,366	-0,005054
3,043893	232,600761	17,416	-0,004551
3,045897	233,636953	17,466	-0,004102
3,047888	234,733898	17,516	-0,003625
3,049904	236,746652	17,567	-0,002752
3,051908	237,661335	17,617	-0,002355
3,053831	238,515265	17,667	-0,001984
3,055885	239,489577	17,718	-0,001562
3,057864	240,587648	17,768	-0,001085
3,059879	242,051366	17,819	-0,000450
3,061906	240,892542	17,869	-0,000953
3,063826	244,489397	17,920	0,000608
3,065879	243,636593	17,970	0,000238
3,067887	244,612030	18,020	0,000662
3,069857	245,587468	18,070	0,001085
3,071834	246,013870	18,120	0,001270
3,073856	246,684413	18,170	0,001561
3,075814	247,903991	18,220	0,002090
3,075878	247,599096	18,270	0,001958
3,075846	247,659850	18,320	0,001984
3,075887	247,659850	18,370	0,001984
3,075858	247,233448	18,420	0,001799
3,075866	246,623659	18,470	0,001535
3,075880	246,013870	18,521	0,001270
3,075831	246,196132	18,571	0,001349
3,075870	246,258011	18,624	0,001376
3,075838	246,196132	18,674	0,001349
3,075872	246,013870	18,724	0,001270
3,075854	246,318764	18,774	0,001402
3,075837	246,013870	18,824	0,001270
3,075856	246,136503	18,874	0,001323
3,075862	246,013870	18,924	0,001270
3,075848	245,953116	18,975	0,001244
3,075840	246,013870	19,026	0,001270
3,075847	245,892362	19,076	0,001217
3,075832	245,769729	19,126	0,001164
3,075857	246,318764	19,176	0,001402
3,075860	245,404081	19,226	0,001005
3,075863	245,708975	19,276	0,001138
3,075835	245,159940	19,326	0,000899
3,075854	245,159940	19,376	0,000899
3,075834	246,379518	19,434	0,001429
3,075835	245,587468	19,485	0,001085
3,075857	245,099186	19,535	0,000873
3,075853	245,708975	19,585	0,001138
3,075853	245,526714	19,636	0,001059
3,075829	245,038432	19,686	0,000847
3,075828	245,159940	19,736	0,000899
3,075844	244,977679	19,786	0,000820
3,075888	245,038432	19,838	0,000847
3,075883	244,916925	19,889	0,000794
3,075897	245,159940	19,940	0,000899
3,075823	245,159940	19,991	0,000899
3,075852	245,038432	20,041	0,000847
3,075867	244,977679	20,091	0,000820
3,075849	245,159940	20,141	0,000899
3,075829	245,282573	20,191	0,000953
3,075835	245,220694	20,244	0,000926
3,075836	245,038432	20,294	0,000847
3,075815	245,159940	20,344	0,000899
3,075827	244,977679	20,394	0,000820
3,075833	245,282573	20,444	0,000953
3,075851	245,038432	20,494	0,000847
3,075863	245,038432	20,544	0,000847
3,075822	245,220694	20,609	0,000926
3,075810	244,855046	20,659	0,000767
3,075876	245,099186	20,709	0,000873
3,075881	244,977679	20,759	0,000820
3,075809	245,159940	20,809	0,000899
3,075895	244,855046	20,860	0,000767
3,075854	244,612030	20,910	0,000662
3,075842	245,220694	20,960	0,000926
3,075854	245,526714	21,014	0,001059
3,075917	245,099186	21,065	0,000873
3,075859	244,672784	21,115	0,000688
3,075868	245,038432	21,165	0,000847
3,075863	245,038432	21,215	0,000847
3,075871	244,916925	21,265	0,000794
3,075911	244,672784	21,315	0,000688
3,075833	244,916925	21,365	0,000794
3,075863	244,794292	21,415	0,000741
3,075866	244,916925	21,465	0,000794
3,075877	244,733538	21,515	0,000714
3,075905	244,916925	21,565	0,000794
3,075868	244,977679	21,616	0,000820
3,075832	244,855046	21,666	0,000767
3,075825	244,916925	21,716	0,000794
3,075814	244,977679	21,766	0,000820
3,075897	245,099186	21,816	0,000873
3,075873	244,916925	21,866	0,000794
3,075840	244,733538	21,916	0,000714
3,075862	244,916925	21,966	0,000794
3,075899	244,855046	22,017	0,000767
3,075885	244,550151	22,068	0,000635
3,075860	244,916925	22,118	0,000794
3,075892	244,489397	22,169	0,000608
3,075849	244,916925	22,229	0,000794
3,075860	244,794292	22,280	0,000741
3,075855	244,733538	22,331	0,000714
3,075859	244,489397	22,382	0,000608
3,075830	244,733538	22,432	0,000714
3,075879	244,428643	22,482	0,000582
3,075864	244,550151	22,533	0,000635
3,075869	244,733538	22,583	0,000714
3,075865	244,855046	22,636	0,000767
3,075839	244,550151	22,686	0,000635
3,075863	244,977679	22,736	0,000820
3,075888	244,916925	22,786	0,000794
3,075887	244,733538	22,837	0,000714
3,075865	244,550151	22,887	0,000635
3,075872	244,612030	22,938	0,000662
3,075906	244,916925	22,989	0,000794
3,075892	244,733538	23,044	0,000714
3,075891	245,220694	23,094	0,000926
3,075881	244,612030	23,144	0,000662
3,075910	244,550151	23,194	0,000635
3,075907	244,977679	23,245	0,000820
3,075855	244,977679	23,295	0,000820
3,073866	243,026804	23,345	-0,000026
3,071850	243,087558	23,395	0,000000
3,069853	241,623839	23,445	-0,000635
3,067907	239,856351	23,495	-0,001402
3,065862	238,331878	23,545	-0,002064
3,063859	237,233808	23,595	-0,002541
3,061869	235,161425	23,645	-0,003440
3,059899	233,636953	23,696	-0,004102
3,057852	232,722269	23,746	-0,004499
3,055887	230,710640	23,810	-0,005372
3,053795	229,430309	23,860	-0,005927
3,051900	228,454871	23,910	-0,006351
3,049868	226,991152	23,961	-0,006986
3,047904	225,345172	24,012	-0,007700
3,045892	225,771574	24,062	-0,007515
3,043903	222,601121	24,112	-0,008891
3,041850	221,748317	24,163	-0,009261
3,039874	219,797442	24,216	-0,010108
3,037881	218,699372	24,266	-0,010584
3,035888	216,748497	24,316	-0,011431
3,033885	215,955321	24,366	-0,011775
3,031881	214,858376	24,417	-0,012251
3,029850	212,663360	24,468	-0,013204
3,027893	211,260396	24,519	-0,013813
3,025892	209,858556	24,569	-0,014421
3,023909	207,907681	24,620	-0,015268
3,021831	206,871490	24,670	-0,015718
3,019912	205,591158	24,720	-0,016273
3,017876	204,248947	24,770	-0,016856
3,015893	202,420705	24,820	-0,017649
3,013889	201,322635	24,870	-0,018126
3,011868	198,883479	24,920	-0,019185
3,009850	198,030674	24,970	-0,019555
3,007871	197,176744	25,020	-0,019925
3,005876	195,652272	25,070	-0,020587
3,003893	193,396502	25,120	-0,021566
3,001876	192,665206	25,170	-0,021883
2,999886	191,506381	25,220	-0,022386
2,997888	189,799647	25,271	-0,023127
2,995881	188,275175	25,321	-0,023789
2,993878	185,958651	25,371	-0,024794
2,991879	184,799827	25,422	-0,025297
2,989859	183,153847	25,473	-0,026011
2,987917	181,934269	25,524	-0,026541
2,985906	180,775445	25,575	-0,027043
2,983869	179,129464	25,625	-0,027758
2,981923	178,214781	25,675	-0,028155
2,979859	176,508047	25,725	-0,028896
2,977891	174,678679	25,776	-0,029689
2,975889	173,581734	25,826	-0,030166
2,973894	172,178769	25,876	-0,030774
2,971868	171,021070	25,926	-0,031277
2,969873	169,375090	25,976	-0,031991
2,967853	167,972125	26,026	-0,032600
2,965867	166,509532	26,076	-0,033235
2,963849	164,985059	26,126	-0,033896
2,961878	163,704727	26,177	-0,034452
2,959891	162,667411	26,237	-0,034902
2,957862	160,655782	26,287	-0,035775
2,955870	159,436204	26,337	-0,036305
2,953884	158,278505	26,387	-0,036807
2,951880	156,754032	26,438	-0,037469
2,949878	155,412946	26,488	-0,038051
2,947884	154,314876	26,538	-0,038527
2,945891	152,303247	26,588	-0,039400
2,943873	151,022915	26,639	-0,039956
2,941863	149,437689	26,690	-0,040644
2,939885	148,278865	26,740	-0,041147
2,937904	146,815146	26,790	-0,041782
2,935871	145,291799	26,840	-0,042443
2,933883	144,682010	26,890	-0,042708
2,931878	142,547748	26,940	-0,043634
2,929879	141,449678	27,009	-0,044111
2,927829	139,742944	27,059	-0,044852
2,925829	138,584119	27,109	-0,045354
2,923930	136,695123	27,160	-0,046174
2,921879	135,292159	27,210	-0,046783
2,919884	134,621616	27,261	-0,047074
2,917887	132,975635	27,311	-0,047789
2,915871	131,451163	27,361	-0,048450
2,913817	130,780620	27,417	-0,048741
2,911881	128,402218	27,467	-0,049773
2,909834	126,390589	27,518	-0,050646
2,907921	126,512097	27,568	-0,050594
2,905884	124,500468	27,618	-0,051467
2,903863	123,341644	27,668	-0,051970
2,901860	121,756417	27,719	-0,052658
2,899859	119,866296	27,769	-0,053478
2,897908	118,952738	27,820	-0,053875
2,895851	117,184125	27,870	-0,054642
2,893883	115,720406	27,920	-0,055277
2,891923	114,197059	27,970	-0,055938
2,889919	112,916727	28,021	-0,056494
2,887853	111,697149	28,071	-0,057023
2,885920	109,562887	28,121	-0,057950
2,883857	108,161047	28,171	-0,058558
2,881854	106,941469	28,221	-0,059087
2,879864	105,843399	28,272	-0,059564
2,877877	104,320051	28,322	-0,060225
2,875884	102,856333	28,373	-0,060860
2,873899	101,392614	28,423	-0,061496
2,871895	99,807388	28,473	-0,062184
2,869891	98,892704	28,523	-0,062581
2,867902	96,881075	28,573	-0,063454
2,865899	95,417357	28,624	-0,064089
2,863875	94,564552	28,674	-0,064459
2,861881	93,284220	28,725	-0,065015
2,859844	91,759748	28,775	-0,065676
2,857863	89,930381	28,826	-0,066470
2,855881	88,161767	28,876	-0,067238
2,853881	87,553103	28,926	-0,067502
2,851873	85,905998	28,976	-0,068217
2,849886	84,564912	29,042	-0,068799
2,847901	82,736670	29,092	-0,069592
2,845852	81,150319	29,142	-0,070281
2,843886	80,236760	29,193	-0,070677
2,841904	78,773041	29,243	-0,071313
2,839879	77,615342	29,293	-0,071815
2,837932	75,968237	29,343	-0,072530
2,835898	76,028991	29,394	-0,072503
2,833864	73,407573	29,448	-0,073641
2,831865	71,943854	29,498	-0,074276
2,829889	70,115612	29,548	-0,075070
2,827871	68,286245	29,598	-0,075864
2,825927	66,701019	29,649	-0,076552
2,823878	66,151984	29,699	-0,076790
2,821940	64,445249	29,749	-0,077531
2,819913	62,738515	29,808	-0,078271
2,817889	61,822707	29,858	-0,078669
2,815910	60,420867	29,909	-0,079277
2,813904	60,543500	29,960	-0,079224
2,811884	57,128906	30,010	-0,080706
2,809883	56,579871	30,060	-0,080944
2,807871	55,299539	30,110	-0,081500
2,805842	52,738875	30,160	-0,082611
2,803902	51,335910	30,220	-0,083220
2,801899	50,604614	30,271	-0,083538
2,799865	49,142020	30,321	-0,084172
2,797902	47,494915	30,372	-0,084887
2,795887	45,848934	30,422	-0,085602
2,793828	44,691235	30,472	-0,086104
2,791863	43,166763	30,523	-0,086766
2,789904	42,007939	30,573	-0,087269
2,787916	40,301204	30,623	-0,088009
2,785880	38,960118	30,673	-0,088591
2,783922	37,557154	30,723	-0,089200
2,781877	37,252259	30,773	-0,089333
2,779907	34,630841	30,824	-0,090470
2,777877	33,167123	30,874	-0,091105
2,775968	31,886791	30,924	-0,091661
2,773880	30,240810	30,974	-0,092375
2,771888	28,960478	31,029	-0,092931
2,769923	27,192990	31,080	-0,093698
2,767915	26,278307	31,130	-0,094095
2,765874	25,302869	31,181	-0,094519
2,763910	23,350869	31,231	-0,095366
2,761855	21,644135	31,281	-0,096106
2,759869	20,363803	31,331	-0,096662
2,757884	19,388366	31,381	-0,097085
2,755881	17,681632	31,432	-0,097826
2,753872	16,888456	31,482	-0,098170
2,751877	15,424737	31,532	-0,098806
2,749906	14,022897	31,582	-0,099414
2,747908	13,291601	31,633	-0,099731
2,745861	11,278847	31,684	-0,100605
2,743861	9,693620	31,734	-0,101293
2,741885	7,742746	31,784	-0,102140
2,739897	6,462414	31,839	-0,102695
2,737883	5,121328	31,890	-0,103277
2,735903	3,962504	31,940	-0,103780
2,733893	2,377277	31,991	-0,104468
2,731925	0,914684	32,041	-0,105103
2,729880	-0,060754	32,091	-0,105526
2,727860	-1,158824	32,141	-0,106003
2,725858	-1,645980	32,191	-0,106214
2,723924	-1,707859	32,250	-0,106241
2,721899	-2,255769	32,300	-0,106479
2,719863	-3,414594	32,350	-0,106982
2,717879	-3,170453	32,400	-0,106876
2,715887	-4,329277	32,450	-0,107379
2,713919	-5,304715	32,500	-0,107802
2,711880	-5,183207	32,550	-0,107750
2,709871	-5,060574	32,600	-0,107696
2,707851	-7,255589	32,659	-0,108649
2,705882	-5,791871	32,709	-0,108014
2,703891	-7,438976	32,759	-0,108729
2,701904	-7,621238	32,809	-0,108808
2,699906	-7,499730	32,859	-0,108755
2,697879	-9,206464	32,910	-0,109496
2,695885	-9,084956	32,961	-0,109443
2,693917	-10,365288	33,023	-0,109999
2,691885	-9,572113	33,073	-0,109654
2,689907	-10,365288	33,123	-0,109999
2,687889	-11,584866	33,173	-0,110528
2,685892	-11,767128	33,223	-0,110607
2,683866	-12,072023	33,273	-0,110739
2,681911	-12,925952	33,323	-0,111110
2,679922	-13,047460	33,373	-0,111163
2,677848	-13,718003	33,423	-0,111454
2,675941	-13,901390	33,473	-0,111533
2,673908	-14,755319	33,523	-0,111904
2,671905	-15,425862	33,574	-0,112195
2,669853	-15,913018	33,624	-0,112406
2,667921	-16,645440	33,674	-0,112724
2,665870	-17,742386	33,724	-0,113200
2,663922	-17,376737	33,774	-0,113042
2,661863	-18,169913	33,830	-0,113386
2,659897	-18,778577	33,880	-0,113650
2,657868	-19,327612	33,931	-0,113888
2,655901	-20,486436	33,981	-0,114391
2,653890	-20,729452	34,031	-0,114497
2,651928	-22,071663	34,081	-0,115079
2,649883	-22,498065	34,131	-0,115264
2,647880	-22,802959	34,181	-0,115396
2,645914	-23,047100	34,242	-0,115502
2,643954	-23,717643	34,292	-0,115793
2,641924	-24,632326	34,342	-0,116190
2,639872	-25,242115	34,393	-0,116455
2,637864	-25,973412	34,443	-0,116772
2,635925	-27,253744	34,493	-0,117328
2,633861	-27,497885	34,543	-0,117434
2,631892	-27,253744	34,593	-0,117328
2,629862	-27,314498	34,656	-0,117354
2,627875	-28,046920	34,706	-0,117672
2,625911	-27,619393	34,757	-0,117487
2,623879	-28,046920	34,807	-0,117672
2,621891	-28,350689	34,857	-0,117804
2,619938	-28,594830	34,908	-0,117910
2,617919	-27,985041	34,958	-0,117646
2,615905	-28,656709	35,016	-0,117937
2,613924	-30,058549	35,066	-0,118545
2,611877	-30,484951	35,116	-0,118730
2,609912	-30,729092	35,166	-0,118836
2,607927	-30,973232	35,217	-0,118942
2,605899	-31,704529	35,268	-0,119260
2,603936	-32,070177	35,319	-0,119418
2,601886	-32,375072	35,369	-0,119551
2,599918	-32,924107	35,426	-0,119789
2,597902	-33,838791	35,476	-0,120186
2,595930	-34,509334	35,526	-0,120477
2,593933	-34,448580	35,576	-0,120451
2,591890	-35,668158	35,626	-0,120980
2,589880	-35,606279	35,676	-0,120953
2,587869	-36,520962	35,727	-0,121350
2,585896	-36,338701	35,777	-0,121271
2,583922	-36,948490	35,828	-0,121536
2,581910	-37,558279	35,878	-0,121800
2,579904	-38,289576	35,928	-0,122118
2,577895	-38,715978	35,978	-0,122303
2,575845	-38,350329	36,028	-0,122144
2,573885	-38,594470	36,078	-0,122250
2,571914	-39,204259	36,128	-0,122515
2,569942	-39,447275	36,178	-0,122620
2,567947	-40,057064	36,228	-0,122885
2,565889	-40,179697	36,278	-0,122938
2,563937	-40,484591	36,328	-0,123070
2,561880	-40,789486	36,378	-0,123203
2,559901	-41,094380	36,429	-0,123335
2,557870	-41,703044	36,479	-0,123599
2,555912	-41,886431	36,529	-0,123679
2,553872	-42,252079	36,580	-0,123837
2,551871	-42,374712	36,631	-0,123891
2,549891	-42,679606	36,682	-0,124023
2,547918	-43,227517	36,732	-0,124261
2,545949	-42,861868	36,783	-0,124102
2,543935	-44,264833	36,833	-0,124711
2,541910	-44,447095	36,884	-0,124790
2,539845	-45,240270	36,934	-0,125134
2,537923	-44,751989	36,984	-0,124922
2,535908	-44,812743	37,043	-0,124949
2,533883	-45,666673	37,093	-0,125319
2,531893	-45,240270	37,143	-0,125134
2,529878	-44,691235	37,193	-0,124896
2,527873	-33,106369	37,243	-0,119868
2,525915	-32,679967	37,293	-0,119683
2,523868	-32,130931	37,344	-0,119445
2,521903	-32,924107	37,394	-0,119789
2,519915	-32,130931	37,461	-0,119445
2,517919	-32,802599	37,511	-0,119736
2,515854	-32,497705	37,561	-0,119604
2,513879	-32,924107	37,611	-0,119789
2,511863	-25,302869	37,661	-0,116481
2,509884	-25,729272	37,711	-0,116667
2,507931	-25,607764	37,761	-0,116614
2,505898	-25,973412	37,825	-0,116772
2,503909	-25,485131	37,875	-0,116561
2,501915	-26,217553	37,925	-0,116878
2,499938	-25,729272	37,975	-0,116667
2,497938	-25,363623	38,025	-0,116508
2,495886	-25,851905	38,075	-0,116720
2,493933	-25,363623	38,125	-0,116508
2,491938	-25,363623	38,175	-0,116508
2,489848	-25,547010	38,227	-0,116587
2,487896	-24,327432	38,278	-0,116058
2,485877	-23,778397	38,328	-0,115820
2,483880	-20,119663	38,379	-0,114232
2,481884	-19,876647	38,429	-0,114126
2,479906	-19,815893	38,479	-0,114100
2,477895	-19,450245	38,529	-0,113941
2,475913	-16,766948	38,579	-0,112777
2,473917	-17,376737	38,637	-0,113042
2,471926	-16,401300	38,687	-0,112618
2,469867	-11,767128	38,737	-0,110607
2,467890	-11,645620	38,788	-0,110554
2,465916	-11,829007	38,838	-0,110634
2,463900	-11,462234	38,889	-0,110475
2,461941	-11,096585	38,940	-0,110316
2,459900	-10,730937	38,990	-0,110157
2,457922	-10,609429	39,040	-0,110104
2,455903	-10,365288	39,090	-0,109999
2,453908	-10,060394	39,140	-0,109866
2,451889	-9,877007	39,191	-0,109787
2,449899	-9,938886	39,242	-0,109813
2,447934	-9,329097	39,293	-0,109549
2,445891	-9,206464	39,344	-0,109496
2,443899	-8,535921	39,394	-0,109205
2,441894	-8,780062	39,461	-0,109311
2,439902	-8,596675	39,511	-0,109231
2,437905	-8,414414	39,562	-0,109152
2,435907	-7,681992	39,612	-0,108834
2,433916	-7,681992	39,662	-0,108834
2,431891	-7,377097	39,713	-0,108702
2,429921	-7,132957	39,763	-0,108596
2,427890	-6,463539	39,829	-0,108305
2,425924	-6,463539	39,879	-0,108305
2,423909	-6,158644	39,929	-0,108173
2,421877	-6,097890	39,979	-0,108146
2,419897	-5,914504	40,030	-0,108067
2,417889	-5,304715	40,080	-0,107802
2,415920	-4,024383	40,130	-0,107247
2,413904	-3,719488	40,180	-0,107114
2,411904	-3,719488	40,233	-0,107114
2,409905	-3,536101	40,283	-0,107035
2,407870	-3,170453	40,333	-0,106876
2,405884	-3,109699	40,383	-0,106850
2,403890	-3,293086	40,433	-0,106929
2,401903	-2,621418	40,483	-0,106638
2,399906	-2,804805	40,534	-0,106717
2,397960	-2,926312	40,585	-0,106770
2,395922	-2,560664	40,636	-0,106611
2,393900	-2,683297	40,686	-0,106665
2,391939	-2,134262	40,736	-0,106426
2,389944	-2,073508	40,786	-0,106400
2,387909	-1,890121	40,836	-0,106320
2,385892	-1,707859	40,886	-0,106241
2,383927	-1,401840	40,936	-0,106108
2,381938	-1,158824	40,986	-0,106003
2,379930	-1,585226	41,036	-0,106188
2,377894	-1,158824	41,086	-0,106003
2,375904	-0,609789	41,136	-0,105765