File: Nanoindentation Datenauswertung/data/1,9um
Quasi static measurement routine
Tip parameters (shape,radius, material...)
11.07.2022

Piezo position[nm]	MEMS displ.[nm]	Time[ms]	Cap [pf]
eoh
2,342005	-0,365648	0,188	-0,098355
2,346016	-0,670543	0,289	-0,098488
2,350047	0,121508	0,389	-0,098144
2,354065	-0,121508	0,490	-0,098250
2,358025	-0,183387	0,598	-0,098276
2,362058	-0,244141	0,700	-0,098303
2,366050	-0,731297	0,801	-0,098514
2,370071	-0,731297	0,902	-0,098514
2,374042	-0,975437	1,002	-0,098620
2,378028	-0,731297	1,102	-0,098514
2,382037	-1,341086	1,202	-0,098779
2,386007	-0,793176	1,302	-0,098541
2,390046	-1,098070	1,402	-0,098673
2,394027	-1,341086	1,502	-0,098779
2,398039	-1,463719	1,603	-0,098832
2,402043	-1,402965	1,704	-0,098806
2,406047	-1,645980	1,809	-0,098911
2,410012	-1,219578	1,909	-0,098726
2,414025	-1,585226	2,009	-0,098885
2,418002	-1,950875	2,110	-0,099043
2,422032	-2,073508	2,211	-0,099097
2,426019	-2,439156	2,312	-0,099255
2,430023	-2,134262	2,413	-0,099123
2,434056	-2,317648	2,513	-0,099203
2,438055	-2,134262	2,613	-0,099123
2,442015	-2,804805	2,714	-0,099414
2,446027	-2,744051	2,814	-0,099388
2,450046	-2,865558	2,914	-0,099440
2,454048	-3,048945	3,014	-0,099520
2,458000	-3,596855	3,114	-0,099758
2,462013	-2,865558	3,215	-0,099440
2,466028	-3,658734	3,316	-0,099785
2,470027	-3,658734	3,416	-0,099785
2,474039	-5,304715	3,516	-0,100499
2,478048	-5,731117	3,617	-0,100684
2,481997	-5,975257	3,718	-0,100790
2,486013	-6,340906	3,818	-0,100949
2,490032	-6,096765	3,918	-0,100843
2,494067	-6,645800	4,018	-0,101081
2,498012	-6,401660	4,118	-0,100975
2,502021	-7,377097	4,218	-0,101398
2,506043	-7,194835	4,318	-0,101319
2,510016	-7,011449	4,420	-0,101240
2,514028	-7,499730	4,521	-0,101452
2,518047	-7,560484	4,623	-0,101478
2,522053	-7,804624	4,723	-0,101584
2,526058	-8,048765	4,825	-0,101690
2,530068	-8,535921	4,926	-0,101901
2,534073	-8,535921	5,027	-0,101901
2,538085	-8,231027	5,128	-0,101769
2,542006	-8,475167	5,228	-0,101875
2,545980	-8,658554	5,328	-0,101955
2,550016	-9,024203	5,428	-0,102113
2,554008	-13,718003	5,529	-0,104150
2,558002	-14,145530	5,630	-0,104336
2,562027	-14,206284	5,731	-0,104362
2,566020	-14,083651	5,832	-0,104309
2,570046	-14,206284	5,932	-0,104362
2,574029	-13,901390	6,032	-0,104230
2,578026	-12,316163	6,132	-0,103542
2,582015	-9,206464	6,232	-0,102192
2,586020	-7,499730	6,332	-0,101452
2,590030	-4,390031	6,433	-0,100102
2,594067	-2,744051	6,534	-0,099388
2,598065	0,121508	6,634	-0,098144
2,601987	2,744051	6,734	-0,097006
2,606019	4,816433	6,834	-0,096106
2,610053	7,865378	6,937	-0,094783
2,614045	10,975077	7,040	-0,093434
2,618036	13,168968	7,142	-0,092481
2,622049	16,522807	7,242	-0,091026
2,626062	18,717823	7,346	-0,090073
2,630000	22,132416	7,447	-0,088591
2,634060	24,509694	7,548	-0,087560
2,638025	27,009604	7,650	-0,086475
2,641998	29,448760	7,750	-0,085416
2,646038	32,375072	7,851	-0,084146
2,650056	35,117998	7,951	-0,082956
2,654023	37,435646	8,051	-0,081950
2,658039	40,117818	8,152	-0,080786
2,661998	42,252079	8,252	-0,079859
2,666026	44,019567	8,352	-0,079092
2,670075	47,068512	8,454	-0,077769
2,674026	49,691055	8,554	-0,076631
2,678052	51,580051	8,654	-0,075811
2,682054	53,653559	8,754	-0,074911
2,686056	56,519117	8,854	-0,073667
2,690021	58,165098	8,955	-0,072953
2,694044	60,604254	9,056	-0,071895
2,698063	62,860023	9,157	-0,070916
2,702020	64,933531	9,257	-0,070016
2,706072	67,189300	9,358	-0,069037
2,710028	69,627331	9,458	-0,067979
2,714036	71,822347	9,558	-0,067026
2,718017	74,078116	9,658	-0,066047
2,722037	76,333885	9,758	-0,065068
2,726032	78,407393	9,858	-0,064168
2,730053	81,455213	9,958	-0,062845
2,734058	82,918932	10,059	-0,062210
2,738005	85,297334	10,159	-0,061178
2,742023	87,857998	10,259	-0,060066
2,746062	89,748119	10,361	-0,059246
2,750025	92,613677	10,462	-0,058002
2,754033	94,503798	10,563	-0,057182
2,758016	96,820322	10,668	-0,056177
2,761980	99,136845	10,769	-0,055171
2,766029	101,697509	10,870	-0,054060
2,770049	103,405368	10,970	-0,053319
2,774030	106,270926	11,070	-0,052075
2,778063	107,916907	11,170	-0,051361
2,782066	110,843219	11,271	-0,050091
2,785985	112,794094	11,373	-0,049244
2,790047	115,477391	11,474	-0,048080
2,794055	117,915422	11,574	-0,047021
2,798019	119,623281	11,674	-0,046280
2,801997	121,574156	11,775	-0,045434
2,806016	124,683855	11,875	-0,044084
2,810016	125,903433	11,975	-0,043555
2,814047	128,464097	12,075	-0,042443
2,817992	130,902128	12,184	-0,041385
2,822037	133,402038	12,284	-0,040300
2,826023	136,146088	12,384	-0,039109
2,829979	138,218471	12,485	-0,038210
2,833994	140,291979	12,586	-0,037310
2,838004	142,182100	12,686	-0,036490
2,841981	145,474060	12,787	-0,035061
2,846025	147,426060	12,888	-0,034214
2,850043	149,681830	12,990	-0,033235
2,854009	151,570826	13,091	-0,032415
2,858032	153,888474	13,191	-0,031409
2,862005	154,619771	13,291	-0,031092
2,866059	157,180435	13,401	-0,029980
2,870018	158,582274	13,501	-0,029372
2,873988	159,863731	13,602	-0,028816
2,878026	162,119501	13,702	-0,027837
2,882096	163,886989	13,810	-0,027070
2,886014	165,837864	13,911	-0,026223
2,890009	168,521160	14,011	-0,025059
2,894054	170,167141	14,112	-0,024344
2,897994	173,032699	14,212	-0,023101
2,901993	174,922820	14,312	-0,022280
2,906031	177,300097	14,412	-0,021249
2,909992	179,555867	14,512	-0,020270
2,914028	181,263726	14,613	-0,019528
2,918033	184,312671	14,714	-0,018205
2,921995	186,629194	14,814	-0,017200
2,926035	188,640823	14,915	-0,016327
2,930006	190,714331	15,015	-0,015427
2,934033	192,055417	15,115	-0,014845
2,937975	194,311186	15,215	-0,013866
2,942014	196,079799	15,316	-0,013098
2,946025	198,274815	15,416	-0,012146
2,950007	199,860041	15,516	-0,011458
2,954030	202,602967	15,616	-0,010267
2,957992	204,066685	15,716	-0,009632
2,962012	206,200947	15,818	-0,008706
2,966002	207,968435	15,920	-0,007938
2,970043	209,371400	16,020	-0,007330
2,974006	211,443782	16,121	-0,006430
2,978005	213,760306	16,221	-0,005425
2,982047	215,040638	16,321	-0,004869
2,985994	216,625864	16,422	-0,004181
2,989999	218,760126	16,522	-0,003255
2,994017	219,979704	16,624	-0,002726
2,997998	221,930579	16,724	-0,001879
3,002003	224,004086	16,826	-0,000979
3,005966	224,430489	16,926	-0,000794
3,010043	226,625504	17,032	0,000159
3,014002	229,125414	17,132	0,001244
3,017994	231,381183	17,233	0,002223
3,022009	233,820340	17,333	0,003281
3,025988	236,136863	17,443	0,004287
3,029983	238,026984	17,543	0,005107
3,034001	239,672964	17,643	0,005821
3,038021	240,892542	17,744	0,006351
3,041990	243,697347	17,845	0,007568
3,045997	246,258011	17,947	0,008679
3,049992	248,635288	18,047	0,009711
3,054035	251,135198	18,147	0,010796
3,057992	253,025319	18,256	0,011616
3,061976	255,098826	18,357	0,012516
3,066059	258,146646	18,458	0,013839
3,069961	259,976013	18,559	0,014633
3,074016	262,354416	18,659	0,015665
3,078019	264,487552	18,759	0,016591
3,081983	267,353111	18,860	0,017834
3,085957	269,975653	18,966	0,018973
3,089977	271,316739	19,067	0,019555
3,094009	274,547946	19,168	0,020957
3,098008	276,682208	19,268	0,021883
3,102038	279,425133	19,368	0,023074
3,106060	281,864289	19,469	0,024132
3,110025	283,754410	19,570	0,024953
3,114020	285,218129	19,672	0,025588
3,118031	286,070934	19,772	0,025958
3,122034	287,534652	19,872	0,026593
3,125942	289,364019	19,972	0,027387
3,129977	291,254140	20,072	0,028208
3,133946	293,143136	20,174	0,029027
3,138007	294,790242	20,275	0,029742
3,142021	295,643046	20,375	0,030112
3,146008	297,350905	20,475	0,030854
3,149994	299,362534	20,575	0,031727
3,153974	302,045831	20,676	0,032891
3,157944	303,447671	20,776	0,033500
3,161970	306,801510	20,876	0,034955
3,165944	308,203350	20,976	0,035563
3,169966	310,519873	21,076	0,036569
3,173992	312,409994	21,176	0,037389
3,177966	314,849150	21,276	0,038448
3,181957	317,593201	21,376	0,039639
3,185973	319,482197	21,476	0,040458
3,190032	321,860599	21,576	0,041491
3,193996	323,811474	21,676	0,042337
3,197964	325,701595	21,776	0,043158
3,201977	326,737786	21,876	0,043607
3,205947	329,176942	21,976	0,044666
3,209968	330,640661	22,077	0,045301
3,214002	331,006309	22,179	0,045460
3,217981	331,920993	22,279	0,045857
3,221988	333,871868	22,381	0,046704
3,226009	335,944250	22,481	0,047603
3,230000	338,261899	22,581	0,048609
3,233960	340,761809	22,681	0,049694
3,237952	342,712684	22,781	0,050541
3,242002	345,151840	22,881	0,051599
3,245947	346,614433	22,981	0,052234
3,250007	349,663378	23,081	0,053557
3,253990	351,675007	23,181	0,054430
3,257929	353,442495	23,282	0,055197
3,261976	356,186546	23,382	0,056388
3,265994	357,650265	23,482	0,057023
3,269983	360,576577	23,583	0,058293
3,273959	362,710838	23,684	0,059220
3,277995	364,661713	23,787	0,060066
3,281967	366,735221	23,887	0,060966
3,285976	368,381201	23,987	0,061681
3,289978	370,819232	24,087	0,062739
3,293960	371,490900	24,192	0,063030
3,298014	371,856549	24,293	0,063189
3,301970	372,953494	24,394	0,063665
3,305982	373,746670	24,495	0,064009
3,309971	375,697545	24,596	0,064856
3,313985	377,099384	24,696	0,065464
3,318003	377,587666	24,796	0,065676
3,322000	379,660048	24,896	0,066576
3,325949	381,428661	24,996	0,067343
3,329960	382,159958	25,096	0,067661
3,333943	384,659868	25,196	0,068746
3,337978	386,733376	25,297	0,069646
3,341947	388,256723	25,403	0,070307
3,345982	389,294040	25,504	0,070757
3,349988	390,817387	25,605	0,071418
3,353993	393,074282	25,705	0,072397
3,357940	394,964403	25,806	0,073218
3,361953	397,341680	25,906	0,074250
3,365973	399,597449	26,006	0,075229
3,369992	400,451379	26,106	0,075599
3,373939	401,731711	26,217	0,076155
3,377982	403,926726	26,317	0,077107
3,381962	405,633461	26,418	0,077848
3,385999	406,853039	26,518	0,078377
3,389956	408,620527	26,619	0,079145
3,393929	410,938175	26,719	0,080150
3,397938	412,157753	26,819	0,080680
3,401911	413,741854	26,919	0,081367
3,405930	416,059503	27,024	0,082373
3,409911	418,010378	27,124	0,083220
3,414024	420,266147	27,224	0,084199
3,417904	422,339655	27,324	0,085099
3,421906	424,412037	27,426	0,085998
3,425976	426,362912	27,526	0,086845
3,429927	427,887385	27,626	0,087506
3,433948	429,716752	27,726	0,088300
3,437905	431,728381	27,828	0,089173
3,441927	433,436240	27,928	0,089915
3,445915	434,959587	28,028	0,090576
3,449915	437,642884	28,128	0,091740
3,453959	440,203548	28,229	0,092852
3,457974	442,886845	28,329	0,094016
3,461951	444,776966	28,430	0,094836
3,465928	447,214997	28,530	0,095895
3,469997	449,226626	28,630	0,096768
3,473994	452,092184	28,730	0,098011
3,477897	454,165692	28,830	0,098911
3,481934	455,811672	28,930	0,099625
3,485906	458,616476	29,032	0,100843
3,489932	461,237894	29,132	0,101980
3,493924	463,616296	29,232	0,103013
3,497907	466,054327	29,332	0,104071
3,501935	468,067081	29,432	0,104944
3,505968	471,419796	29,533	0,106399
3,509927	473,981585	29,633	0,107511
3,513944	477,029405	29,734	0,108834
3,517951	479,590069	29,834	0,109945
3,521924	482,578260	29,934	0,111242
3,525873	484,955537	30,034	0,112274
3,529907	487,821096	30,134	0,113518
3,533911	489,955357	30,243	0,114444
3,537950	493,491458	30,344	0,115979
3,541878	496,661911	30,444	0,117354
3,545916	498,978435	30,562	0,118360
3,549937	501,966626	30,663	0,119657
3,553919	504,588044	30,764	0,120794
3,557943	507,392848	30,864	0,122012
3,561941	510,807442	30,969	0,123494
3,565893	512,940578	31,069	0,124419
3,569907	516,232539	31,170	0,125848
3,573947	519,281484	31,270	0,127171
3,577945	521,904027	31,377	0,128310
3,581865	524,891093	31,478	0,129606
3,585905	527,938913	31,579	0,130929
3,589950	530,622210	31,680	0,132093
3,593870	532,877979	31,780	0,133072
3,597942	536,414081	31,880	0,134607
3,601851	539,218885	31,980	0,135824
3,605925	542,145197	32,081	0,137094
3,609893	545,071510	32,181	0,138364
3,613902	547,449912	32,281	0,139396
3,617898	550,559611	32,381	0,140746
3,621917	553,181029	32,483	0,141884
3,625882	556,168095	32,583	0,143180
3,629859	559,705321	32,684	0,144715
3,633881	561,472809	32,784	0,145482
3,637843	564,461001	32,884	0,146779
3,641882	567,448067	32,985	0,148076
3,645904	570,252871	33,086	0,149293
3,649929	572,325254	33,186	0,150192
3,653897	574,764410	33,287	0,151251
3,657872	578,300511	33,388	0,152786
3,661857	580,129878	33,489	0,153580
3,665909	583,300331	33,589	0,154956
3,669896	586,165890	33,689	0,156199
3,673905	587,751116	33,806	0,156887
3,677863	590,738182	33,906	0,158184
3,681875	593,603741	34,006	0,159427
3,685893	595,921389	34,106	0,160433
3,689918	598,786947	34,221	0,161677
3,693908	600,372174	34,321	0,162365
3,697915	604,029783	34,421	0,163952
3,701845	606,103291	34,521	0,164852
3,705954	609,151111	34,625	0,166175
3,709898	612,078548	34,726	0,167445
3,713912	614,395071	34,826	0,168451
3,717911	617,991926	34,927	0,170012
3,721889	619,699786	35,027	0,170753
3,725894	623,478903	35,128	0,172393
3,729894	626,893496	35,229	0,173875
3,733897	628,906250	35,329	0,174749
3,737941	631,893316	35,429	0,176045
3,741901	634,575488	35,530	0,177209
3,745860	637,685187	35,630	0,178559
3,749953	639,819448	35,731	0,179485
3,753893	643,050655	35,834	0,180887
3,757921	645,733952	35,936	0,182052
3,761854	648,476878	36,036	0,183242
3,765829	650,855280	36,136	0,184274
3,769956	653,658959	36,236	0,185491
3,773938	656,647150	36,337	0,186788
3,777907	659,086307	36,438	0,187847
3,781915	662,073373	36,538	0,189143
3,785916	664,207634	36,638	0,190069
3,789904	667,622228	36,738	0,191551
3,793915	670,121013	36,838	0,192636
3,797901	673,718993	36,939	0,194197
3,801906	676,279657	37,044	0,195309
3,805882	679,389356	37,144	0,196658
3,809936	681,766633	37,246	0,197690
3,813926	684,754824	37,348	0,198987
3,817897	687,986031	37,463	0,200389
3,821920	691,095730	37,563	0,201739
3,825938	693,351499	37,663	0,202718
3,829932	696,460073	37,782	0,204067
3,833875	699,264878	37,883	0,205284
3,837932	702,740225	37,983	0,206792
3,841930	705,728417	38,083	0,208089
3,845924	708,593975	38,188	0,209333
3,849934	711,033131	38,288	0,210392
3,853916	714,690740	38,388	0,211979
3,857912	717,068017	38,488	0,213011
3,861863	720,300349	38,593	0,214414
3,865884	722,799134	38,694	0,215498
3,869883	725,665818	38,794	0,216742
3,873913	729,079286	38,894	0,218224
3,877924	731,884091	38,999	0,219441
3,881876	735,054543	39,099	0,220817
3,885865	737,615207	39,200	0,221928
3,889907	740,175871	39,300	0,223040
3,893919	743,285570	39,400	0,224389
3,897871	746,456023	39,501	0,225765
3,901887	748,895179	39,601	0,226824
3,905883	752,552788	39,701	0,228411
3,909876	755,296839	39,801	0,229602
3,913911	758,162397	39,901	0,230846
3,917890	760,601553	40,001	0,231904
3,921910	764,015022	40,102	0,233386
3,925833	766,454178	40,202	0,234444
3,929899	770,234420	40,302	0,236085
3,933886	773,099978	40,403	0,237329
3,937899	776,209677	40,504	0,238678
3,941875	779,135990	40,605	0,239948
3,945890	782,245689	40,706	0,241298
3,949884	785,111247	40,806	0,242542
3,953877	788,160192	40,906	0,243865
3,957882	790,476716	41,016	0,244870
3,961895	794,073571	41,118	0,246431
3,965854	796,268586	41,218	0,247384
3,969905	798,340969	41,318	0,248283
3,973907	802,487984	41,424	0,250083
3,977888	804,804507	41,524	0,251088
3,981889	808,523996	41,624	0,252703
3,985853	811,693323	41,725	0,254078
3,989911	814,132479	41,867	0,255137
3,993895	817,425565	41,968	0,256566
3,997867	820,535264	42,068	0,257916
4,001860	823,034049	42,168	0,259000
4,005881	825,778100	42,268	0,260191
4,009933	828,827045	42,368	0,261514
4,013888	832,423900	42,468	0,263075
4,017951	834,984564	42,579	0,264187
4,021889	838,032384	42,680	0,265509
4,025861	840,410786	42,781	0,266542
4,029904	842,971450	42,881	0,267653
4,033842	845,715501	42,981	0,268844
4,037891	848,763321	43,081	0,270167
4,041919	850,287793	43,181	0,270828
4,045883	854,982719	43,281	0,272866
4,049898	857,421875	43,391	0,273924
4,053874	859,921785	43,491	0,275009
4,057868	863,274500	43,591	0,276464
4,061867	866,933234	43,692	0,278052
4,065836	868,823355	43,794	0,278873
4,069882	872,176069	43,895	0,280328
4,073868	874,798612	43,996	0,281466
4,077895	877,358151	44,097	0,282577
4,081894	879,980694	44,197	0,283715
4,085886	883,029639	44,298	0,285038
4,089874	885,406916	44,398	0,286070
4,093878	888,150967	44,498	0,287261
4,097857	891,138033	44,614	0,288557
4,101881	892,784013	44,714	0,289271
4,105872	897,357431	44,814	0,291256
4,109842	900,100356	44,914	0,292447
4,113887	902,721774	45,031	0,293584
4,117862	904,978669	45,131	0,294564
4,121877	908,149122	45,232	0,295940
4,125865	910,649032	45,332	0,297025
4,129897	913,391957	45,442	0,298215
4,133861	916,318269	45,542	0,299485
4,137866	918,635918	45,642	0,300491
4,141872	921,927878	45,742	0,301920
4,145805	924,611175	45,842	0,303084
4,149841	927,903136	45,942	0,304513
4,153857	929,976644	46,043	0,305413
4,157869	932,780323	46,144	0,306630
4,161816	934,304796	46,246	0,307292
4,165850	937,719389	46,347	0,308773
4,169867	941,011350	46,447	0,310202
4,173856	943,084857	46,547	0,311102
4,177890	945,584767	46,648	0,312187
4,181818	948,450326	46,749	0,313431
4,185836	951,558900	46,849	0,314780
4,189891	954,242197	46,949	0,315944
4,193858	957,290017	47,061	0,317267
4,197885	960,338962	47,161	0,318590
4,201852	962,778118	47,262	0,319649
4,205847	966,374973	47,378	0,321210
4,209841	968,996391	47,478	0,322348
4,213854	971,801195	47,578	0,323565
4,217834	974,850140	47,678	0,324888
4,221895	977,593066	47,784	0,326079
4,225837	980,763519	47,884	0,327455
4,229845	983,507569	47,985	0,328646
4,233786	986,617269	48,085	0,329995
4,237824	988,812284	48,190	0,330948
4,241832	992,409139	48,291	0,332509
4,241825	991,738596	48,391	0,332218
4,241814	992,348385	48,491	0,332482
4,241810	991,738596	48,592	0,332218
4,241814	992,225752	48,692	0,332429
4,241839	992,043491	48,792	0,332350
4,241868	991,312194	48,893	0,332033
4,241895	992,348385	48,993	0,332482
4,241849	991,617088	49,093	0,332165
4,241821	992,104245	49,193	0,332376
4,241848	991,860104	49,293	0,332271
4,241819	991,372948	49,393	0,332059
4,241792	991,921983	49,493	0,332297
4,241803	991,738596	49,593	0,332218
4,241804	991,860104	49,693	0,332271
4,241856	991,494456	49,793	0,332112
4,241829	991,860104	49,893	0,332271
4,241822	991,860104	49,993	0,332271
4,241826	991,617088	50,094	0,332165
4,241836	991,372948	50,194	0,332059
4,241819	991,617088	50,294	0,332165
4,241876	991,494456	50,394	0,332112
4,241827	991,738596	50,494	0,332218
4,241871	991,799350	50,604	0,332244
4,241835	991,555210	50,705	0,332138
4,241849	991,128807	50,805	0,331953
4,241858	991,555210	50,906	0,332138
4,241809	991,189561	51,019	0,331979
4,241846	991,799350	51,120	0,332244
4,241818	991,921983	51,221	0,332297
4,241807	990,641651	51,321	0,331742
4,241877	991,617088	51,439	0,332165
4,241811	991,738596	51,541	0,332218
4,241784	991,617088	51,642	0,332165
4,241838	991,433702	51,742	0,332085
4,241806	991,312194	51,845	0,332033
4,241852	991,494456	51,946	0,332112
4,241823	991,738596	52,047	0,332218
4,241860	991,494456	52,147	0,332112
4,241834	991,921983	52,247	0,332297
4,241846	991,372948	52,347	0,332059
4,241785	991,617088	52,447	0,332165
4,241800	991,372948	52,548	0,332059
4,241783	991,494456	52,651	0,332112
4,241829	991,738596	52,753	0,332218
4,241824	991,433702	52,853	0,332085
4,241827	991,433702	52,953	0,332085
4,241817	991,128807	53,060	0,331953
4,241840	991,251440	53,161	0,332006
4,241825	991,372948	53,261	0,332059
4,241820	991,433702	53,361	0,332085
4,237815	988,751530	53,474	0,330921
4,233829	985,763339	53,574	0,329625
4,229826	982,410624	53,676	0,328169
4,225799	978,630382	53,777	0,326529
4,221836	977,045156	53,877	0,325841
4,217810	973,142281	53,978	0,324147
4,213854	970,276723	54,079	0,322903
4,209849	967,106270	54,186	0,321527
4,205880	963,630922	54,286	0,320019
4,201786	961,314399	54,386	0,319014
4,197819	958,022438	54,487	0,317585
4,193835	955,766669	54,592	0,316606
4,189839	952,901111	54,693	0,315362
4,185820	949,668779	54,793	0,313959
4,181878	946,011170	54,893	0,312372
4,177844	943,450506	54,993	0,311261
4,173806	940,463440	55,094	0,309964
4,169851	937,353741	55,194	0,308615
4,165839	934,548936	55,294	0,307397
4,161901	931,439237	55,394	0,306048
4,157876	928,452171	55,494	0,304751
4,153828	925,647366	55,594	0,303534
4,149897	922,354281	55,695	0,302105
4,145864	918,757425	55,796	0,300544
4,141849	916,075254	55,896	0,299380
4,137927	913,270449	55,998	0,298163
4,133874	910,039243	56,098	0,296760
4,129837	906,929543	56,200	0,295411
4,125886	903,697212	56,300	0,294008
4,121870	900,466005	56,400	0,292605
4,117769	897,662325	56,501	0,291389
4,113866	894,979029	56,601	0,290224
4,109866	891,503681	56,701	0,288716
4,105855	887,967580	56,801	0,287181
4,101852	886,077459	56,903	0,286361
4,097880	882,357971	57,006	0,284747
4,093902	879,005256	57,106	0,283292
4,089841	876,321960	57,206	0,282127
4,085873	873,090753	57,306	0,280725
4,081864	870,285948	57,417	0,279507
4,077863	866,689093	57,517	0,277946
4,073871	864,433324	57,617	0,276967
4,069893	861,446258	57,718	0,275671
4,065850	858,458066	57,829	0,274374
4,061863	855,166106	57,929	0,272945
4,057893	850,897582	58,029	0,271093
4,053875	848,397672	58,129	0,270008
4,049821	846,446798	58,249	0,269161
4,045904	842,361661	58,350	0,267388
4,041861	839,253087	58,450	0,266039
4,037873	836,630544	58,550	0,264901
4,033846	834,069880	58,662	0,263790
4,029871	830,107377	58,763	0,262070
4,025849	827,424080	58,863	0,260905
4,021846	824,437014	58,964	0,259609
4,017857	820,778280	59,083	0,258021
4,013905	817,486319	59,184	0,256592
4,009860	814,925655	59,284	0,255481
4,005856	811,937464	59,393	0,254184
4,001894	808,035714	59,493	0,252491
3,997862	805,962207	59,595	0,251591
3,993907	802,427230	59,695	0,250057
3,989868	799,622426	59,796	0,248839
3,985911	796,024446	59,896	0,247278
3,981881	793,098133	59,997	0,246008
3,977853	790,537469	60,098	0,244896
3,973885	786,878735	60,198	0,243309
3,969894	784,135810	60,299	0,242118
3,965872	781,331005	60,399	0,240901
3,961923	777,550763	60,499	0,239260
3,957871	775,050853	60,599	0,238175
3,953895	771,209857	60,700	0,236508
3,949902	768,770701	60,800	0,235450
3,945889	765,234600	60,902	0,233915
3,941879	762,918077	61,002	0,232910
3,937866	759,198589	61,103	0,231295
3,933935	757,186960	61,203	0,230422
3,929885	754,199894	61,303	0,229126
3,925924	750,297019	61,403	0,227432
3,921896	746,882425	61,504	0,225950
3,917890	744,016867	61,605	0,224707
3,913861	740,175871	61,706	0,223040
3,909916	736,883911	61,807	0,221611
3,905947	735,115297	61,907	0,220843
3,901853	731,213548	62,008	0,219150
3,897882	728,103849	62,109	0,217800
3,893959	725,116782	62,227	0,216504
3,889899	722,007083	62,328	0,215154
3,885920	719,323787	62,429	0,213990
3,881903	716,458228	62,530	0,212746
3,877894	712,984006	62,631	0,211238
3,873894	709,995815	62,732	0,209941
3,869850	706,337081	62,832	0,208354
3,865887	704,508839	62,932	0,207560
3,861920	700,911983	63,034	0,205999
3,857913	696,948355	63,135	0,204279
3,853909	694,448445	63,236	0,203194
3,849885	691,582886	63,336	0,201950
3,845889	687,925277	63,437	0,200363
3,841892	685,546875	63,538	0,199331
3,837905	682,132281	63,638	0,197849
3,833890	679,023708	63,738	0,196500
3,829930	676,706059	63,854	0,195494
3,825896	673,230712	63,954	0,193985
3,821906	669,938751	64,054	0,192557
3,817935	667,194700	64,155	0,191366
3,813901	664,024248	64,259	0,189990
3,809882	661,220568	64,359	0,188773
3,805900	658,232377	64,460	0,187476
3,801866	654,330627	64,560	0,185783
3,797870	651,891471	64,661	0,184724
3,793876	648,599510	64,762	0,183295
3,789892	645,306425	64,862	0,181866
3,785894	642,196726	64,962	0,180517
3,781856	638,904765	65,080	0,179088
3,777883	636,588242	65,181	0,178083
3,773875	633,295156	65,281	0,176653
3,769889	629,881687	65,398	0,175172
3,765936	627,076883	65,498	0,173955
3,761941	624,150571	65,599	0,172685
3,757938	621,711415	65,700	0,171626
3,753907	617,991926	65,801	0,170012
3,749869	614,516579	65,902	0,168503
3,745880	612,504950	66,002	0,167630
3,741926	609,211865	66,102	0,166201
3,737901	605,919904	66,202	0,164772
3,733922	602,262295	66,302	0,163185
3,729882	599,152596	66,402	0,161835
3,725922	596,408545	66,502	0,160645
3,721940	592,933198	66,612	0,159136
3,717903	590,677428	66,712	0,158157
3,713892	587,872624	66,812	0,156940
3,709887	584,336523	66,912	0,155405
3,705940	582,080753	67,012	0,154426
3,701827	578,910300	67,113	0,153050
3,697916	575,008551	67,213	0,151357
3,693899	572,020359	67,314	0,150060
3,689923	570,008731	67,428	0,149187
3,685916	566,411875	67,529	0,147626
3,681916	563,302176	67,629	0,146276
3,677840	560,253231	67,731	0,144953
3,673895	556,900517	67,836	0,143498
3,669914	553,790818	67,936	0,142148
3,665852	550,802626	68,036	0,140852
3,661936	548,302716	68,136	0,139767
3,657973	544,950002	68,259	0,138312
3,653955	542,571600	68,360	0,137279
3,649863	539,767920	68,461	0,136063
3,645885	535,926924	68,561	0,134396
3,641889	532,633839	68,661	0,132966
3,637900	529,829034	68,761	0,131749
3,633933	526,781214	68,862	0,130426
3,629896	523,794148	68,962	0,129130
3,625885	521,476499	69,062	0,128124
3,621887	517,818890	69,162	0,126537
3,617908	515,074840	69,262	0,125346
3,613954	511,965141	69,363	0,123996
3,609904	509,770125	69,478	0,123043
3,605928	505,929129	69,578	0,121376
3,601917	502,576415	69,678	0,119921
3,597883	499,588224	69,778	0,118625
3,593958	496,783419	69,886	0,117407
3,589902	494,222755	69,987	0,116296
3,585952	491,479830	70,088	0,115105
3,581899	487,943728	70,188	0,113571
3,577896	485,016291	70,289	0,112300
3,573929	482,150733	70,390	0,111057
3,569878	478,309737	70,491	0,109390
3,565933	477,150913	70,602	0,108887
3,561982	472,457112	70,702	0,106850
3,557889	470,749253	70,803	0,106108
3,553968	467,152398	70,905	0,104547
3,549944	464,042699	71,015	0,103198
3,545905	461,298648	71,115	0,102007
3,541901	458,494969	71,215	0,100790
3,537919	456,055813	71,315	0,099731
3,533927	452,580465	71,415	0,098223
3,529938	449,165872	71,515	0,096741
3,525919	447,093489	71,615	0,095842
3,521931	443,923036	71,716	0,094466
3,517908	440,690704	71,831	0,093063
3,513941	438,191919	71,933	0,091979
3,509963	434,349798	72,034	0,090311
3,505948	431,423486	72,135	0,089041
3,501918	428,802068	72,247	0,087903
3,497897	425,387475	72,348	0,086421
3,493923	423,680741	72,448	0,085681
3,489959	419,839745	72,549	0,084014
3,485913	416,851553	72,661	0,082717
3,481910	414,290890	72,761	0,081605
3,477901	411,243070	72,861	0,080283
3,473952	407,889230	72,961	0,078827
3,469916	404,841410	73,062	0,077504
3,465951	402,218867	73,163	0,076366
3,461929	399,475941	73,263	0,075176
3,457925	396,853399	73,363	0,074038
3,453880	393,682946	73,463	0,072662
3,449937	391,184161	73,563	0,071577
3,445954	387,830321	73,663	0,070122
3,441928	384,781376	73,763	0,068798
3,438020	381,855064	73,864	0,067528
3,433959	379,050259	73,965	0,066311
3,429933	376,184701	74,065	0,065067
3,425971	373,381021	74,166	0,063851
3,421975	371,125252	74,266	0,062872
3,417964	367,648780	74,366	0,061363
3,413974	365,210748	74,467	0,060305
3,409934	361,856909	74,568	0,058849
3,405991	359,296245	74,668	0,057738
3,401980	356,430687	74,768	0,056494
3,397929	353,138726	74,868	0,055065
3,393954	351,735761	74,969	0,054457
3,389966	347,407609	75,098	0,052578
3,385971	345,455609	75,198	0,051731
3,381979	342,042141	75,299	0,050250
3,377933	338,993196	75,407	0,048926
3,373973	336,066883	75,508	0,047656
3,369980	333,566973	75,609	0,046571
3,365962	331,189696	75,709	0,045540
3,361921	327,775103	75,810	0,044058
3,357927	324,909544	75,910	0,042814
3,353975	322,531142	76,010	0,041782
3,349963	319,604830	76,110	0,040512
3,345922	317,044166	76,211	0,039400
3,341952	314,605010	76,312	0,038342
3,337958	310,885522	76,412	0,036728
3,334020	308,629752	76,513	0,035749
3,329979	305,277038	76,617	0,034293
3,325979	302,716374	76,718	0,033182
3,321991	299,972323	76,819	0,031991
3,317972	296,801870	76,919	0,030615
3,313955	294,301960	77,019	0,029530
3,309970	291,436402	77,120	0,028287
3,305971	288,144441	77,222	0,026858
3,301973	285,827918	77,323	0,025853
3,297969	283,510270	77,440	0,024847
3,294017	279,364379	77,540	0,023047
3,289963	277,718399	77,641	0,022333
3,285970	274,792087	77,741	0,021063
3,281943	271,194106	77,851	0,019501
3,277986	268,207040	77,951	0,018205
3,273940	265,646376	78,051	0,017094
3,269988	262,963080	78,151	0,015929
3,265977	259,305471	78,264	0,014342
3,261985	256,805561	78,365	0,013257
3,257950	254,305651	78,467	0,012172
3,254010	251,318584	78,567	0,010875
3,250008	248,453026	78,697	0,009632
3,245939	245,464835	78,798	0,008335
3,241998	243,087558	78,898	0,007303
3,237971	239,977859	79,016	0,005954
3,233962	237,843597	79,116	0,005027
3,229984	234,856531	79,216	0,003731
3,225997	231,930219	79,316	0,002461
3,221953	228,820520	79,422	0,001111
3,217981	227,418680	79,523	0,000503
3,213993	224,553121	79,624	-0,000741
3,209998	220,589493	79,724	-0,002461
3,206013	217,784688	79,841	-0,003678
3,202033	214,492728	79,942	-0,005107
3,197971	212,663360	80,042	-0,005901
3,194029	209,492908	80,142	-0,007277
3,189952	206,566595	80,255	-0,008547
3,185985	204,066685	80,356	-0,009632
3,182007	201,445267	80,457	-0,010770
3,178002	198,091428	80,558	-0,012225
3,173992	195,408131	80,662	-0,013390
3,169963	192,542573	80,762	-0,014633
3,166003	189,189858	80,862	-0,016088
3,161988	186,445808	80,962	-0,017279
3,157978	183,397987	81,069	-0,018602
3,153985	181,080339	81,169	-0,019608
3,150058	178,337414	81,270	-0,020798
3,145941	174,617926	81,370	-0,022413
3,141977	172,057262	81,472	-0,023524
3,138019	169,191703	81,572	-0,024768
3,133955	166,447653	81,672	-0,025958
3,129989	163,216446	81,773	-0,027361
3,125977	160,655782	81,901	-0,028472
3,121987	157,850977	82,001	-0,029689
3,118018	155,108052	82,101	-0,030880
3,113990	152,729650	82,210	-0,031912
3,109975	149,559197	82,310	-0,033288
3,105972	147,242674	82,411	-0,034293
3,102026	144,072221	82,511	-0,035669
3,097999	140,962522	82,621	-0,037019
3,094001	139,742944	82,721	-0,037548
3,089966	135,597053	82,821	-0,039348
3,085979	133,341284	82,922	-0,040327
3,082045	130,414972	83,023	-0,041597
3,077981	127,793554	83,123	-0,042734
3,073969	124,988749	83,225	-0,043952
3,070005	122,732980	83,326	-0,044931
3,066016	121,208507	83,453	-0,045592
3,061974	118,038054	83,553	-0,046968
3,058010	115,233250	83,654	-0,048186
3,053953	113,648023	83,754	-0,048874
3,050050	110,782465	83,864	-0,050117
3,045964	109,136485	83,964	-0,050832
3,041988	106,758083	84,065	-0,051864
3,038038	105,234735	84,166	-0,052525
3,034025	102,734825	84,279	-0,053610
3,030010	101,820141	84,380	-0,054007
3,026021	99,930021	84,480	-0,054827
3,022002	98,831950	84,582	-0,055304
3,018007	97,369357	84,696	-0,055938
3,014043	95,479236	84,797	-0,056759
3,009981	93,528361	84,898	-0,057605
3,005989	92,248029	85,019	-0,058161
3,002006	90,966572	85,119	-0,058717
2,998004	89,443224	85,219	-0,059378
2,994031	87,796119	85,320	-0,060093
2,990027	86,638420	85,420	-0,060596
2,986005	85,907123	85,521	-0,060913
2,982003	83,955123	85,622	-0,061760
2,978029	82,736670	85,723	-0,062289
2,974040	82,248389	85,837	-0,062501
2,970000	80,174881	85,937	-0,063401
2,965984	80,479776	86,037	-0,063269
2,961997	78,833795	86,137	-0,063983
2,958011	78,102499	86,238	-0,064300
2,954025	76,456518	86,339	-0,065015
2,950050	74,810538	86,440	-0,065729
2,946061	74,748659	86,540	-0,065756
2,942033	74,443764	86,663	-0,065888
2,938030	73,102679	86,764	-0,066470
2,934042	72,249874	86,865	-0,066840
2,930024	71,761593	86,965	-0,067052
2,925996	70,297874	87,065	-0,067687
2,922060	69,627331	87,165	-0,067979
2,918086	68,102859	87,266	-0,068640
2,914028	67,859843	87,366	-0,068746
2,910052	66,396124	87,467	-0,069381
2,906027	66,761773	87,569	-0,069222
2,902028	64,810898	87,669	-0,070069
2,897980	63,104164	87,769	-0,070810
2,894098	62,860023	87,870	-0,070916
2,890008	61,640445	87,971	-0,071445
2,886023	60,177851	88,072	-0,072080
2,882061	58,896394	88,172	-0,072636
2,878002	57,616062	88,277	-0,073191
2,874003	56,458363	88,377	-0,073694
2,870053	55,970082	88,478	-0,073906
2,866048	54,873137	88,579	-0,074382
2,862013	53,897699	88,696	-0,074805
2,858023	52,189840	88,796	-0,075546
2,853990	51,519297	88,896	-0,075837
2,850018	50,299719	89,020	-0,076367
2,846031	49,142020	89,120	-0,076869
2,842053	47,494915	89,220	-0,077584
2,838037	46,581356	89,320	-0,077980
2,834026	45,666673	89,425	-0,078377
2,830037	44,873497	89,525	-0,078722
2,826035	44,142200	89,626	-0,079039
2,822006	41,947185	89,727	-0,079992
2,818015	41,703044	89,855	-0,080098
2,814031	40,240450	89,956	-0,080732
2,809957	39,691415	90,056	-0,080971
2,806066	39,691415	90,156	-0,080971
2,802033	37,801294	90,261	-0,081791
2,798042	37,557154	90,361	-0,081897
2,794026	35,727787	90,462	-0,082691
2,790005	34,570087	90,562	-0,083193
2,786047	34,204439	90,665	-0,083352
2,782047	32,984861	90,765	-0,083881
2,778013	31,094740	90,867	-0,084702
2,774021	30,545705	90,968	-0,084940
2,770013	28,473322	91,068	-0,085839
2,766065	27,375252	91,168	-0,086316
2,762041	26,765463	91,268	-0,086581
2,758025	25,850779	91,369	-0,086978
2,754034	24,509694	91,476	-0,087560
2,750019	24,204799	91,576	-0,087692
2,746086	22,314678	91,676	-0,088512
2,741999	22,863713	91,777	-0,088274
2,738053	19,998155	91,900	-0,089518
2,734005	19,571753	92,000	-0,089703
2,730039	18,352175	92,102	-0,090232
2,726055	17,986526	92,229	-0,090391
2,722071	16,706194	92,329	-0,090946
2,718012	14,998335	92,430	-0,091688
2,714013	13,657249	92,530	-0,092270
2,710077	13,840636	92,631	-0,092190
2,706006	12,193530	92,731	-0,092905
2,701996	11,583741	92,832	-0,093169
2,698043	9,877007	92,934	-0,093910
2,694052	9,511359	93,034	-0,094069
2,690040	8,231027	93,135	-0,094625
2,686002	6,828062	93,236	-0,095233
2,682028	6,280152	93,336	-0,095471
2,678038	5,182082	93,451	-0,095948
2,673989	3,780242	93,553	-0,096556
2,670065	2,987066	93,655	-0,096900
2,666014	2,255769	93,756	-0,097218
2,662046	1,096945	93,879	-0,097721
2,658071	1,280332	93,980	-0,097641
2,653995	-0,427527	94,082	-0,098382
2,649984	-1,768613	94,182	-0,098964
2,646002	-2,621418	94,301	-0,099334
2,642070	-3,658734	94,401	-0,099785
2,638055	-4,085136	94,501	-0,099970
2,634039	-4,755679	94,602	-0,100261
2,630031	-5,121328	94,724	-0,100419
2,626023	-6,585046	94,824	-0,101055
2,622028	-7,804624	94,924	-0,101584
2,618051	-8,475167	95,032	-0,101875
2,614077	-9,329097	95,132	-0,102246
2,610050	-10,304534	95,232	-0,102669
2,606005	-11,035831	95,332	-0,102986
2,602030	-12,681812	95,435	-0,103701
2,598034	-13,840636	95,535	-0,104204
2,594014	-14,083651	95,635	-0,104309
2,590028	-14,083651	95,736	-0,104309
2,586027	-13,718003	95,857	-0,104150
2,582059	-14,511179	95,957	-0,104495
2,577985	-14,998335	96,057	-0,104706
2,574008	-16,096405	96,157	-0,105183
2,570040	-16,279792	96,270	-0,105262
2,566056	-15,486616	96,371	-0,104918
2,561982	-15,486616	96,472	-0,104918
2,558057	-15,608124	96,574	-0,104971
2,554042	-14,755319	96,683	-0,104601
2,550007	-14,450425	96,783	-0,104468
2,545985	-14,206284	96,884	-0,104362
2,542068	-14,327792	96,984	-0,104415
2,538034	-13,779882	97,094	-0,104177
2,534042	-13,596495	97,194	-0,104098
2,530015	-12,804444	97,295	-0,103754
2,526030	-12,742566	97,395	-0,103727
2,522031	-12,742566	97,514	-0,103727
2,518028	-12,681812	97,616	-0,103701
2,514013	-12,316163	97,717	-0,103542
2,510016	-11,827882	97,837	-0,103330
2,506008	-11,706374	97,937	-0,103277
2,502004	-10,791691	98,038	-0,102880
2,498028	-11,218093	98,139	-0,103065
2,493990	-10,730937	98,258	-0,102854
2,490030	-10,121148	98,358	-0,102589
2,486063	-10,304534	98,459	-0,102669
2,482057	-9,084956	98,559	-0,102140
2,478030	-8,658554	98,683	-0,101955
2,474020	-7,438976	98,784	-0,101425
2,470061	-6,585046	98,884	-0,101055
2,466118	-6,036011	98,985	-0,100816
2,462042	-6,096765	99,091	-0,100843
2,458025	-5,486976	99,192	-0,100578
2,454018	-5,121328	99,292	-0,100419
2,450069	-5,304715	99,392	-0,100499
2,446081	-5,426222	99,513	-0,100552
2,441993	-4,999820	99,614	-0,100367
2,438021	-4,329277	99,714	-0,100076
2,433989	-4,390031	99,829	-0,100102
2,430000	-4,450785	99,930	-0,100128
2,426018	-3,901750	100,030	-0,099890
2,422016	-4,390031	100,131	-0,100102
2,418032	-3,109699	100,238	-0,099546
2,414007	-2,439156	100,339	-0,099255
2,410025	-2,011629	100,439	-0,099070
2,406032	-2,011629	100,540	-0,099070
2,402036	-1,707859	100,640	-0,098938
2,398023	-1,280332	100,740	-0,098752
2,394029	-1,645980	100,840	-0,098911
2,390032	-1,524473	100,942	-0,098858
2,386062	-1,463719	101,070	-0,098832
2,382021	-0,914684	101,171	-0,098594
2,378047	-1,402965	101,272	-0,098806
2,374029	-1,158824	101,372	-0,098700
2,370028	-0,183387	101,491	-0,098276
2,366026	-0,975437	101,592	-0,098620
2,362057	-0,609789	101,693	-0,098461
2,358060	-0,670543	101,793	-0,098488
2,354060	-0,060754	101,912	-0,098223
2,350050	-0,670543	102,012	-0,098488
2,345988	-0,731297	102,113	-0,098514
2,342020	-0,121508	102,213	-0,098250