File: Nanoindentation Datenauswertung/data/AR-SA-300-1-300-2um-diff_LF-4x4-3
Quasi static measurement routine
Tip parameters (shape,radius, material...)
02.09.2022

Piezo position[nm]	MEMS displ.[nm]	Time[ms]	Cap [pf]	Temp [°C]	Rh [%]
eoh

X-Pos [um]	Y-Pos [um]
0,000305	0,000943

POC
1,916036
1,417107	-0,066249	0,319	-0,134207	22,510000	46,345000
1,419010	0,000000	0,619	-0,134181	22,510000	46,345000
1,421014	0,224511	0,919	-0,134091	22,510000	46,345000
1,423107	-0,266224	1,219	-0,134287	22,510000	46,345000
1,425077	-0,041712	1,520	-0,134197	22,510000	46,345000
1,427123	0,000000	1,822	-0,134181	22,510000	46,385000
1,429120	-0,115323	2,123	-0,134227	22,510000	46,385000
1,431081	-0,083425	2,424	-0,134214	22,510000	46,385000
1,433063	0,158262	2,724	-0,134118	22,510000	46,385000
1,435035	-0,066249	3,024	-0,134207	22,510000	46,385000
1,437094	0,067476	3,324	-0,134154	22,510000	46,385000
1,439055	0,092013	3,625	-0,134144	22,500000	46,330000
1,441041	0,033125	3,925	-0,134167	22,500000	46,330000
1,443133	0,092013	4,226	-0,134144	22,500000	46,330000
1,445065	-0,015949	4,527	-0,134187	22,500000	46,330000
1,447013	0,067476	4,827	-0,134154	22,500000	46,330000
1,449081	0,191387	5,128	-0,134104	22,500000	46,330000
1,451085	0,166850	5,428	-0,134114	22,500000	46,330000
1,453000	0,008588	5,728	-0,134177	22,500000	46,370000
1,455033	-0,049073	6,028	-0,134200	22,500000	46,370000
1,457069	0,033125	6,328	-0,134167	22,500000	46,370000
1,459082	-0,174211	6,628	-0,134250	22,500000	46,370000
1,461097	-0,174211	6,929	-0,134250	22,500000	46,370000
1,463027	0,291987	7,229	-0,134064	22,500000	46,370000
1,465055	0,025764	7,529	-0,134170	22,500000	46,370000
1,467046	0,074837	7,830	-0,134151	22,500000	46,370000
1,469118	0,316524	8,130	-0,134055	22,500000	46,370000
1,471073	-0,074837	8,430	-0,134210	22,500000	46,370000
1,473037	-0,074837	8,732	-0,134210	22,500000	46,370000
1,475130	-0,015949	9,032	-0,134187	22,500000	46,370000
1,477051	0,382773	9,333	-0,134028	22,500000	46,370000
1,479120	-0,033125	9,634	-0,134194	22,510000	46,345000
1,481059	-0,190160	9,936	-0,134256	22,510000	46,345000
1,482996	-0,007361	10,237	-0,134184	22,510000	46,345000
1,485068	0,349649	10,538	-0,134042	22,510000	46,345000
1,487095	-0,090786	10,838	-0,134217	22,510000	46,345000
1,489035	0,133725	11,138	-0,134127	22,510000	46,345000
1,491076	0,083425	11,439	-0,134147	22,510000	46,345000
1,493024	0,125137	11,740	-0,134131	22,500000	46,355000
1,495000	0,092013	12,042	-0,134144	22,500000	46,355000
1,497061	0,166850	12,343	-0,134114	22,500000	46,355000
1,499063	0,000000	12,644	-0,134181	22,500000	46,355000
1,501058	0,158262	12,946	-0,134118	22,500000	46,355000
1,503071	0,092013	13,246	-0,134144	22,500000	46,355000
1,505019	0,100601	13,546	-0,134141	22,500000	46,355000
1,507080	-0,107962	13,846	-0,134224	22,500000	46,355000
1,509052	0,224511	14,147	-0,134091	22,500000	46,355000
1,511064	0,083425	14,448	-0,134147	22,500000	46,355000
1,513069	0,092013	14,749	-0,134144	22,500000	46,355000
1,515053	0,174211	15,049	-0,134111	22,500000	46,355000
1,517042	0,092013	15,349	-0,134144	22,500000	46,355000
1,519075	-0,190160	15,649	-0,134256	22,500000	46,355000
1,521008	0,149674	15,950	-0,134121	22,500000	46,355000
1,523075	0,109189	16,250	-0,134137	22,500000	46,355000
1,525042	0,100601	16,550	-0,134141	22,500000	46,355000
1,527025	-0,190160	16,850	-0,134256	22,500000	46,355000
1,529074	0,208562	17,151	-0,134098	22,500000	46,355000
1,531090	-0,041712	17,451	-0,134197	22,500000	46,355000
1,533054	-0,141086	17,751	-0,134237	22,520000	46,385000
1,535118	0,025764	18,051	-0,134170	22,520000	46,385000
1,537107	0,050300	18,352	-0,134161	22,520000	46,385000
1,539071	-0,165623	18,653	-0,134247	22,520000	46,385000
1,541029	-0,315297	18,953	-0,134306	22,520000	46,385000
1,543046	-0,033125	19,255	-0,134194	22,520000	46,385000
1,545033	0,092013	19,556	-0,134144	22,520000	46,385000
1,547060	0,033125	19,857	-0,134167	22,510000	46,345000
1,549043	-0,115323	20,157	-0,134227	22,510000	46,345000
1,551035	0,182799	20,458	-0,134108	22,510000	46,345000
1,553063	0,316524	20,758	-0,134055	22,510000	46,345000
1,555060	0,100601	21,059	-0,134141	22,510000	46,345000
1,557094	-0,090786	21,360	-0,134217	22,510000	46,345000
1,559069	-0,074837	21,662	-0,134210	22,510000	46,345000
1,561018	0,025764	21,962	-0,134170	22,510000	46,345000
1,563109	-0,033125	22,263	-0,134194	22,510000	46,345000
1,565070	0,033125	22,563	-0,134167	22,510000	46,345000
1,567114	0,515272	22,863	-0,133976	22,510000	46,345000
1,569020	0,116550	23,164	-0,134134	22,510000	46,345000
1,571053	0,033125	23,465	-0,134167	22,510000	46,345000
1,573090	0,215923	23,766	-0,134095	22,510000	46,400000
1,575083	-0,198748	24,066	-0,134260	22,510000	46,400000
1,577035	-0,090786	24,366	-0,134217	22,510000	46,400000
1,579037	0,166850	24,666	-0,134114	22,510000	46,400000
1,581084	0,092013	24,966	-0,134144	22,510000	46,400000
1,583040	0,008588	25,266	-0,134177	22,510000	46,400000
1,585094	0,067476	25,566	-0,134154	22,510000	46,400000
1,587051	-0,182799	25,866	-0,134253	22,510000	46,335000
1,589029	0,041712	26,166	-0,134164	22,510000	46,335000
1,591088	0,149674	26,467	-0,134121	22,510000	46,335000
1,593065	0,017176	26,767	-0,134174	22,510000	46,335000
1,595042	-0,007361	27,068	-0,134184	22,510000	46,335000
1,597056	-0,231872	27,368	-0,134273	22,510000	46,335000
1,599067	-0,074837	27,668	-0,134210	22,510000	46,345000
1,601120	0,133725	27,968	-0,134127	22,510000	46,345000
1,603065	-0,141086	28,268	-0,134237	22,510000	46,345000
1,605059	-0,132498	28,568	-0,134233	22,510000	46,345000
1,607025	-0,099374	28,868	-0,134220	22,510000	46,345000
1,609031	-0,132498	29,169	-0,134233	22,510000	46,345000
1,611043	-0,174211	29,469	-0,134250	22,510000	46,345000
1,613056	0,041712	29,769	-0,134164	22,510000	46,345000
1,615019	-0,165623	30,070	-0,134247	22,510000	46,345000
1,617031	-0,165623	30,370	-0,134247	22,510000	46,345000
1,619044	-0,083425	30,670	-0,134214	22,510000	46,345000
1,621027	0,208562	30,970	-0,134098	22,510000	46,345000
1,623062	0,291987	31,270	-0,134064	22,510000	46,345000
1,624912	0,274812	31,570	-0,134071	22,510000	46,345000
1,627020	-0,157035	31,870	-0,134243	22,510000	46,360000
1,628985	-0,099374	32,171	-0,134220	22,510000	46,360000
1,631014	-0,024537	32,471	-0,134190	22,510000	46,360000
1,633082	0,025764	32,772	-0,134170	22,510000	46,360000
1,635063	0,100601	33,073	-0,134141	22,510000	46,360000
1,637051	-0,407310	33,374	-0,134343	22,510000	46,360000
1,639083	0,092013	33,674	-0,134144	22,510000	46,360000
1,641051	-0,141086	33,976	-0,134237	22,510000	46,360000
1,643054	0,125137	34,277	-0,134131	22,510000	46,360000
1,645054	-0,015949	34,578	-0,134187	22,510000	46,360000
1,647042	0,083425	34,880	-0,134147	22,510000	46,360000
1,649046	0,149674	35,182	-0,134121	22,510000	46,360000
1,651113	-0,083425	35,482	-0,134214	22,510000	46,360000
1,653049	-0,066249	35,783	-0,134207	22,500000	46,380000
1,655072	-0,024537	36,083	-0,134190	22,500000	46,380000
1,657071	0,109189	36,383	-0,134137	22,500000	46,380000
1,659037	0,050300	36,683	-0,134161	22,500000	46,380000
1,661040	0,025764	36,984	-0,134170	22,500000	46,380000
1,663082	-0,190160	37,284	-0,134256	22,500000	46,380000
1,665147	-0,033125	37,585	-0,134194	22,510000	46,360000
1,667051	-0,182799	37,886	-0,134253	22,510000	46,360000
1,669056	-0,107962	38,186	-0,134224	22,510000	46,360000
1,671020	-0,190160	38,487	-0,134256	22,510000	46,360000
1,673025	0,017176	38,789	-0,134174	22,510000	46,360000
1,675055	0,008588	39,089	-0,134177	22,510000	46,360000
1,677030	0,017176	39,389	-0,134174	22,510000	46,360000
1,679042	0,174211	39,689	-0,134111	22,510000	46,360000
1,681024	-0,107962	39,990	-0,134224	22,510000	46,360000
1,683031	-0,083425	40,290	-0,134214	22,510000	46,360000
1,685012	-0,198748	40,592	-0,134260	22,510000	46,360000
1,687020	-0,149674	40,893	-0,134240	22,510000	46,360000
1,689050	0,149674	41,195	-0,134121	22,510000	46,360000
1,690999	0,199974	41,495	-0,134101	22,510000	46,360000
1,692997	-0,033125	41,795	-0,134194	22,510000	46,360000
1,695032	0,257636	42,095	-0,134078	22,510000	46,360000
1,697051	-0,141086	42,396	-0,134237	22,510000	46,360000
1,699074	0,125137	42,697	-0,134131	22,510000	46,360000
1,701051	0,067476	42,998	-0,134154	22,510000	46,360000
1,703029	-0,157035	43,300	-0,134243	22,510000	46,360000
1,705057	0,000000	43,601	-0,134181	22,510000	46,375000
1,707014	0,033125	43,902	-0,134167	22,510000	46,375000
1,709007	-0,083425	44,203	-0,134214	22,510000	46,375000
1,710989	0,224511	44,504	-0,134091	22,510000	46,375000
1,713025	0,033125	44,805	-0,134167	22,510000	46,375000
1,715054	0,067476	45,106	-0,134154	22,510000	46,375000
1,716973	0,116550	45,407	-0,134134	22,510000	46,375000
1,719037	-0,024537	45,707	-0,134190	22,510000	46,375000
1,721043	0,041712	46,008	-0,134164	22,510000	46,375000
1,723095	-0,024537	46,308	-0,134190	22,510000	46,375000
1,725061	0,000000	46,609	-0,134181	22,510000	46,375000
1,727020	0,050300	46,910	-0,134161	22,510000	46,375000
1,729104	0,224511	47,211	-0,134091	22,510000	46,375000
1,731068	-0,041712	47,512	-0,134197	22,510000	46,375000
1,733024	0,133725	47,812	-0,134127	22,520000	46,345000
1,735035	0,008588	48,113	-0,134177	22,520000	46,345000
1,737055	-0,099374	48,413	-0,134220	22,520000	46,345000
1,739015	-0,057661	48,714	-0,134204	22,520000	46,345000
1,741102	0,307936	49,015	-0,134058	22,520000	46,345000
1,743035	0,050300	49,315	-0,134161	22,520000	46,345000
1,745072	0,092013	49,616	-0,134144	22,500000	46,330000
1,747037	-0,041712	49,916	-0,134197	22,500000	46,330000
1,748995	0,341061	50,217	-0,134045	22,500000	46,330000
1,751033	-0,423259	50,519	-0,134349	22,500000	46,330000
1,753036	0,241687	50,820	-0,134084	22,500000	46,330000
1,755059	-0,090786	51,120	-0,134217	22,500000	46,330000
1,756986	-0,066249	51,421	-0,134207	22,500000	46,330000
1,759060	-0,041712	51,722	-0,134197	22,500000	46,330000
1,761043	-0,381546	52,022	-0,134333	22,500000	46,330000
1,763089	0,017176	52,323	-0,134174	22,500000	46,330000
1,765028	-0,224511	52,623	-0,134270	22,500000	46,330000
1,766957	0,067476	52,923	-0,134154	22,500000	46,330000
1,769052	-0,473559	53,223	-0,134369	22,500000	46,330000
1,771065	0,149674	53,525	-0,134121	22,500000	46,330000
1,773022	-0,123911	53,826	-0,134230	22,500000	46,330000
1,775101	-0,049073	54,126	-0,134200	22,500000	46,330000
1,777074	0,041712	54,427	-0,134164	22,500000	46,330000
1,779000	0,067476	54,728	-0,134154	22,500000	46,330000
1,780992	0,058888	55,029	-0,134157	22,500000	46,330000
1,783057	0,325112	55,329	-0,134051	22,500000	46,330000
1,785036	-0,207336	55,630	-0,134263	22,500000	46,330000
1,787031	0,092013	55,930	-0,134144	22,500000	46,330000
1,789084	-0,190160	56,230	-0,134256	22,500000	46,330000
1,791047	-0,007361	56,531	-0,134184	22,500000	46,330000
1,793068	0,141086	56,832	-0,134125	22,500000	46,330000
1,795035	0,025764	57,133	-0,134170	22,500000	46,330000
1,797062	0,215923	57,433	-0,134095	22,500000	46,330000
1,799060	0,291987	57,734	-0,134064	22,500000	46,355000
1,801044	0,109189	58,036	-0,134137	22,500000	46,355000
1,803054	0,050300	58,337	-0,134161	22,500000	46,355000
1,804998	-0,198748	58,637	-0,134260	22,500000	46,355000
1,807107	0,050300	58,937	-0,134161	22,500000	46,355000
1,809039	0,092013	59,238	-0,134144	22,500000	46,355000
1,811023	0,033125	59,539	-0,134167	22,500000	46,355000
1,813046	0,041712	59,839	-0,134164	22,510000	46,345000
1,815012	-0,033125	60,139	-0,134194	22,510000	46,345000
1,817123	-0,215923	60,439	-0,134267	22,510000	46,345000
1,819065	0,191387	60,739	-0,134104	22,510000	46,345000
1,821073	-0,107962	61,039	-0,134224	22,510000	46,345000
1,823044	-0,215923	61,340	-0,134267	22,510000	46,345000
1,825057	0,041712	61,640	-0,134164	22,510000	46,345000
1,827100	0,008588	61,940	-0,134177	22,510000	46,345000
1,829026	0,025764	62,242	-0,134170	22,510000	46,345000
1,831072	0,141086	62,542	-0,134125	22,510000	46,345000
1,833040	0,125137	62,842	-0,134131	22,510000	46,345000
1,834991	0,008588	63,142	-0,134177	22,510000	46,345000
1,837024	-0,090786	63,442	-0,134217	22,510000	46,345000
1,839053	-0,007361	63,742	-0,134184	22,510000	46,375000
1,841072	0,041712	64,042	-0,134164	22,510000	46,375000
1,843071	-0,057661	64,342	-0,134204	22,510000	46,375000
1,845030	-0,141086	64,642	-0,134237	22,510000	46,375000
1,847066	0,116550	64,942	-0,134134	22,510000	46,375000
1,849023	-0,074837	65,242	-0,134210	22,510000	46,375000
1,850997	0,182799	65,543	-0,134108	22,510000	46,375000
1,853034	-0,174211	65,844	-0,134250	22,510000	46,375000
1,855009	-0,074837	66,144	-0,134210	22,510000	46,375000
1,856987	-0,231872	66,445	-0,134273	22,510000	46,375000
1,859035	-0,074837	66,745	-0,134210	22,510000	46,375000
1,861066	0,149674	67,045	-0,134121	22,510000	46,375000
1,863018	0,017176	67,345	-0,134174	22,510000	46,375000
1,865013	-0,083425	67,646	-0,134214	22,510000	46,345000
1,867038	0,008588	67,946	-0,134177	22,510000	46,345000
1,869091	0,257636	68,246	-0,134078	22,510000	46,345000
1,870915	0,017176	68,547	-0,134174	22,510000	46,345000
1,873059	0,033125	68,847	-0,134167	22,510000	46,345000
1,875015	-0,083425	69,148	-0,134214	22,510000	46,345000
1,877059	-0,198748	69,448	-0,134260	22,510000	46,345000
1,879048	0,083425	69,748	-0,134147	22,510000	46,345000
1,881019	-28,829450	70,048	-0,145655	22,510000	46,345000
1,883012	-26,684938	70,350	-0,144801	22,510000	46,345000
1,885004	-24,324503	70,650	-0,143862	22,510000	46,345000
1,887018	-22,862113	70,951	-0,143280	22,510000	46,345000
1,889011	-20,959289	71,253	-0,142522	22,510000	46,345000
1,891019	-18,490892	71,555	-0,141540	22,510000	46,345000
1,893014	-16,711978	71,855	-0,140832	22,500000	46,340000
1,895009	-15,232412	72,155	-0,140243	22,500000	46,340000
1,897057	-12,814316	72,455	-0,139281	22,500000	46,340000
1,899025	-10,969152	72,755	-0,138546	22,500000	46,340000
1,900998	-9,423337	73,057	-0,137931	22,500000	46,340000
1,902950	-7,936411	73,357	-0,137339	22,500000	46,340000
1,904971	-5,309752	73,657	-0,136294	22,510000	46,345000
1,907060	-2,867119	73,958	-0,135322	22,510000	46,345000
1,909028	-1,561764	74,259	-0,134802	22,510000	46,345000
1,911069	-0,033125	74,559	-0,134194	22,510000	46,345000
1,913041	2,169048	74,859	-0,133317	22,510000	46,345000
1,915024	4,055924	75,159	-0,132566	22,510000	46,345000
1,917044	5,850787	75,460	-0,131852	22,510000	46,345000
1,918996	9,092091	75,761	-0,130562	22,510000	46,360000
1,920965	9,864999	76,061	-0,130254	22,510000	46,360000
1,923024	11,934673	76,361	-0,129431	22,510000	46,360000
1,924991	13,971223	76,662	-0,128620	22,510000	46,360000
1,927053	17,145051	76,962	-0,127357	22,510000	46,360000
1,929052	18,882253	77,262	-0,126666	22,510000	46,360000
1,931056	20,926164	77,562	-0,125852	22,510000	46,360000
1,932991	21,899046	77,862	-0,125465	22,510000	46,360000
1,935015	23,785922	78,163	-0,124714	22,510000	46,360000
1,937034	25,880133	78,463	-0,123880	22,510000	46,360000
1,939034	28,888338	78,763	-0,122683	22,510000	46,360000
1,941001	29,711546	79,064	-0,122355	22,510000	46,360000
1,943061	32,678039	79,365	-0,121175	22,510000	46,360000
1,945075	34,015291	79,668	-0,120643	22,510000	46,375000
1,946999	36,683662	79,968	-0,119581	22,510000	46,375000
1,948977	38,112928	80,268	-0,119012	22,510000	46,375000
1,951033	40,332277	80,568	-0,118128	22,510000	46,375000
1,953048	42,525862	80,868	-0,117255	22,510000	46,375000
1,955026	44,304776	81,169	-0,116547	22,510000	46,375000
1,957096	46,024802	81,470	-0,115863	22,510000	46,375000
1,959048	48,027000	81,771	-0,115066	22,500000	46,315000
1,961034	49,682004	82,071	-0,114407	22,500000	46,315000
1,963047	51,617953	82,371	-0,113637	22,500000	46,315000
1,965039	53,853251	82,671	-0,112747	22,500000	46,315000
1,967020	56,396484	82,971	-0,111735	22,500000	46,315000
1,969063	57,792625	83,272	-0,111179	22,500000	46,315000
1,971018	59,089392	83,574	-0,110663	22,500000	46,315000
1,972968	61,549201	83,874	-0,109684	22,520000	46,335000
1,975044	63,892460	84,174	-0,108751	22,520000	46,335000
1,977007	66,526480	84,475	-0,107703	22,520000	46,335000
1,979066	68,878327	84,776	-0,106767	22,520000	46,335000
1,980971	69,626698	85,077	-0,106469	22,520000	46,335000
1,983078	71,787158	85,378	-0,105609	22,520000	46,335000
1,985037	74,713165	85,679	-0,104445	22,500000	46,355000
1,987019	76,142431	85,980	-0,103876	22,500000	46,355000
1,989031	78,701614	86,282	-0,102857	22,500000	46,355000
1,991042	80,813001	86,583	-0,102017	22,500000	46,355000
1,993042	81,535608	86,883	-0,101729	22,500000	46,355000
1,995019	84,510688	87,183	-0,100545	22,500000	46,355000
1,996998	86,430689	87,483	-0,099781	22,500000	46,355000
1,999027	87,810881	87,783	-0,099232	22,510000	46,345000
2,001011	90,511149	88,083	-0,098157	22,510000	46,345000
2,003027	91,517156	88,383	-0,097757	22,510000	46,345000
2,004995	93,536530	88,684	-0,096953	22,510000	46,345000
2,007023	96,004927	88,985	-0,095971	22,510000	46,345000
2,009018	97,583867	89,287	-0,095342	22,510000	46,345000
2,010036	99,370142	89,587	-0,094631	22,510000	46,335000
2,010028	99,178755	89,888	-0,094708	22,510000	46,335000
2,010050	99,552940	90,189	-0,094559	22,510000	46,335000
2,010036	99,121094	90,490	-0,094730	22,510000	46,335000
2,007972	98,315062	90,791	-0,095051	22,510000	46,335000
2,006018	96,203675	91,093	-0,095892	22,510000	46,335000
2,004017	93,992914	91,394	-0,096771	22,510000	46,335000
2,002064	91,001884	91,695	-0,097962	22,510000	46,335000
2,000060	89,987290	91,995	-0,098366	22,510000	46,335000
1,998035	88,026804	92,297	-0,099146	22,510000	46,335000
1,996021	84,876286	92,597	-0,100400	22,510000	46,335000
1,994076	82,982049	92,897	-0,101154	22,510000	46,335000
1,992019	80,929550	93,197	-0,101971	22,510000	46,335000
1,990061	79,018138	93,499	-0,102731	22,510000	46,335000
1,987997	76,699415	93,799	-0,103654	22,510000	46,345000
1,986042	74,962213	94,100	-0,104346	22,510000	46,345000
1,984040	73,332973	94,401	-0,104994	22,510000	46,345000
1,982058	71,222813	94,702	-0,105834	22,510000	46,345000
1,980002	69,210800	95,002	-0,106635	22,510000	46,345000
1,977990	67,807298	95,303	-0,107193	22,510000	46,345000
1,976014	65,537649	95,604	-0,108097	22,510000	46,320000
1,974007	63,551400	95,904	-0,108887	22,510000	46,320000
1,971993	61,390939	96,204	-0,109747	22,510000	46,320000
1,970022	59,413277	96,504	-0,110534	22,510000	46,320000
1,968039	57,409852	96,804	-0,111332	22,510000	46,320000
1,965973	55,374529	97,104	-0,112142	22,510000	46,320000
1,964022	52,481647	97,406	-0,113293	22,510000	46,320000
1,962037	50,354311	97,706	-0,114140	22,490000	46,340000
1,959990	49,448905	98,007	-0,114500	22,490000	46,340000
1,958104	46,066514	98,309	-0,115846	22,490000	46,340000
1,956033	44,179638	98,609	-0,116597	22,490000	46,340000
1,954011	43,531868	98,909	-0,116855	22,490000	46,340000
1,952017	40,497900	99,210	-0,118063	22,490000	46,340000
1,950070	38,744749	99,511	-0,118760	22,490000	46,340000
1,947995	37,331433	99,812	-0,119323	22,510000	46,375000
1,946049	34,631164	100,112	-0,120397	22,510000	46,375000
1,944022	32,270729	100,412	-0,121337	22,510000	46,375000
1,942056	30,392441	100,713	-0,122084	22,510000	46,375000
1,940039	27,932632	101,015	-0,123063	22,510000	46,375000
1,938009	26,818664	101,316	-0,123507	22,510000	46,375000
1,936045	24,226356	101,616	-0,124539	22,510000	46,375000
1,934015	21,973883	101,917	-0,125435	22,510000	46,375000
1,932034	20,502905	102,219	-0,126021	22,510000	46,375000
1,930035	18,549780	102,519	-0,126798	22,510000	46,375000
1,928060	16,829754	102,819	-0,127482	22,510000	46,375000
1,926027	14,768668	103,119	-0,128303	22,510000	46,375000
1,924023	11,767823	103,420	-0,129497	22,510000	46,375000
1,922002	10,695568	103,720	-0,129924	22,520000	46,320000
1,920012	8,651657	104,020	-0,130737	22,520000	46,320000
1,918048	7,156142	104,322	-0,131333	22,520000	46,320000
1,916042	4,571196	104,622	-0,132361	22,520000	46,320000
1,914035	1,728614	104,924	-0,133493	22,520000	46,320000
1,911982	0,041712	105,225	-0,134164	22,520000	46,320000
1,910033	-1,304128	105,525	-0,134700	22,520000	46,320000
1,908024	-3,382390	105,826	-0,135527	22,510000	46,375000
1,906021	-6,332934	106,126	-0,136701	22,510000	46,375000
1,904045	-8,368257	106,427	-0,137511	22,510000	46,375000
1,902049	-9,224590	106,728	-0,137852	22,510000	46,375000
1,900002	-12,175133	107,029	-0,139026	22,510000	46,375000
1,897989	-14,335594	107,329	-0,139886	22,510000	46,375000
1,896001	-15,183339	107,629	-0,140224	22,510000	46,345000
1,894042	-18,149831	107,930	-0,141404	22,510000	46,345000
1,892007	-19,928745	108,230	-0,142112	22,510000	46,345000
1,890076	-22,272005	108,531	-0,143045	22,510000	46,345000
1,888051	-23,751570	108,832	-0,143634	22,510000	46,345000
1,885977	-25,463008	109,134	-0,144315	22,510000	46,345000
1,884063	-27,873744	109,435	-0,145274	22,510000	46,345000
1,882038	-30,516351	109,738	-0,146326	22,510000	46,345000
1,880062	-32,394639	110,040	-0,147074	22,510000	46,345000
1,878044	-33,973579	110,340	-0,147702	22,510000	46,345000
1,876071	-35,435969	110,640	-0,148284	22,510000	46,345000
1,874034	-38,619612	110,940	-0,149551	22,510000	46,345000
1,872050	-39,134883	111,240	-0,149756	22,510000	46,345000
1,870047	-42,475561	111,542	-0,151086	22,510000	46,345000
1,868061	-43,547817	111,843	-0,151513	22,510000	46,345000
1,866065	-46,481185	112,143	-0,152680	22,510000	46,345000
1,863994	-48,192623	112,444	-0,153361	22,510000	46,345000
1,862082	-50,211997	112,746	-0,154165	22,510000	46,345000
1,860053	-52,231372	113,047	-0,154969	22,510000	46,345000
1,858034	-54,301046	113,348	-0,155792	22,510000	46,345000
1,856090	-55,813737	113,649	-0,156395	22,500000	46,355000
1,854031	-57,791398	113,950	-0,157182	22,500000	46,355000
1,851980	-59,843897	114,250	-0,157999	22,500000	46,355000
1,850075	-62,195744	114,551	-0,158935	22,500000	46,355000
1,848003	-63,434850	114,852	-0,159428	22,500000	46,355000
1,845998	-65,952320	115,152	-0,160430	22,500000	46,355000
1,844058	-67,506723	115,453	-0,161048	22,500000	46,355000
1,841992	-70,424142	115,754	-0,162209	22,500000	46,355000
1,840053	-72,492590	116,054	-0,163033	22,500000	46,355000
1,838087	-72,925663	116,355	-0,163205	22,500000	46,355000
1,836056	-76,382891	116,655	-0,164581	22,500000	46,355000
1,834037	-78,418214	116,956	-0,165391	22,500000	46,355000
1,832067	-79,706393	117,256	-0,165904	22,500000	46,355000
1,830116	-81,709819	117,557	-0,166701	22,500000	46,355000
1,828051	-83,604055	117,857	-0,167455	22,500000	46,330000
1,826024	-86,354625	118,157	-0,168550	22,500000	46,330000
1,824021	-88,291801	118,457	-0,169321	22,500000	46,330000
1,822051	-89,562804	118,757	-0,169827	22,500000	46,330000
1,820086	-92,504760	119,058	-0,170998	22,500000	46,330000
1,818048	-93,677617	119,359	-0,171464	22,500000	46,330000
1,816032	-96,626933	119,659	-0,172638	22,500000	46,370000
1,814076	-97,399841	119,960	-0,172946	22,500000	46,370000
1,812012	-99,419215	120,260	-0,173750	22,500000	46,370000
1,810068	-102,602858	120,560	-0,175017	22,500000	46,370000
1,808032	-104,356009	120,862	-0,175714	22,500000	46,370000
1,806004	-105,727613	121,163	-0,176260	22,500000	46,370000
1,804074	-108,711281	121,463	-0,177448	22,500000	46,370000
1,802065	-109,999460	121,764	-0,177960	22,510000	46,375000
1,800050	-112,408969	122,065	-0,178919	22,510000	46,375000
1,798050	-114,062745	122,366	-0,179578	22,510000	46,375000
1,796041	-116,190081	122,666	-0,180424	22,510000	46,375000
1,794092	-118,433967	122,966	-0,181317	22,510000	46,375000
1,792052	-120,444753	123,266	-0,182118	22,510000	46,375000
1,790057	-122,448178	123,566	-0,182915	22,510000	46,375000
1,788037	-124,044294	123,867	-0,183550	22,510000	46,345000
1,786031	-126,445214	124,167	-0,184506	22,510000	46,345000
1,784023	-128,281790	124,467	-0,185237	22,510000	46,345000
1,782014	-130,227554	124,768	-0,186011	22,510000	46,345000
1,780048	-132,304589	125,068	-0,186838	22,510000	46,345000
1,778036	-134,158341	125,368	-0,187576	22,510000	46,345000
1,776080	-137,424181	125,668	-0,188875	22,510000	46,375000
1,774018	-137,988527	125,969	-0,189100	22,510000	46,375000
1,772068	-141,213882	126,269	-0,190384	22,510000	46,375000
1,770006	-142,809997	126,569	-0,191019	22,510000	46,375000
1,768023	-145,534803	126,869	-0,192104	22,510000	46,375000
1,766099	-147,538228	127,169	-0,192901	22,510000	46,375000
1,764063	-149,549015	127,470	-0,193701	22,510000	46,375000
1,762062	-150,555021	127,770	-0,194102	22,500000	46,355000
1,760059	-152,383009	128,070	-0,194829	22,500000	46,355000
1,758013	-154,717680	128,370	-0,195758	22,500000	46,355000
1,756077	-156,795943	128,670	-0,196585	22,500000	46,355000
1,754010	-158,765016	128,970	-0,197369	22,500000	46,355000
1,752051	-160,735317	129,270	-0,198153	22,500000	46,355000
1,750037	-163,860072	129,571	-0,199397	22,500000	46,355000
1,748049	-164,615804	129,871	-0,199698	22,510000	46,360000
1,746015	-167,731970	130,172	-0,200938	22,510000	46,360000
1,744062	-169,902246	130,473	-0,201802	22,510000	46,360000
1,742018	-171,679933	130,775	-0,202509	22,510000	46,360000
1,740049	-173,791320	131,076	-0,203350	22,510000	46,360000
1,738053	-175,304010	131,377	-0,203952	22,510000	46,360000
1,736061	-177,664445	131,677	-0,204891	22,510000	46,335000
1,734028	-179,276510	131,978	-0,205533	22,510000	46,335000
1,732020	-181,793980	132,279	-0,206535	22,510000	46,335000
1,730054	-183,033085	132,579	-0,207028	22,510000	46,335000
1,728049	-185,550556	132,881	-0,208030	22,510000	46,335000
1,726081	-187,254633	133,181	-0,208708	22,510000	46,335000
1,724050	-189,439630	133,482	-0,209578	22,510000	46,335000
1,722022	-191,309330	133,783	-0,210322	22,510000	46,320000
1,720039	-193,046531	134,084	-0,211013	22,510000	46,320000
1,718071	-195,307593	134,384	-0,211913	22,510000	46,320000
1,716043	-197,509766	134,684	-0,212790	22,510000	46,320000
1,714044	-200,119249	134,985	-0,213828	22,510000	46,320000
1,712034	-202,720144	135,286	-0,214863	22,510000	46,320000
1,709997	-204,598432	135,586	-0,215611	22,510000	46,320000
1,708059	-205,637563	135,886	-0,216024	22,510000	46,375000
1,706029	-208,013947	136,186	-0,216970	22,510000	46,375000
1,704015	-209,493512	136,486	-0,217559	22,510000	46,375000
1,702057	-212,036746	136,787	-0,218571	22,510000	46,375000
1,700065	-213,798485	137,089	-0,219272	22,510000	46,375000
1,697991	-215,842396	137,390	-0,220086	22,510000	46,375000
1,696082	-217,986907	137,690	-0,220939	22,510000	46,385000
1,694045	-220,305630	137,992	-0,221862	22,510000	46,385000
1,691972	-222,117668	138,293	-0,222583	22,510000	46,385000
1,690041	-224,751688	138,595	-0,223632	22,510000	46,385000
1,688016	-226,913375	138,895	-0,224492	22,510000	46,385000
1,686042	-228,217504	139,195	-0,225011	22,510000	46,385000
1,684045	-230,320303	139,495	-0,225848	22,510000	46,385000
1,682014	-232,040329	139,795	-0,226533	22,510000	46,385000
1,680027	-234,550438	140,095	-0,227532	22,510000	46,385000
1,678037	-236,402962	140,395	-0,228269	22,510000	46,385000
1,676089	-238,564649	140,696	-0,229129	22,510000	46,385000
1,674024	-240,450298	140,997	-0,229880	22,510000	46,385000
1,672073	-242,653698	141,297	-0,230757	22,510000	46,385000
1,670017	-244,332012	141,598	-0,231425	22,510000	46,360000
1,668094	-246,351386	141,898	-0,232229	22,510000	46,360000
1,666036	-249,575514	142,198	-0,233512	22,510000	46,360000
1,664078	-251,354428	142,498	-0,234220	22,510000	46,360000
1,662052	-252,184997	142,798	-0,234550	22,510000	46,360000
1,660022	-254,329509	143,100	-0,235404	22,510000	46,360000
1,658040	-256,581982	143,400	-0,236300	22,510000	46,360000
1,656013	-258,500756	143,700	-0,237064	22,510000	46,360000
1,654022	-260,636679	144,000	-0,237914	22,510000	46,360000
1,652016	-262,440130	144,300	-0,238632	22,510000	46,360000
1,650041	-264,601818	144,601	-0,239492	22,510000	46,360000
1,648104	-266,238419	144,902	-0,240144	22,510000	46,360000
1,646046	-268,614803	145,203	-0,241089	22,510000	46,360000
1,644062	-0,049073	145,504	-0,134200	22,510000	46,360000
1,642053	0,050300	145,805	-0,134161	22,510000	46,345000
1,640007	-0,198748	146,105	-0,134260	22,510000	46,345000
1,638058	-0,231872	146,406	-0,134273	22,510000	46,345000
1,636073	0,116550	146,706	-0,134134	22,510000	46,345000
1,634030	0,058888	147,006	-0,134157	22,510000	46,345000
1,632035	0,067476	147,307	-0,134154	22,510000	46,345000
1,630055	0,257636	147,607	-0,134078	22,510000	46,335000
1,628040	0,100601	147,907	-0,134141	22,510000	46,335000
1,626011	-0,149674	148,208	-0,134240	22,510000	46,335000
1,624052	0,166850	148,508	-0,134114	22,510000	46,335000
1,622070	-0,015949	148,808	-0,134187	22,510000	46,335000
1,620027	-0,348422	149,110	-0,134319	22,510000	46,335000
1,618029	0,233099	149,410	-0,134088	22,510000	46,335000
1,616030	0,008588	149,711	-0,134177	22,510000	46,360000
1,614038	0,166850	150,013	-0,134114	22,510000	46,360000
1,612093	0,316524	150,314	-0,134055	22,510000	46,360000
1,610028	-0,123911	150,614	-0,134230	22,510000	46,360000
1,608036	-0,123911	150,916	-0,134230	22,510000	46,360000
1,606036	-0,041712	151,216	-0,134197	22,510000	46,360000
1,604072	0,008588	151,518	-0,134177	22,510000	46,360000
1,602074	-0,306709	151,819	-0,134303	22,510000	46,375000
1,600039	-0,141086	152,119	-0,134237	22,510000	46,375000
1,598070	-0,157035	152,420	-0,134243	22,510000	46,375000
1,596051	-0,207336	152,721	-0,134263	22,510000	46,375000
1,594051	-0,132498	153,021	-0,134233	22,510000	46,375000
1,592091	0,433074	153,323	-0,134008	22,510000	46,375000
1,590058	-0,099374	153,624	-0,134220	22,510000	46,375000
1,588060	-0,115323	153,926	-0,134227	22,510000	46,375000
1,586047	-0,083425	154,227	-0,134214	22,510000	46,375000
1,584047	0,000000	154,527	-0,134181	22,510000	46,375000
1,582071	0,182799	154,829	-0,134108	22,510000	46,375000
1,580045	0,058888	155,130	-0,134157	22,510000	46,375000
1,577971	-0,007361	155,430	-0,134184	22,510000	46,375000
1,576071	0,274812	155,730	-0,134071	22,510000	46,360000
1,574050	0,215923	156,030	-0,134095	22,510000	46,360000
1,572047	0,109189	156,330	-0,134137	22,510000	46,360000
1,570057	0,074837	156,630	-0,134151	22,510000	46,360000
1,568091	0,083425	156,930	-0,134147	22,510000	46,360000
1,566117	0,174211	157,230	-0,134111	22,510000	46,360000
1,564030	0,007361	157,530	-0,134178	22,510000	46,360000
1,562052	0,008588	157,830	-0,134177	22,500000	46,355000
1,560058	0,083425	158,130	-0,134147	22,500000	46,355000
1,558073	-0,024537	158,430	-0,134190	22,500000	46,355000
1,556081	-0,083425	158,730	-0,134214	22,500000	46,355000
1,554093	0,158262	159,031	-0,134118	22,500000	46,355000
1,552062	0,058888	159,332	-0,134157	22,500000	46,355000
1,550091	0,058888	159,632	-0,134157	22,500000	46,355000
1,548065	-0,115323	159,933	-0,134227	22,500000	46,355000
1,546077	0,083425	160,234	-0,134147	22,500000	46,355000
1,544089	-0,115323	160,535	-0,134227	22,500000	46,355000
1,542066	-0,339834	160,836	-0,134316	22,500000	46,355000
1,540085	0,025764	161,136	-0,134170	22,500000	46,355000
1,538066	-0,066249	161,437	-0,134207	22,500000	46,355000
1,536068	-0,024537	161,737	-0,134190	22,520000	46,400000
1,534047	-0,007361	162,037	-0,134184	22,520000	46,400000
1,532105	0,000000	162,338	-0,134181	22,520000	46,400000
1,529994	-0,007361	162,639	-0,134184	22,520000	46,400000
1,528106	0,050300	162,939	-0,134161	22,520000	46,400000
1,526033	0,274812	163,240	-0,134071	22,520000	46,400000
1,524046	-0,066249	163,541	-0,134207	22,520000	46,400000
1,521983	0,025764	163,842	-0,134170	22,510000	46,400000
1,520056	-0,099374	164,142	-0,134220	22,510000	46,400000
1,518051	-0,041712	164,442	-0,134197	22,510000	46,400000
1,516063	-0,115323	164,744	-0,134227	22,510000	46,400000
1,514071	0,141086	165,044	-0,134125	22,510000	46,400000
1,512095	-0,115323	165,346	-0,134227	22,510000	46,400000
1,510071	-0,074837	165,648	-0,134210	22,510000	46,345000
1,508020	-0,198748	165,948	-0,134260	22,510000	46,345000
1,506041	-0,007361	166,249	-0,134184	22,510000	46,345000
1,504051	-0,107962	166,551	-0,134224	22,510000	46,345000
1,502094	0,208562	166,851	-0,134098	22,510000	46,345000
1,500019	-0,107962	167,152	-0,134224	22,510000	46,345000
1,498086	-0,115323	167,452	-0,134227	22,510000	46,345000
1,496072	-0,024537	167,753	-0,134190	22,510000	46,345000
1,494040	0,058888	168,053	-0,134157	22,510000	46,345000
1,492062	-0,132498	168,353	-0,134233	22,510000	46,345000
1,490114	-0,090786	168,653	-0,134217	22,510000	46,345000
1,488076	-0,066249	168,953	-0,134207	22,510000	46,345000
1,486122	-0,099374	169,253	-0,134220	22,510000	46,345000
1,484038	-0,090786	169,555	-0,134217	22,510000	46,345000
1,482066	0,100601	169,856	-0,134141	22,500000	46,355000
1,480068	-0,066249	170,156	-0,134207	22,500000	46,355000
1,478017	-0,083425	170,456	-0,134214	22,500000	46,355000
1,476019	0,133725	170,756	-0,134127	22,500000	46,355000
1,474067	0,215923	171,057	-0,134095	22,500000	46,355000
1,472080	0,033125	171,357	-0,134167	22,500000	46,355000
1,470079	0,067476	171,657	-0,134154	22,500000	46,355000
1,468060	0,199974	171,958	-0,134101	22,500000	46,355000
1,466063	0,033125	172,258	-0,134167	22,500000	46,355000
1,464082	0,100601	172,559	-0,134141	22,500000	46,355000
1,462065	-0,090786	172,861	-0,134217	22,500000	46,355000
1,460072	-0,132498	173,161	-0,134233	22,500000	46,355000
1,458068	-0,015949	173,462	-0,134187	22,500000	46,355000
1,456088	-0,357010	173,762	-0,134323	22,510000	46,375000
1,454069	0,116550	174,063	-0,134134	22,510000	46,375000
1,452070	-0,132498	174,363	-0,134233	22,510000	46,375000
1,450075	-0,115323	174,663	-0,134227	22,510000	46,375000
1,448002	0,033125	174,964	-0,134167	22,510000	46,375000
1,446065	-0,182799	175,264	-0,134253	22,510000	46,375000
1,444091	0,017176	175,564	-0,134174	22,510000	46,375000
1,442097	-0,049073	175,865	-0,134200	22,510000	46,375000
1,440019	-0,083425	176,165	-0,134214	22,510000	46,375000
1,438093	-0,182799	176,465	-0,134253	22,510000	46,375000
1,436069	0,208562	176,765	-0,134098	22,510000	46,375000
1,434042	0,067476	177,066	-0,134154	22,510000	46,375000
1,432022	0,174211	177,367	-0,134111	22,510000	46,375000
1,430049	0,208562	177,667	-0,134098	22,510000	46,385000
1,428092	-0,099374	177,968	-0,134220	22,510000	46,385000
1,426037	-0,123911	178,268	-0,134230	22,510000	46,385000
1,424030	0,058888	178,568	-0,134157	22,510000	46,385000
1,422059	-0,299348	178,868	-0,134300	22,510000	46,385000
1,420103	0,208562	179,169	-0,134098	22,510000	46,385000
1,418029	0,174211	179,469	-0,134111	22,510000	46,385000
1,416005	0,033125	179,770	-0,134167	22,500000	46,355000

X-Pos [um]	Y-Pos [um]
0,000220	10,004502

POC
1,907963
1,408894	0,166850	0,299	-0,134170	22,500000	46,355000
1,410930	0,149674	0,600	-0,134177	22,500000	46,355000
1,412969	0,266224	0,900	-0,134131	22,500000	46,355000
1,414959	-0,008588	1,202	-0,134240	22,500000	46,355000
1,416923	0,182799	1,502	-0,134164	22,520000	46,335000
1,419006	0,033125	1,802	-0,134224	22,520000	46,335000
1,420921	0,199974	2,103	-0,134157	22,520000	46,335000
1,422978	0,449022	2,405	-0,134058	22,520000	46,335000
1,424945	0,415898	2,706	-0,134071	22,520000	46,335000
1,426956	0,050300	3,006	-0,134217	22,520000	46,335000
1,428986	0,050300	3,306	-0,134217	22,520000	46,335000
1,430872	0,382773	3,607	-0,134084	22,520000	46,345000
1,432971	0,033125	3,909	-0,134224	22,520000	46,345000
1,434864	0,466198	4,210	-0,134051	22,520000	46,345000
1,436874	0,025764	4,510	-0,134227	22,520000	46,345000
1,438921	0,374185	4,811	-0,134088	22,520000	46,345000
1,440964	-0,083425	5,111	-0,134270	22,520000	46,345000
1,442984	0,241687	5,411	-0,134141	22,520000	46,345000
1,444875	-0,074837	5,711	-0,134267	22,520000	46,345000
1,446921	0,099374	6,011	-0,134197	22,520000	46,345000
1,448931	0,374185	6,312	-0,134088	22,520000	46,345000
1,450976	0,057661	6,612	-0,134214	22,520000	46,345000
1,452968	0,382773	6,914	-0,134084	22,520000	46,345000
1,454973	0,282173	7,214	-0,134125	22,520000	46,345000
1,456952	0,074837	7,514	-0,134207	22,510000	46,335000
1,458989	0,357010	7,814	-0,134095	22,510000	46,335000
1,460989	0,241687	8,114	-0,134141	22,510000	46,335000
1,462944	0,208562	8,415	-0,134154	22,510000	46,335000
1,464931	0,208562	8,716	-0,134154	22,510000	46,335000
1,466989	0,008588	9,016	-0,134233	22,510000	46,335000
1,468912	0,141086	9,316	-0,134181	22,510000	46,335000
1,470970	0,066249	9,616	-0,134210	22,510000	46,335000
1,473016	0,315297	9,916	-0,134111	22,510000	46,335000
1,474963	0,473559	10,216	-0,134048	22,510000	46,335000
1,476932	0,141086	10,516	-0,134181	22,510000	46,335000
1,478927	-0,066249	10,817	-0,134263	22,510000	46,335000
1,480968	-0,099374	11,117	-0,134276	22,510000	46,335000
1,482939	0,182799	11,419	-0,134164	22,510000	46,335000
1,484868	0,208562	11,720	-0,134154	22,500000	46,355000
1,486928	0,199974	12,020	-0,134157	22,500000	46,355000
1,488938	0,099374	12,320	-0,134197	22,500000	46,355000
1,490881	-0,008588	12,620	-0,134240	22,500000	46,355000
1,492981	0,199974	12,920	-0,134157	22,500000	46,355000
1,494965	0,025764	13,220	-0,134227	22,500000	46,355000
1,496913	0,290760	13,521	-0,134121	22,510000	46,335000
1,498898	0,424486	13,823	-0,134068	22,510000	46,335000
1,500930	0,083425	14,123	-0,134204	22,510000	46,335000
1,503003	0,341061	14,424	-0,134101	22,510000	46,335000
1,504882	0,548396	14,725	-0,134019	22,510000	46,335000
1,506881	0,092013	15,025	-0,134200	22,510000	46,335000
1,508936	-0,132498	15,326	-0,134290	22,510000	46,335000
1,510964	0,099374	15,628	-0,134197	22,490000	46,340000
1,512951	0,374185	15,929	-0,134088	22,490000	46,340000
1,514943	0,374185	16,230	-0,134088	22,490000	46,340000
1,516932	0,215923	16,531	-0,134151	22,490000	46,340000
1,518993	0,083425	16,831	-0,134204	22,490000	46,340000
1,520875	0,257636	17,132	-0,134134	22,490000	46,340000
1,522927	0,041712	17,432	-0,134220	22,490000	46,340000
1,524935	0,125137	17,732	-0,134187	22,490000	46,340000
1,526974	0,050300	18,032	-0,134217	22,490000	46,340000
1,528955	0,133725	18,332	-0,134184	22,490000	46,340000
1,530921	-0,015949	18,633	-0,134243	22,490000	46,340000
1,532915	-0,057661	18,934	-0,134260	22,490000	46,340000
1,534902	0,017176	19,236	-0,134230	22,490000	46,340000
1,536868	-0,125137	19,538	-0,134287	22,510000	46,345000
1,538923	0,266224	19,838	-0,134131	22,510000	46,345000
1,540889	0,250275	20,138	-0,134137	22,510000	46,345000
1,542953	0,341061	20,438	-0,134101	22,510000	46,345000
1,544932	0,349649	20,738	-0,134098	22,510000	46,345000
1,546948	0,341061	21,039	-0,134101	22,510000	46,345000
1,548970	0,266224	21,340	-0,134131	22,510000	46,345000
1,550949	0,125137	21,640	-0,134187	22,510000	46,345000
1,552957	-0,024537	21,941	-0,134247	22,510000	46,345000
1,554909	0,125137	22,242	-0,134187	22,510000	46,345000
1,556927	0,290760	22,543	-0,134121	22,510000	46,345000
1,558907	0,099374	22,844	-0,134197	22,510000	46,345000
1,560923	0,099374	23,145	-0,134197	22,510000	46,345000
1,562920	0,433074	23,445	-0,134064	22,510000	46,345000
1,564934	0,017176	23,745	-0,134230	22,500000	46,340000
1,566955	0,041712	24,045	-0,134220	22,500000	46,340000
1,568930	0,215923	24,346	-0,134151	22,500000	46,340000
1,570913	0,033125	24,647	-0,134224	22,500000	46,340000
1,572965	0,257636	24,947	-0,134134	22,500000	46,340000
1,574980	0,141086	25,247	-0,134181	22,500000	46,340000
1,576977	0,191387	25,547	-0,134161	22,510000	46,375000
1,578951	-0,083425	25,847	-0,134270	22,510000	46,375000
1,580936	0,241687	26,149	-0,134141	22,510000	46,375000
1,582972	0,433074	26,451	-0,134064	22,510000	46,375000
1,584910	0,332473	26,752	-0,134104	22,510000	46,375000
1,586929	0,224511	27,052	-0,134147	22,510000	46,375000
1,588926	0,074837	27,352	-0,134207	22,510000	46,375000
1,590920	0,141086	27,653	-0,134181	22,510000	46,375000
1,592886	0,482147	27,953	-0,134045	22,510000	46,375000
1,594933	0,033125	28,253	-0,134224	22,510000	46,375000
1,596937	0,307936	28,554	-0,134114	22,510000	46,375000
1,598863	0,266224	28,856	-0,134131	22,510000	46,375000
1,600919	0,341061	29,157	-0,134101	22,510000	46,375000
1,602933	0,008588	29,457	-0,134233	22,510000	46,375000
1,604924	-0,149674	29,758	-0,134296	22,520000	46,345000
1,606882	0,341061	30,059	-0,134101	22,520000	46,345000
1,608980	0,199974	30,360	-0,134157	22,520000	46,345000
1,610960	0,099374	30,660	-0,134197	22,520000	46,345000
1,612966	0,166850	30,960	-0,134170	22,520000	46,345000
1,614922	0,125137	31,260	-0,134187	22,520000	46,345000
1,616909	0,141086	31,560	-0,134181	22,510000	46,335000
1,618827	-0,049073	31,860	-0,134256	22,510000	46,335000
1,620980	0,017176	32,160	-0,134230	22,510000	46,335000
1,622949	0,174211	32,460	-0,134167	22,510000	46,335000
1,624894	0,149674	32,763	-0,134177	22,510000	46,335000
[...]
2,998688	1229,364596	342,670	0,355017	22,510000	46,295000
2,993741	1224,727151	343,422	0,353171	22,510000	46,295000
2,988696	1219,699572	344,172	0,351170	22,510000	46,295000
2,983744	1214,705117	344,923	0,349183	22,510000	46,295000
2,978671	1209,361014	345,676	0,347056	22,510000	46,295000
2,973680	1203,485690	346,426	0,344717	22,490000	46,290000
2,968762	1199,271504	347,177	0,343040	22,490000	46,290000
2,963750	1193,462429	347,929	0,340728	22,490000	46,290000
2,958716	1189,681317	348,680	0,339223	22,510000	46,295000
2,953703	1183,698031	349,432	0,336842	22,510000	46,295000
2,948706	1179,659283	350,184	0,335234	22,510000	46,295000
2,943744	1174,266106	350,936	0,333088	22,510000	46,295000
2,938712	1169,212763	351,686	0,331077	22,510000	46,295000
2,933759	1163,128877	352,437	0,328655	22,510000	46,320000
2,928729	1159,356352	353,188	0,327154	22,510000	46,320000
2,923674	1153,954587	353,939	0,325004	22,510000	46,320000
2,918735	1148,660784	354,689	0,322897	22,500000	46,290000
2,913726	1143,151058	355,441	0,320704	22,500000	46,290000
2,908682	1138,895159	356,193	0,319010	22,510000	46,305000
2,903744	1133,851631	356,944	0,317003	22,510000	46,305000
2,898692	1128,756576	357,695	0,314975	22,510000	46,305000
2,893695	1122,815003	358,446	0,312610	22,510000	46,295000
2,888782	1117,645110	359,197	0,310553	22,510000	46,295000
2,883745	1113,381851	359,952	0,308856	22,510000	46,295000
2,878713	1108,744406	360,703	0,307010	22,510000	46,295000
2,873677	1103,475139	361,454	0,304913	22,510000	46,295000
2,868738	1097,624352	362,204	0,302584	22,500000	46,300000
2,863734	1092,323188	362,955	0,300475	22,500000	46,300000
2,858761	1087,635443	363,706	0,298609	22,500000	46,300000
2,853735	1082,517078	364,456	0,296572	22,510000	46,280000
2,848725	1076,840501	365,206	0,294313	22,510000	46,280000
2,843714	1073,101101	365,956	0,292824	22,510000	46,280000
2,838707	1067,565611	366,707	0,290621	22,510000	46,280000
2,833659	1062,661943	367,459	0,288669	22,510000	46,280000
2,828775	1057,759501	368,209	0,286718	22,510000	46,320000
2,823675	1052,730694	368,961	0,284717	22,510000	46,320000
2,818718	1047,553441	369,711	0,282656	22,510000	46,320000
2,813698	1042,318526	370,464	0,280573	22,510000	46,320000
2,808737	1036,500864	371,214	0,278257	22,510000	46,320000
2,803675	1032,552901	371,964	0,276686	22,510000	46,320000
2,798734	1026,735239	372,714	0,274371	22,490000	46,300000
2,793755	1022,555404	373,465	0,272707	22,490000	46,300000
2,788676	1016,446981	374,218	0,270276	22,500000	46,275000
2,783731	1012,449945	374,968	0,268685	22,500000	46,275000
2,778724	1007,380653	375,719	0,266667	22,500000	46,275000
2,773751	1002,543234	376,472	0,264742	22,500000	46,275000
2,768725	996,659322	377,223	0,262400	22,500000	46,275000
2,763727	992,453724	377,977	0,260727	22,500000	46,275000
2,758698	987,342719	378,728	0,258692	22,510000	46,280000
2,753700	982,191230	379,478	0,256642	22,510000	46,280000
2,748706	977,353810	380,231	0,254717	22,510000	46,295000
2,743722	972,550742	380,982	0,252805	22,510000	46,295000
2,738761	967,023840	381,732	0,250605	22,510000	46,295000
2,733733	961,422101	382,483	0,248376	22,510000	46,295000
2,728730	957,068055	383,234	0,246643	22,510000	46,295000
2,723690	952,538572	383,985	0,244840	22,510000	46,295000
2,718780	947,361318	384,735	0,242780	22,510000	46,305000
2,713770	942,323924	385,486	0,240775	22,510000	46,305000
2,708727	937,579744	386,238	0,238887	22,490000	46,300000
2,703676	931,993954	386,989	0,236664	22,490000	46,300000
2,698732	927,307436	387,742	0,234798	22,490000	46,300000
2,693710	921,905671	388,493	0,232648	22,490000	46,300000
2,688712	916,138309	389,245	0,230353	22,490000	46,300000
2,683721	911,027304	389,995	0,228319	22,490000	46,300000
2,678671	905,989910	390,745	0,226314	22,500000	46,300000
2,673740	900,845782	391,496	0,224267	22,500000	46,300000
2,668731	896,242688	392,247	0,222435	22,500000	46,290000
2,663769	891,986789	392,999	0,220741	22,500000	46,290000
2,658773	886,643913	393,750	0,218614	22,500000	46,290000
2,653790	881,698532	394,501	0,216646	22,510000	46,255000
2,648724	876,230518	395,253	0,214470	22,510000	46,255000
2,643689	871,568536	396,004	0,212614	22,510000	46,255000
2,638757	865,543538	396,755	0,210216	22,510000	46,280000
2,633719	860,639869	397,507	0,208265	22,510000	46,280000
2,628724	855,678539	398,258	0,206290	22,510000	46,305000
2,623709	850,309899	399,012	0,204153	22,510000	46,305000
2,618726	846,328812	399,764	0,202569	22,510000	46,305000
2,613709	841,334357	400,515	0,200581	22,500000	46,265000
2,608735	836,446637	401,268	0,198636	22,500000	46,265000
2,603731	830,339441	402,021	0,196205	22,500000	46,265000
2,598761	826,191504	402,772	0,194554	22,500000	46,265000
2,593742	821,430149	403,523	0,192659	22,500000	46,265000
2,588736	816,301969	404,273	0,190618	22,490000	46,275000
2,583776	811,267029	405,026	0,188614	22,490000	46,275000
2,578691	805,381890	405,776	0,186272	22,490000	46,275000
2,573827	801,393442	406,527	0,184685	22,510000	46,295000
2,568746	795,467818	407,278	0,182326	22,510000	46,295000
2,563679	790,506488	408,031	0,180352	22,490000	46,290000
2,558687	785,005349	408,782	0,178162	22,490000	46,290000
2,553728	780,533527	409,535	0,176382	22,490000	46,290000
2,548770	775,107226	410,286	0,174223	22,500000	46,290000
2,543824	771,209563	411,038	0,172671	22,500000	46,290000
2,538723	765,333013	411,788	0,170333	22,500000	46,290000
2,533806	761,228015	412,542	0,168699	22,500000	46,275000
2,528716	756,682583	413,293	0,166890	22,500000	46,275000
2,523732	751,413317	414,043	0,164792	22,510000	46,335000
2,518728	746,169814	414,794	0,162706	22,510000	46,335000
2,513697	740,293263	415,544	0,160367	22,510000	46,335000
2,508698	736,104841	416,295	0,158700	22,510000	46,335000
2,503718	730,229517	417,045	0,156361	22,510000	46,335000
2,498723	725,832532	417,798	0,154611	22,510000	46,335000
2,493813	721,161962	418,548	0,152752	22,500000	46,250000
2,488719	716,158920	419,298	0,150761	22,500000	46,250000
2,483759	710,076260	420,048	0,148340	22,510000	46,280000
2,478763	706,170010	420,802	0,146786	22,510000	46,280000
2,473799	701,158380	421,555	0,144791	22,510000	46,280000
2,468763	695,399605	422,307	0,142499	22,490000	46,300000
2,463772	691,036972	423,059	0,140763	22,490000	46,300000
2,458705	686,739361	423,812	0,139052	22,490000	46,300000
2,453691	681,196510	424,564	0,136846	22,510000	46,280000
2,448695	676,334554	425,314	0,134911	22,510000	46,280000
2,443724	670,767166	426,066	0,132695	22,510000	46,335000
2,438770	665,107765	426,816	0,130443	22,510000	46,335000
2,433737	660,628582	427,568	0,128660	22,510000	46,335000
2,428769	656,048799	428,319	0,126837	22,510000	46,335000
2,423744	651,012632	429,071	0,124833	22,510000	46,335000
2,418798	645,252630	429,822	0,122541	22,510000	46,335000
2,413737	640,964834	430,573	0,120834	22,490000	46,290000
2,408779	635,547120	431,323	0,118678	22,490000	46,290000
2,403764	631,132960	432,073	0,116921	22,490000	46,315000
2,398758	625,250275	432,824	0,114580	22,490000	46,315000
2,393756	621,243424	433,575	0,112985	22,490000	46,315000
2,388784	616,132420	434,325	0,110951	22,510000	46,305000
2,383833	609,941799	435,076	0,108487	22,510000	46,305000
2,378765	606,068673	435,826	0,106945	22,510000	46,305000
2,373771	600,999382	436,578	0,104928	22,490000	46,300000
2,368770	596,278512	437,329	0,103049	22,490000	46,300000
2,363765	591,068134	438,080	0,100975	22,490000	46,300000
2,358773	585,367021	438,833	0,098706	22,490000	46,300000
2,353764	580,987211	439,583	0,096963	22,490000	46,300000
2,348721	575,909332	440,335	0,094942	22,500000	46,265000
2,343790	571,263299	441,085	0,093093	22,500000	46,265000
2,338764	565,753573	441,836	0,090900	22,500000	46,265000
2,333740	559,994798	442,589	0,088608	22,500000	46,265000
2,328734	555,830912	443,339	0,086951	22,500000	46,265000
2,323735	550,777569	444,090	0,084939	22,510000	46,280000
2,318765	545,351268	444,842	0,082780	22,510000	46,280000
2,313712	540,348226	445,593	0,080789	22,510000	46,280000
2,308759	535,902167	446,343	0,079019	22,500000	46,290000
2,303754	530,982549	447,094	0,077061	22,500000	46,290000
2,298773	525,397986	447,845	0,074838	22,500000	46,290000
2,293745	520,004809	448,599	0,072692	22,500000	46,275000
2,288723	515,649537	449,351	0,070958	22,500000	46,275000
2,283780	510,280897	450,101	0,068822	22,510000	46,335000
2,278783	505,892500	450,853	0,067075	22,510000	46,335000
2,273725	501,230518	451,604	0,065220	22,510000	46,335000
2,268729	496,285137	452,355	0,063251	22,510000	46,335000
2,263718	490,983973	453,107	0,061142	22,510000	46,335000
2,258796	486,055767	453,859	0,059180	22,510000	46,335000
2,253771	480,976661	454,611	0,057159	22,500000	46,275000
2,248728	475,284136	455,362	0,054893	22,500000	46,275000
2,243722	470,963215	456,114	0,053173	22,500000	46,275000
2,238744	465,129603	456,864	0,050852	22,500000	46,275000
2,233828	460,060311	457,616	0,048834	22,500000	46,275000
2,228724	455,637563	458,367	0,047074	22,500000	46,240000
2,223744	451,516616	459,119	0,045434	22,500000	46,240000
2,218782	445,225395	459,872	0,042930	22,500000	46,240000
2,213769	441,228359	460,624	0,041339	22,490000	46,275000
2,208753	436,349227	461,375	0,039397	22,490000	46,275000
2,203825	431,114312	462,127	0,037313	22,510000	46,295000
2,198735	426,301429	462,878	0,035398	22,510000	46,295000
2,193692	421,007626	463,630	0,033291	22,510000	46,295000
2,188762	415,980047	464,382	0,031290	22,510000	46,280000
2,183796	411,135266	465,132	0,029362	22,510000	46,280000
2,178735	405,848824	465,884	0,027258	22,510000	46,280000
2,173778	400,156299	466,634	0,024992	22,510000	46,305000
2,168779	395,943340	467,385	0,023315	22,510000	46,305000
2,163779	391,272770	468,135	0,021457	22,490000	46,290000
2,158803	386,510188	468,887	0,019561	22,490000	46,290000
2,153770	380,577202	469,639	0,017200	22,490000	46,290000
2,148733	375,257636	470,390	0,015083	22,490000	46,290000
2,143763	371,551360	471,140	0,013607	22,490000	46,290000
2,138724	365,842886	471,892	0,011335	22,490000	46,290000
2,133730	361,313403	472,644	0,009533	22,510000	46,280000
2,128804	355,603702	473,395	0,007260	22,510000	46,280000
2,123775	351,688864	474,145	0,005702	22,500000	46,300000
2,118742	346,029464	474,896	0,003450	22,500000	46,300000
2,113818	340,711124	475,648	0,001333	22,500000	46,300000
2,108793	335,558407	476,399	-0,000718	22,500000	46,300000
2,103742	331,220311	477,152	-0,002444	22,500000	46,300000
2,098774	326,856450	477,903	-0,004181	22,500000	46,300000
2,093725	321,912296	478,654	-0,006149	22,500000	46,300000
2,088738	316,593956	479,406	-0,008266	22,500000	46,300000
2,083722	311,806837	480,157	-0,010171	22,510000	46,280000
2,078766	306,387897	480,908	-0,012328	22,510000	46,280000
2,073726	301,900126	481,659	-0,014114	22,510000	46,280000
2,068771	296,473824	482,411	-0,016273	22,510000	46,295000
2,063739	291,803255	483,161	-0,018132	22,510000	46,295000
2,058749	286,185567	483,912	-0,020368	22,510000	46,295000
2,053632	281,481872	484,662	-0,022240	22,510000	46,270000
2,048768	276,719290	485,415	-0,024136	22,510000	46,270000
2,043819	271,225512	486,165	-0,026322	22,510000	46,270000
2,038725	267,294726	486,915	-0,027887	22,510000	46,270000
2,033734	262,175133	487,666	-0,029924	22,510000	46,270000
2,028712	256,766008	488,418	-0,032077	22,510000	46,280000
2,023760	251,263642	489,172	-0,034267	22,510000	46,280000
2,018708	246,469162	489,923	-0,036175	22,510000	46,280000
2,013740	242,263564	490,676	-0,037849	22,490000	46,300000
2,008771	236,719486	491,427	-0,040056	22,490000	46,300000
2,003764	232,008431	492,179	-0,041931	22,490000	46,300000
1,998740	227,379574	492,930	-0,043773	22,490000	46,300000
1,993752	222,235445	493,682	-0,045820	22,490000	46,300000
1,988802	216,533105	494,434	-0,048090	22,510000	46,305000
1,983735	212,212184	495,184	-0,049810	22,510000	46,305000
1,978743	207,591915	495,934	-0,051648	22,510000	46,305000
1,973734	202,954470	496,685	-0,053494	22,500000	46,290000
1,968753	197,194468	497,435	-0,055787	22,500000	46,290000
1,963780	192,591375	498,185	-0,057619	22,490000	46,290000
1,958783	186,848549	498,936	-0,059904	22,490000	46,290000
1,953713	181,870044	499,689	-0,061886	22,490000	46,290000
1,948775	176,642490	500,439	-0,063966	22,510000	46,320000
1,943774	172,038169	501,192	-0,065799	22,510000	46,320000
1,938724	167,875510	501,943	-0,067456	22,510000	46,320000
1,933827	162,539995	502,696	-0,069579	22,500000	46,265000
1,928745	157,021681	503,448	-0,071775	22,500000	46,265000
1,923764	152,939993	504,198	-0,073400	22,500000	46,265000
1,918738	147,123557	504,950	-0,075715	22,500000	46,265000
1,913766	142,270189	505,702	-0,077646	22,500000	46,265000
1,908754	137,632744	506,455	-0,079492	22,510000	46,305000
1,903773	132,297228	507,206	-0,081616	22,510000	46,305000
1,898781	128,291605	507,956	-0,083210	22,510000	46,305000
1,893765	123,238262	508,706	-0,085221	22,510000	46,305000
1,888740	117,986171	509,456	-0,087312	22,510000	46,305000
1,883766	113,132803	510,207	-0,089243	22,500000	46,290000
1,878755	108,237722	510,958	-0,091191	22,500000	46,290000
1,873771	102,512072	511,708	-0,093470	22,500000	46,290000
1,868741	98,506448	512,459	-0,095064	22,500000	46,290000
1,863741	93,071559	513,209	-0,097228	22,500000	46,290000
1,858726	87,985091	513,961	-0,099252	22,500000	46,290000
1,853814	83,988056	514,714	-0,100843	22,510000	46,305000
1,848781	78,377728	515,465	-0,103076	22,510000	46,305000
1,843817	73,640910	516,218	-0,104961	22,490000	46,265000
1,838750	68,787541	516,968	-0,106893	22,490000	46,265000
1,833767	62,446019	517,719	-0,109417	22,490000	46,265000
1,828774	59,097980	518,472	-0,110749	22,490000	46,265000
1,823792	53,820126	519,224	-0,112850	22,490000	46,265000
1,818769	49,158144	519,976	-0,114705	22,490000	46,265000
1,813803	43,199395	520,729	-0,117077	22,500000	46,275000
1,808768	38,943497	521,480	-0,118771	22,500000	46,275000
1,803790	32,951623	522,233	-0,121155	22,500000	46,275000
1,798726	28,547277	522,985	-0,122908	22,500000	46,275000
1,793831	23,278011	523,737	-0,125005	22,500000	46,275000
1,788728	19,023339	524,488	-0,126699	22,510000	46,295000
1,783764	13,455952	525,238	-0,128915	22,510000	46,295000
1,778808	9,100679	525,988	-0,130648	22,510000	46,295000
1,773770	3,624077	526,738	-0,132828	22,510000	46,295000
1,768771	-1,437853	527,491	-0,134842	22,510000	46,295000
1,763758	-6,291222	528,242	-0,136774	22,510000	46,305000
1,758723	-10,561842	528,992	-0,138474	22,510000	46,305000
1,753748	-16,487467	529,742	-0,140832	22,510000	46,305000
1,748760	-20,485729	530,493	-0,142423	22,490000	46,330000
1,743764	-25,703469	531,243	-0,144500	22,490000	46,330000
1,738792	-30,408390	531,993	-0,146373	22,490000	46,330000
1,733726	-35,161157	532,744	-0,148264	22,500000	46,275000
1,728740	-41,170207	533,496	-0,150656	22,500000	46,275000
1,723770	-46,862732	534,247	-0,152921	22,510000	46,295000
1,718717	-50,794745	534,999	-0,154486	22,510000	46,295000
1,713804	-56,079960	535,752	-0,156590	22,510000	46,295000
1,708782	-60,816779	536,503	-0,158475	22,500000	46,300000
1,703743	-66,476180	537,255	-0,160728	22,500000	46,300000
1,698803	-71,803107	538,008	-0,162848	22,500000	46,300000
1,693791	-76,273702	538,762	-0,164627	22,500000	46,300000
1,688771	-81,650930	539,516	-0,166767	22,500000	46,300000
1,683748	-87,426880	540,266	-0,169066	22,500000	46,290000
1,678816	-91,832453	541,017	-0,170819	22,500000	46,290000
1,673761	-95,879790	541,767	-0,172430	22,500000	46,290000
1,668813	-102,469133	542,520	-0,175053	22,500000	46,300000
1,663808	-106,333670	543,271	-0,176591	22,500000	46,300000
1,658780	-112,508342	544,022	-0,179048	22,500000	46,300000
1,653777	-116,872203	544,775	-0,180785	22,500000	46,275000
1,648787	-123,794019	545,525	-0,183540	22,500000	46,275000
1,643794	-128,098991	546,276	-0,185253	22,500000	46,290000
1,638801	-132,071490	547,029	-0,186834	22,500000	46,290000
1,633808	-138,296463	547,782	-0,189312	22,500000	46,290000
1,628769	-143,390291	548,534	-0,191339	22,500000	46,300000
1,623720	-148,327085	549,286	-0,193304	22,500000	46,300000
1,618769	-152,731431	550,038	-0,195057	22,500000	46,275000
1,613836	-157,601975	550,789	-0,196996	22,500000	46,275000
1,608774	-162,347381	551,540	-0,198884	22,500000	46,275000
1,603813	-167,874284	552,291	-0,201084	22,500000	46,275000
1,598818	-173,417135	553,043	-0,203290	22,500000	46,275000
1,593784	-177,630094	553,793	-0,204967	22,500000	46,275000
1,588785	-183,780229	554,543	-0,207415	22,490000	46,265000
1,583791	-188,193163	555,296	-0,209171	22,490000	46,265000
1,578800	-192,880908	556,046	-0,211037	22,510000	46,280000
1,573775	-197,925663	556,798	-0,213044	22,510000	46,280000
1,568835	-204,166585	557,548	-0,215528	22,510000	46,280000
1,563757	-207,969781	558,301	-0,217042	22,510000	46,295000
1,558788	-212,818242	559,054	-0,218972	22,510000	46,295000
1,553807	-218,161118	559,808	-0,221098	22,510000	46,295000
1,548795	-224,245004	560,559	-0,223520	22,510000	46,295000
1,543736	-229,006360	561,312	-0,225415	22,510000	46,295000
1,538778	-233,702693	562,064	-0,227284	22,510000	46,270000
1,533768	-238,580598	562,815	-0,229225	22,510000	46,270000
1,528759	-243,517392	563,566	-0,231190	22,510000	46,270000
1,523830	-249,068830	564,316	-0,233399	22,510000	46,295000
1,518785	-253,506301	565,066	-0,235166	22,510000	46,295000
1,513755	-258,751031	565,816	-0,237253	22,510000	46,295000
1,508803	-264,468092	566,566	-0,239528	22,490000	46,315000
1,503799	-268,973039	567,318	-0,241321	22,490000	46,315000
1,498820	-273,668145	568,069	-0,243190	22,500000	46,290000
1,493813	-279,103035	568,821	-0,245353	22,500000	46,290000
1,488846	-284,555100	569,573	-0,247523	22,500000	46,290000
1,483836	-289,051458	570,325	-0,249312	22,500000	46,290000
1,478729	-294,352622	571,075	-0,251422	22,500000	46,290000
1,473795	-298,674770	571,826	-0,253143	22,500000	46,290000
1,468765	-304,292458	572,578	-0,255378	22,510000	46,280000
1,463790	-309,694223	573,329	-0,257528	22,510000	46,280000
1,458792	-313,833572	574,081	-0,259176	22,500000	46,290000
1,453813	-318,636640	574,833	-0,261087	22,500000	46,290000
1,448773	-0,066249	575,585	-0,134296	22,500000	46,290000
1,443765	0,058888	576,335	-0,134247	22,490000	46,300000
1,438799	0,008588	577,085	-0,134267	22,490000	46,300000
1,433787	0,109189	577,837	-0,134227	22,490000	46,300000
1,428793	0,092013	578,587	-0,134233	22,490000	46,300000
1,423841	0,191387	579,338	-0,134194	22,490000	46,300000
1,418800	-0,082198	580,092	-0,134303	22,490000	46,300000
1,413820	0,199974	580,843	-0,134190	22,490000	46,300000
1,408805	0,100601	581,596	-0,134230	22,490000	46,300000
1,403849	0,008588	582,348	-0,134267	22,510000	46,270000
1,398838	0,116550	583,101	-0,134224	22,510000	46,270000
1,393799	0,182799	583,851	-0,134197	22,510000	46,270000
1,388796	0,415898	584,603	-0,134104	22,510000	46,270000
1,383803	0,083425	585,354	-0,134237	22,510000	46,270000
1,378806	0,092013	586,104	-0,134233	22,510000	46,280000
1,373776	0,191387	586,856	-0,134194	22,510000	46,280000
1,368803	0,058888	587,607	-0,134247	22,510000	46,280000
1,363801	-0,090786	588,357	-0,134306	22,490000	46,275000
1,358813	0,041712	589,108	-0,134253	22,490000	46,275000
1,353792	0,217150	589,861	-0,134184	22,490000	46,275000
1,348784	0,333700	590,612	-0,134137	22,490000	46,290000
1,343813	0,365598	591,363	-0,134125	22,490000	46,290000
1,338803	-0,215923	592,116	-0,134356	22,500000	46,300000
1,333801	-0,041712	592,867	-0,134287	22,500000	46,300000
1,328841	0,074837	593,618	-0,134240	22,500000	46,300000
1,323844	0,092013	594,369	-0,134233	22,500000	46,300000
1,318812	-0,157035	595,120	-0,134333	22,500000	46,300000
1,313789	0,191387	595,872	-0,134194	22,500000	46,300000
1,308774	0,092013	596,622	-0,134233	22,480000	46,290000
1,303827	0,050300	597,373	-0,134250	22,480000	46,290000
1,298841	0,250275	598,123	-0,134170	22,480000	46,290000
1,293823	0,191387	598,875	-0,134194	22,480000	46,290000
1,288816	0,407310	599,627	-0,134108	22,480000	46,290000
1,283797	-0,041712	600,379	-0,134287	22,500000	46,290000
1,278798	0,199974	601,132	-0,134190	22,500000	46,290000
1,273753	-0,198748	601,882	-0,134349	22,500000	46,290000
1,270808	-0,041712	602,332	-0,134287	22,500000	46,290000