File: Nanoindentation Datenauswertung/data/AR-SA-600-1-600-3,5um-diff_LF-4x4-2
Quasi static measurement routine
Tip parameters (shape,radius, material...)
01.09.2022

Piezo position[nm]	MEMS displ.[nm]	Time[ms]	Cap [pf]	Temp [°C]	Rh [%]
eoh

X-Pos [um]	Y-Pos [um]
0,000507	0,000268

POC
1,772016
1,273047	-0,241687	0,314	-0,134488	22,520000	47,610000
1,275056	-0,125137	0,614	-0,134442	22,520000	47,610000
1,277046	-0,241687	0,914	-0,134488	22,520000	47,610000
1,279059	0,066249	1,215	-0,134366	22,530000	47,585000
1,281055	-0,133725	1,516	-0,134445	22,530000	47,585000
1,283067	-0,158262	1,816	-0,134455	22,530000	47,585000
1,285040	0,024537	2,117	-0,134382	22,530000	47,585000
1,287061	0,415898	2,417	-0,134227	22,530000	47,585000
1,289077	-0,025764	2,718	-0,134402	22,530000	47,585000
1,291033	0,033125	3,019	-0,134379	22,530000	47,585000
1,293022	0,007361	3,321	-0,134389	22,520000	47,570000
1,295049	-0,116550	3,621	-0,134438	22,520000	47,570000
1,297039	-0,074837	3,921	-0,134422	22,520000	47,570000
1,299049	-0,175438	4,222	-0,134462	22,520000	47,570000
1,301023	-0,058888	4,523	-0,134416	22,520000	47,570000
1,303041	-0,041712	4,824	-0,134409	22,520000	47,570000
1,305096	-0,092013	5,124	-0,134429	22,520000	47,570000
1,307038	-0,033125	5,424	-0,134405	22,520000	47,570000
1,309063	-0,025764	5,725	-0,134402	22,520000	47,570000
1,311019	0,149674	6,026	-0,134333	22,520000	47,570000
1,313039	0,083425	6,326	-0,134359	22,520000	47,570000
1,315030	0,024537	6,627	-0,134382	22,520000	47,570000
1,317088	-0,017176	6,928	-0,134399	22,520000	47,570000
1,319020	0,132498	7,229	-0,134339	22,510000	47,585000
1,321055	0,116550	7,530	-0,134346	22,510000	47,585000
1,323039	-0,033125	7,830	-0,134405	22,510000	47,585000
1,325078	-0,133725	8,130	-0,134445	22,510000	47,585000
1,327063	-0,257636	8,430	-0,134495	22,510000	47,585000
1,329026	-0,191387	8,731	-0,134468	22,510000	47,585000
1,331053	0,033125	9,031	-0,134379	22,510000	47,585000
1,333066	-0,092013	9,331	-0,134429	22,520000	47,570000
1,335046	-0,365598	9,631	-0,134538	22,520000	47,570000
1,337051	-0,033125	9,931	-0,134405	22,520000	47,570000
1,339073	0,158262	10,231	-0,134329	22,520000	47,570000
1,341062	-0,257636	10,531	-0,134495	22,520000	47,570000
1,343049	-0,175438	10,833	-0,134462	22,520000	47,570000
1,345073	0,090786	11,134	-0,134356	22,520000	47,585000
1,347033	0,033125	11,435	-0,134379	22,520000	47,585000
1,349026	0,099374	11,735	-0,134353	22,520000	47,585000
1,351047	-0,083425	12,035	-0,134425	22,520000	47,585000
1,353032	-0,166850	12,336	-0,134458	22,520000	47,585000
1,355063	-0,074837	12,636	-0,134422	22,520000	47,585000
1,357016	0,057661	12,937	-0,134369	22,520000	47,585000
1,359025	0,033125	13,238	-0,134379	22,520000	47,570000
1,361027	0,107962	13,539	-0,134349	22,520000	47,570000
1,363054	-0,149674	13,839	-0,134452	22,520000	47,570000
1,365021	-0,282173	14,140	-0,134504	22,520000	47,570000
1,367047	-0,083425	14,440	-0,134425	22,520000	47,570000
1,369048	-0,141086	14,741	-0,134448	22,520000	47,570000
1,371061	0,207336	15,042	-0,134310	22,520000	47,570000
1,373077	-0,074837	15,342	-0,134422	22,520000	47,570000
1,375043	-0,166850	15,643	-0,134458	22,520000	47,570000
1,377046	0,224511	15,945	-0,134303	22,520000	47,570000
1,379069	-0,116550	16,245	-0,134438	22,520000	47,570000
1,381055	0,033125	16,546	-0,134379	22,520000	47,570000
1,383079	-0,074837	16,848	-0,134422	22,520000	47,570000
1,385067	0,116550	17,148	-0,134346	22,510000	47,545000
1,387039	-0,332473	17,449	-0,134524	22,510000	47,545000
1,389059	-0,050300	17,751	-0,134412	22,510000	47,545000
1,391053	0,191387	18,051	-0,134316	22,510000	47,545000
1,393024	-0,083425	18,352	-0,134425	22,510000	47,545000
1,395023	0,041712	18,652	-0,134375	22,510000	47,545000
1,397031	-0,058888	18,952	-0,134416	22,510000	47,545000
1,399014	0,074837	19,253	-0,134362	22,510000	47,545000
1,401111	-0,033125	19,553	-0,134405	22,510000	47,545000
1,403016	0,049073	19,853	-0,134373	22,510000	47,545000
1,405014	0,049073	20,154	-0,134373	22,510000	47,545000
1,407024	0,049073	20,455	-0,134373	22,510000	47,545000
1,409046	-0,058888	20,755	-0,134416	22,510000	47,545000
1,411013	0,024537	21,055	-0,134382	22,510000	47,545000
1,413008	0,015949	21,356	-0,134386	22,520000	47,585000
1,415037	-0,158262	21,656	-0,134455	22,520000	47,585000
1,416998	-0,166850	21,956	-0,134458	22,520000	47,585000
1,419035	-0,266224	22,257	-0,134498	22,520000	47,585000
1,421060	0,007361	22,558	-0,134389	22,520000	47,585000
1,422989	-0,241687	22,859	-0,134488	22,520000	47,585000
1,425061	0,041712	23,160	-0,134375	22,520000	47,610000
1,427030	0,066249	23,460	-0,134366	22,520000	47,610000
1,429067	0,231872	23,760	-0,134300	22,520000	47,610000
1,431068	0,024537	24,061	-0,134382	22,520000	47,610000
1,433058	-0,058888	24,361	-0,134416	22,520000	47,610000
1,435028	-0,107962	24,661	-0,134435	22,520000	47,610000
1,437043	0,033125	24,961	-0,134379	22,520000	47,610000
1,439043	-0,141086	25,263	-0,134448	22,520000	47,610000
1,441031	-0,099374	25,563	-0,134432	22,520000	47,610000
1,443027	-0,099374	25,863	-0,134432	22,520000	47,610000
1,445012	0,049073	26,163	-0,134373	22,520000	47,610000
1,447052	0,123911	26,463	-0,134343	22,520000	47,610000
1,449064	-0,125137	26,764	-0,134442	22,520000	47,610000
1,451042	0,057661	27,064	-0,134369	22,520000	47,610000
1,453077	-0,058888	27,365	-0,134416	22,520000	47,555000
1,454978	-0,041712	27,665	-0,134409	22,520000	47,555000
1,457045	0,116550	27,965	-0,134346	22,520000	47,555000
1,459034	0,007361	28,265	-0,134389	22,520000	47,555000
1,461046	0,015949	28,566	-0,134386	22,520000	47,555000
1,463065	0,041712	28,866	-0,134375	22,520000	47,555000
1,465046	-0,125137	29,167	-0,134442	22,520000	47,570000
1,467045	-0,191387	29,467	-0,134468	22,520000	47,570000
1,469063	0,099374	29,768	-0,134353	22,520000	47,570000
1,471013	0,033125	30,069	-0,134379	22,520000	47,570000
1,473061	-0,008588	30,370	-0,134396	22,520000	47,570000
1,475049	-0,158262	30,670	-0,134455	22,520000	47,570000
1,477013	-0,083425	30,970	-0,134425	22,520000	47,570000
1,479049	-0,182799	31,271	-0,134465	22,530000	47,570000
1,481052	-0,058888	31,573	-0,134416	22,530000	47,570000
1,483024	-0,008588	31,874	-0,134396	22,530000	47,570000
1,485032	-0,215923	32,175	-0,134478	22,530000	47,570000
1,487037	-0,050300	32,475	-0,134412	22,530000	47,570000
1,489014	0,015949	32,775	-0,134386	22,530000	47,570000
1,490998	-0,191387	33,077	-0,134468	22,530000	47,570000
1,493041	-0,116550	33,377	-0,134438	22,520000	47,585000
1,495041	0,000000	33,677	-0,134392	22,520000	47,585000
1,497059	0,107962	33,977	-0,134349	22,520000	47,585000
1,499053	-0,099374	34,278	-0,134432	22,520000	47,585000
1,501015	-0,099374	34,579	-0,134432	22,520000	47,585000
1,503034	0,099374	34,880	-0,134353	22,520000	47,585000
1,505041	0,074837	35,180	-0,134362	22,520000	47,585000
1,507031	-0,107962	35,480	-0,134435	22,520000	47,585000
1,509018	-0,025764	35,780	-0,134402	22,520000	47,585000
1,511045	0,240460	36,080	-0,134296	22,520000	47,585000
1,513024	-0,191387	36,380	-0,134468	22,520000	47,585000
1,515022	-0,017176	36,680	-0,134399	22,520000	47,585000
1,517026	-0,008588	36,982	-0,134396	22,520000	47,585000
1,519048	-0,107962	37,282	-0,134435	22,520000	47,585000
1,521044	-0,033125	37,582	-0,134405	22,520000	47,585000
1,523035	-0,041712	37,882	-0,134409	22,520000	47,585000
1,525024	-0,050300	38,183	-0,134412	22,520000	47,585000
1,527035	-0,041712	38,484	-0,134409	22,520000	47,585000
1,529064	0,049073	38,785	-0,134373	22,520000	47,585000
1,531003	-0,041712	39,085	-0,134409	22,530000	47,595000
1,533038	-0,175438	39,386	-0,134462	22,530000	47,595000
1,535037	0,099374	39,687	-0,134353	22,530000	47,595000
1,537034	-0,374185	39,988	-0,134541	22,530000	47,595000
1,539031	0,423259	40,288	-0,134224	22,530000	47,595000
1,541026	0,282173	40,589	-0,134280	22,530000	47,595000
1,542994	0,024537	40,889	-0,134382	22,530000	47,595000
1,545026	-0,050300	41,189	-0,134412	22,510000	47,585000
1,547041	-0,058888	41,489	-0,134416	22,510000	47,585000
1,549075	-0,092013	41,791	-0,134429	22,510000	47,585000
1,551019	-0,066249	42,091	-0,134418	22,510000	47,585000
1,553057	0,099374	42,392	-0,134353	22,510000	47,585000
1,555000	-0,233099	42,693	-0,134485	22,510000	47,585000
1,557046	0,041712	42,995	-0,134375	22,510000	47,585000
1,559035	-0,050300	43,297	-0,134412	22,520000	47,595000
1,561040	-0,158262	43,597	-0,134455	22,520000	47,595000
1,562989	-0,125137	43,898	-0,134442	22,520000	47,595000
1,565016	-0,433074	44,199	-0,134564	22,520000	47,595000
1,567053	0,123911	44,500	-0,134343	22,520000	47,595000
1,569058	-0,125137	44,802	-0,134442	22,520000	47,595000
1,571034	-0,107962	45,102	-0,134435	22,520000	47,585000
1,573038	-0,008588	45,402	-0,134396	22,520000	47,585000
1,575006	-0,307936	45,703	-0,134515	22,520000	47,585000
1,577021	-0,092013	46,003	-0,134429	22,520000	47,585000
1,579010	-0,141086	46,303	-0,134448	22,520000	47,585000
1,581041	-0,307936	46,603	-0,134515	22,520000	47,585000
1,583008	0,033125	46,903	-0,134379	22,520000	47,585000
1,585034	-0,041712	47,204	-0,134409	22,520000	47,585000
1,587050	0,149674	47,504	-0,134333	22,520000	47,585000
1,589057	0,000000	47,805	-0,134392	22,520000	47,585000
1,591018	0,407310	48,105	-0,134230	22,520000	47,585000
1,593040	-0,017176	48,406	-0,134399	22,520000	47,585000
1,595018	-0,182799	48,708	-0,134465	22,520000	47,585000
1,596996	-0,433074	49,008	-0,134564	22,520000	47,585000
1,599015	-0,365598	49,308	-0,134538	22,520000	47,595000
1,601016	-0,099374	49,608	-0,134432	22,520000	47,595000
1,603034	-0,008588	49,908	-0,134396	22,520000	47,595000
1,605009	0,141086	50,208	-0,134336	22,520000	47,595000
1,607035	0,049073	50,509	-0,134373	22,520000	47,595000
1,608998	-0,166850	50,812	-0,134458	22,520000	47,595000
1,611066	0,107962	51,112	-0,134349	22,520000	47,595000
1,613050	0,057661	51,412	-0,134369	22,520000	47,595000
1,615050	-0,033125	51,712	-0,134405	22,520000	47,595000
1,617008	-0,523860	52,012	-0,134601	22,520000	47,595000
1,619064	-0,241687	52,313	-0,134488	22,520000	47,595000
1,621062	0,000000	52,614	-0,134392	22,520000	47,595000
1,623062	-0,199974	52,914	-0,134472	22,520000	47,595000
1,625020	0,099374	53,214	-0,134353	22,530000	47,585000
1,627011	0,024537	53,516	-0,134382	22,530000	47,585000
1,629003	-0,025764	53,816	-0,134402	22,530000	47,585000
1,631036	-0,066249	54,117	-0,134418	22,530000	47,585000
1,633038	-0,175438	54,419	-0,134462	22,530000	47,585000
1,635051	-0,149674	54,719	-0,134452	22,530000	47,585000
1,637040	-0,041712	55,019	-0,134409	22,530000	47,585000
1,639008	-0,141086	55,319	-0,134448	22,530000	47,585000
1,641041	-0,266224	55,620	-0,134498	22,530000	47,585000
1,643032	-0,099374	55,921	-0,134432	22,530000	47,585000
1,645058	-0,083425	56,221	-0,134425	22,530000	47,585000
1,647048	-0,099374	56,522	-0,134432	22,530000	47,585000
1,649086	-0,008588	56,823	-0,134396	22,530000	47,585000
1,651020	-0,215923	57,124	-0,134478	22,510000	47,585000
1,653015	-0,241687	57,427	-0,134488	22,510000	47,585000
1,655070	-0,175438	57,728	-0,134462	22,510000	47,585000
1,657028	-0,083425	58,030	-0,134425	22,510000	47,585000
1,659030	-0,066249	58,331	-0,134418	22,510000	47,585000
1,661025	-0,175438	58,631	-0,134462	22,510000	47,585000
1,663009	-0,316524	58,931	-0,134518	22,510000	47,585000
1,665026	-0,215923	59,232	-0,134478	22,510000	47,585000
1,667035	-0,349649	59,533	-0,134531	22,510000	47,585000
1,669059	-0,357010	59,833	-0,134534	22,510000	47,585000
1,671033	-97,192505	60,133	-0,173075	22,510000	47,585000
1,673090	-94,583023	60,435	-0,172036	22,510000	47,585000
1,675025	-93,893540	60,736	-0,171762	22,510000	47,585000
1,677030	-90,577399	61,036	-0,170442	22,510000	47,585000
1,679046	-88,899085	61,337	-0,169774	22,520000	47,585000
1,681022	-86,904248	61,638	-0,168980	22,520000	47,585000
1,683071	-85,565768	61,939	-0,168447	22,520000	47,585000
1,684977	-82,907212	62,239	-0,167389	22,520000	47,585000
1,687029	-80,820362	62,539	-0,166559	22,520000	47,585000
1,688995	-78,950662	62,839	-0,165814	22,520000	47,585000
1,691027	-76,741128	63,139	-0,164935	22,520000	47,585000
1,693022	-75,693408	63,439	-0,164518	22,520000	47,585000
1,695062	-73,740283	63,739	-0,163741	22,520000	47,585000
1,697021	-71,139388	64,039	-0,162706	22,520000	47,585000
1,699043	-69,028001	64,340	-0,161865	22,520000	47,585000
1,701008	-67,141126	64,641	-0,161114	22,520000	47,585000
1,702996	-65,121751	64,941	-0,160311	22,520000	47,585000
1,705013	-63,152677	65,241	-0,159527	22,520000	47,570000
1,707067	-62,071834	65,541	-0,159097	22,520000	47,570000
1,709046	-59,338440	65,842	-0,158009	22,520000	47,570000
1,711011	-56,960830	66,142	-0,157062	22,520000	47,570000
1,713025	-55,839500	66,443	-0,156616	22,520000	47,570000
1,715013	-54,276510	66,744	-0,155994	22,520000	47,570000
1,717021	-51,442515	67,044	-0,154866	22,520000	47,570000
1,718994	-49,863576	67,345	-0,154238	22,520000	47,570000
1,721031	-47,861377	67,647	-0,153441	22,520000	47,570000
1,723017	-46,556022	67,948	-0,152921	22,520000	47,570000
1,725024	-44,270424	68,250	-0,152012	22,520000	47,570000
1,726992	-41,187382	68,550	-0,150785	22,520000	47,570000
1,729009	-40,439011	68,851	-0,150487	22,520000	47,570000
1,731050	-37,813580	69,152	-0,149442	22,520000	47,585000
1,733033	-35,386895	69,452	-0,148476	22,520000	47,585000
1,735031	-33,666870	69,752	-0,147792	22,520000	47,585000
1,737020	-32,519777	70,053	-0,147335	22,520000	47,585000
1,739016	-30,582601	70,353	-0,146564	22,520000	47,585000
1,741041	-27,749833	70,653	-0,145437	22,520000	47,585000
1,742980	-26,835839	70,954	-0,145073	22,520000	47,585000
1,744978	-24,491353	71,255	-0,144140	22,520000	47,585000
1,747039	-22,788503	71,556	-0,143462	22,520000	47,585000
1,749029	-20,344643	71,857	-0,142489	22,520000	47,585000
1,751007	-18,715403	72,158	-0,141841	22,520000	47,585000
1,752980	-16,114508	72,459	-0,140806	22,520000	47,585000
1,755002	-14,385894	72,760	-0,140118	22,520000	47,585000
1,757094	-12,632744	73,061	-0,139420	22,520000	47,585000
1,759030	-10,430571	73,362	-0,138543	22,530000	47,570000
1,761006	-8,634481	73,663	-0,137829	22,530000	47,570000
1,763005	-6,865382	73,963	-0,137125	22,530000	47,570000
1,765030	-3,889074	74,263	-0,135940	22,530000	47,570000
1,767019	-2,626659	74,564	-0,135438	22,530000	47,570000
1,768988	-0,906633	74,865	-0,134753	22,530000	47,570000
1,771017	1,363016	75,165	-0,133850	22,530000	47,570000
1,773075	3,349266	75,465	-0,133059	22,530000	47,570000
1,775030	6,150135	75,765	-0,131944	22,530000	47,570000
1,777005	7,080078	76,065	-0,131574	22,530000	47,570000
1,779000	9,083503	76,365	-0,130777	22,530000	47,570000
1,781015	11,999696	76,665	-0,129616	22,530000	47,570000
1,782964	13,205677	76,965	-0,129136	22,530000	47,570000
1,784967	16,238419	77,266	-0,127929	22,520000	47,570000
1,786997	17,984208	77,568	-0,127234	22,520000	47,570000
1,789068	19,944694	77,870	-0,126454	22,520000	47,570000
1,791020	21,923583	78,171	-0,125667	22,520000	47,570000
1,793019	23,601896	78,471	-0,124999	22,520000	47,570000
1,795032	25,546433	78,772	-0,124225	22,520000	47,570000
1,797006	26,759775	79,072	-0,123742	22,520000	47,570000
1,798991	28,596351	79,372	-0,123011	22,520000	47,595000
1,800985	32,029042	79,673	-0,121645	22,520000	47,595000
1,803013	33,059585	79,974	-0,121234	22,520000	47,595000
1,804998	35,685017	80,275	-0,120189	22,520000	47,595000
1,807063	36,840698	80,576	-0,119729	22,520000	47,595000
1,809024	38,503062	80,876	-0,119068	22,520000	47,595000
1,810974	40,522436	81,176	-0,118264	22,520000	47,595000
1,813037	42,343063	81,478	-0,117540	22,520000	47,595000
1,815013	44,620073	81,778	-0,116633	22,520000	47,595000
1,817030	46,564610	82,078	-0,115859	22,520000	47,595000
1,819072	49,539691	82,379	-0,114675	22,520000	47,595000
1,820976	51,733276	82,679	-0,113802	22,520000	47,595000
1,823028	52,598196	82,979	-0,113458	22,520000	47,595000
1,824976	54,758657	83,279	-0,112598	22,530000	47,585000
1,827036	56,511807	83,579	-0,111900	22,530000	47,585000
1,828982	58,224472	83,880	-0,111219	22,530000	47,585000
1,831033	60,384932	84,180	-0,110359	22,530000	47,585000
1,833047	62,952703	84,480	-0,109337	22,530000	47,585000
1,835049	64,597892	84,780	-0,108682	22,530000	47,585000
1,836984	66,293381	85,081	-0,108007	22,530000	47,585000
1,839023	69,426723	85,383	-0,106760	22,510000	47,555000
1,841008	70,431503	85,684	-0,106360	22,510000	47,555000
1,843032	72,675389	85,985	-0,105467	22,510000	47,555000
1,844977	75,127836	86,285	-0,104491	22,510000	47,555000
1,846996	77,347185	86,585	-0,103608	22,510000	47,555000
1,849004	78,418214	86,885	-0,103182	22,510000	47,555000
1,850980	80,662100	87,185	-0,102289	22,530000	47,585000
1,853047	83,480145	87,485	-0,101167	22,530000	47,585000
1,855045	84,618650	87,786	-0,100714	22,530000	47,585000
1,857031	86,222126	88,086	-0,100076	22,530000	47,585000
1,858989	88,906446	88,386	-0,099007	22,530000	47,585000
1,860991	91,150332	88,687	-0,098114	22,530000	47,585000
1,863043	93,161118	88,989	-0,097314	22,530000	47,585000
1,864993	95,155956	89,289	-0,096520	22,530000	47,530000
1,866978	96,477259	89,589	-0,095994	22,530000	47,530000
1,869003	97,866039	89,889	-0,095441	22,530000	47,530000
1,871015	100,608021	90,189	-0,094350	22,530000	47,530000
1,872980	103,168430	90,490	-0,093331	22,530000	47,530000
1,874963	105,377964	90,790	-0,092452	22,530000	47,530000
1,877020	106,458808	91,090	-0,092021	22,510000	47,595000
1,879038	108,154297	91,391	-0,091347	22,510000	47,595000
1,880985	110,248508	91,691	-0,090513	22,510000	47,595000
1,883046	112,076496	91,992	-0,089786	22,510000	47,595000
1,884988	114,113046	92,292	-0,088975	22,510000	47,595000
1,886982	116,273506	92,592	-0,088115	22,510000	47,595000
1,889017	117,918695	92,893	-0,087460	22,510000	47,595000
1,890986	121,118287	93,193	-0,086187	22,510000	47,595000
1,892977	122,024920	93,494	-0,085826	22,510000	47,595000
1,895012	124,949700	93,794	-0,084662	22,510000	47,595000
1,896940	126,504103	94,094	-0,084043	22,510000	47,595000
1,899015	129,080461	94,394	-0,083018	22,510000	47,595000
1,901001	131,082659	94,695	-0,082221	22,510000	47,595000
1,902965	131,831030	94,997	-0,081923	22,510000	47,595000
1,905001	133,966954	95,299	-0,081073	22,530000	47,570000
1,907013	137,016871	95,599	-0,079859	22,530000	47,570000
1,909004	138,512386	95,899	-0,079264	22,530000	47,570000
1,911009	139,842278	96,199	-0,078735	22,530000	47,570000
1,913018	142,444400	96,500	-0,077699	22,530000	47,570000
1,915034	143,939914	96,800	-0,077104	22,530000	47,570000
1,917029	146,166624	97,100	-0,076218	22,520000	47,555000
1,919003	147,813040	97,400	-0,075563	22,520000	47,555000
1,921054	149,931788	97,701	-0,074719	22,520000	47,555000
1,923013	152,806268	98,001	-0,073575	22,520000	47,555000
1,924992	154,311597	98,302	-0,072976	22,520000	47,555000
1,926997	156,438933	98,603	-0,072129	22,520000	47,555000
1,928991	157,660863	98,903	-0,071643	22,520000	47,555000
1,931056	160,435969	99,203	-0,070539	22,510000	47,610000
1,932993	161,823522	99,503	-0,069986	22,510000	47,610000
1,935020	163,934909	99,803	-0,069146	22,510000	47,610000
1,937034	166,253631	100,103	-0,068223	22,510000	47,610000
1,938966	168,596891	100,403	-0,067291	22,510000	47,610000
1,940985	169,902246	100,704	-0,066771	22,510000	47,610000
1,942980	172,020994	101,005	-0,065928	22,510000	47,610000
1,944973	173,674770	101,306	-0,065270	22,520000	47,585000
1,947015	175,429148	101,607	-0,064571	22,520000	47,585000
1,948988	178,312215	101,907	-0,063424	22,520000	47,585000
1,951040	179,359934	102,207	-0,063007	22,520000	47,585000
1,953028	181,495858	102,508	-0,062157	22,520000	47,585000
1,955044	183,780229	102,808	-0,061248	22,520000	47,585000
1,956999	185,384932	103,109	-0,060609	22,520000	47,585000
1,959006	188,525636	103,409	-0,059359	22,520000	47,585000
1,958973	188,252051	103,710	-0,059468	22,520000	47,585000
1,959006	188,443438	104,011	-0,059392	22,520000	47,585000
1,958975	188,185802	104,312	-0,059494	22,520000	47,585000
1,957968	187,195744	104,612	-0,059888	22,520000	47,585000
1,956022	185,343220	104,912	-0,060625	22,520000	47,585000
1,954025	184,702811	105,212	-0,060880	22,520000	47,585000
1,951995	181,304472	105,513	-0,062233	22,520000	47,585000
1,949994	180,065366	105,814	-0,062726	22,520000	47,585000
1,948029	177,855832	106,115	-0,063605	22,520000	47,585000
1,946036	174,896700	106,416	-0,064783	22,520000	47,585000
1,944004	172,835614	106,717	-0,065604	22,520000	47,585000
1,942022	170,657977	107,018	-0,066470	22,520000	47,585000
1,939990	169,851945	107,318	-0,066791	22,520000	47,585000
1,937986	166,544392	107,618	-0,068107	22,520000	47,585000
1,936049	165,580098	107,919	-0,068491	22,520000	47,585000
1,933997	162,589068	108,219	-0,069682	22,520000	47,585000
1,931998	161,325426	108,519	-0,070185	22,520000	47,585000
1,930006	159,272927	108,819	-0,071001	22,520000	47,585000
1,928008	157,494013	109,122	-0,071709	22,520000	47,585000
1,925954	155,441514	109,422	-0,072526	22,520000	47,585000
1,924003	153,288415	109,722	-0,073383	22,520000	47,585000
1,921952	151,286216	110,024	-0,074180	22,520000	47,585000
1,920039	149,141705	110,324	-0,075034	22,520000	47,585000
1,917977	147,155455	110,624	-0,075824	22,520000	47,585000
1,916006	145,169205	110,924	-0,076615	22,520000	47,585000
1,914007	142,460349	111,225	-0,077693	22,510000	47,570000
1,911997	140,016489	111,527	-0,078666	22,510000	47,570000
1,910007	137,972578	111,828	-0,079479	22,510000	47,570000
1,907994	136,061165	112,128	-0,080240	22,510000	47,570000
1,906034	133,966954	112,429	-0,081073	22,510000	47,570000
1,904000	132,487388	112,730	-0,081662	22,510000	47,570000
1,902034	129,861956	113,030	-0,082707	22,510000	47,570000
1,900035	129,038748	113,331	-0,083035	22,510000	47,570000
1,897982	126,628013	113,631	-0,083994	22,510000	47,570000
1,896024	123,619808	113,931	-0,085191	22,510000	47,570000
1,894019	122,540191	114,231	-0,085621	22,510000	47,570000
1,891994	121,118287	114,532	-0,086187	22,510000	47,570000
1,890006	118,076957	114,832	-0,087397	22,510000	47,570000
1,888054	116,954401	115,133	-0,087844	22,520000	47,585000
1,886006	114,470055	115,434	-0,088833	22,520000	47,585000
1,883969	112,475218	115,734	-0,089627	22,520000	47,585000
1,881999	110,556444	116,035	-0,090391	22,520000	47,585000
1,879983	107,771524	116,335	-0,091499	22,520000	47,585000
1,878014	106,183996	116,635	-0,092131	22,520000	47,585000
1,875976	104,596469	116,936	-0,092763	22,520000	47,585000
1,874029	102,503484	117,237	-0,093596	22,530000	47,585000
1,872016	99,187343	117,538	-0,094916	22,530000	47,585000
1,870020	98,405848	117,839	-0,095227	22,530000	47,585000
1,867978	96,485847	118,140	-0,095991	22,530000	47,585000
1,865996	94,424761	118,440	-0,096811	22,530000	47,585000
1,864034	91,374843	118,740	-0,098025	22,530000	47,585000
1,861978	90,278050	119,041	-0,098461	22,530000	47,585000
1,859999	87,261257	119,341	-0,099662	22,530000	47,585000
1,858037	85,382970	119,641	-0,100410	22,530000	47,585000
1,856006	84,552401	119,941	-0,100740	22,530000	47,585000
1,854020	82,166202	120,242	-0,101690	22,530000	47,585000
1,852033	79,806994	120,543	-0,102629	22,530000	47,585000
1,850037	78,210879	120,844	-0,103264	22,530000	47,585000
1,848026	75,286098	121,145	-0,104428	22,530000	47,585000
1,845991	73,681395	121,445	-0,105067	22,530000	47,585000
1,844035	71,686558	121,745	-0,105861	22,530000	47,585000
1,842015	70,182455	122,046	-0,106459	22,530000	47,585000
1,839995	67,988870	122,346	-0,107333	22,530000	47,585000
1,838001	65,137700	122,646	-0,108467	22,530000	47,585000
1,835990	63,476563	122,946	-0,109128	22,530000	47,585000
1,834017	62,122134	123,248	-0,109667	22,510000	47,555000
1,832001	60,169009	123,549	-0,110445	22,510000	47,555000
1,830030	57,982785	123,849	-0,111315	22,510000	47,555000
1,828033	55,971999	124,150	-0,112115	22,510000	47,555000
1,826019	54,234797	124,450	-0,112807	22,510000	47,555000
1,823980	51,002081	124,751	-0,114093	22,510000	47,555000
1,822003	48,899282	125,052	-0,114930	22,510000	47,555000
1,820015	48,185262	125,352	-0,115214	22,530000	47,595000
1,818084	46,098412	125,652	-0,116045	22,530000	47,595000
1,816027	44,104801	125,952	-0,116838	22,530000	47,595000
1,814034	42,118552	126,253	-0,117629	22,530000	47,595000
1,812039	39,932328	126,553	-0,118499	22,530000	47,595000
1,810061	37,106921	126,853	-0,119624	22,530000	47,595000
1,808042	36,026078	127,153	-0,120054	22,530000	47,570000
1,806005	34,097489	127,453	-0,120821	22,530000	47,570000
1,803996	31,031623	127,755	-0,122042	22,530000	47,570000
1,801999	30,009667	128,055	-0,122448	22,530000	47,570000
1,800050	27,790319	128,355	-0,123332	22,530000	47,570000
1,798018	26,227328	128,656	-0,123954	22,530000	47,570000
1,796003	23,377385	128,958	-0,125088	22,530000	47,570000
1,794038	21,690484	129,259	-0,125759	22,520000	47,555000
1,792001	20,102956	129,560	-0,126391	22,520000	47,555000
1,790036	16,920540	129,861	-0,127658	22,520000	47,555000
1,788007	15,042252	130,161	-0,128405	22,520000	47,555000
1,786090	13,712361	130,462	-0,128935	22,520000	47,555000
1,784052	11,484424	130,763	-0,129821	22,520000	47,555000
1,782035	8,850404	131,063	-0,130870	22,520000	47,555000
1,779999	6,889918	131,364	-0,131650	22,520000	47,595000
1,778062	5,393177	131,664	-0,132246	22,520000	47,595000
1,776009	3,614263	131,965	-0,132954	22,520000	47,595000
1,774022	1,852524	132,267	-0,133655	22,520000	47,595000
1,772029	0,024537	132,568	-0,134382	22,520000	47,595000
1,770024	-2,252473	132,869	-0,135289	22,520000	47,595000
1,768029	-4,139349	133,171	-0,136040	22,520000	47,595000
1,765982	-6,207797	133,471	-0,136863	22,520000	47,595000
1,764036	-8,975542	133,771	-0,137964	22,520000	47,595000
1,762082	-11,261140	134,071	-0,138874	22,520000	47,595000
1,760010	-13,073178	134,371	-0,139595	22,520000	47,595000
1,758022	-14,352770	134,671	-0,140104	22,520000	47,595000
1,756027	-17,120515	134,973	-0,141206	22,520000	47,595000
1,754033	-19,330049	135,275	-0,142085	22,520000	47,570000
1,752048	-20,078419	135,575	-0,142383	22,520000	47,570000
1,750057	-22,654778	135,875	-0,143409	22,520000	47,570000
1,748047	-25,090050	136,175	-0,144378	22,520000	47,570000
1,746019	-27,076299	136,476	-0,145168	22,520000	47,570000
1,744014	-29,112849	136,776	-0,145979	22,520000	47,570000
1,741994	-30,183878	137,076	-0,146405	22,520000	47,570000
1,740076	-33,017873	137,376	-0,147533	22,520000	47,570000
1,738037	-34,447138	137,676	-0,148102	22,520000	47,570000
1,735990	-37,331433	137,977	-0,149250	22,520000	47,570000
1,733967	-39,201133	138,277	-0,149994	22,520000	47,570000
1,732008	-40,623037	138,578	-0,150560	22,520000	47,570000
1,730037	-42,325887	138,878	-0,151238	22,520000	47,570000
1,728054	-44,445862	139,179	-0,152082	22,520000	47,545000
1,726016	-46,597735	139,479	-0,152938	22,520000	47,545000
1,724028	-48,425722	139,779	-0,153666	22,520000	47,545000
1,722041	-50,370260	140,079	-0,154439	22,520000	47,545000
1,720005	-52,249774	140,379	-0,155188	22,520000	47,545000
1,718045	-54,318222	140,680	-0,156011	22,520000	47,545000
1,716043	-56,262759	140,980	-0,156785	22,520000	47,545000
1,714049	-59,096753	141,280	-0,157913	22,520000	47,570000
1,712008	-61,424064	141,580	-0,158839	22,520000	47,570000
1,710020	-63,434850	141,881	-0,159639	22,520000	47,570000
1,708010	-64,033547	142,182	-0,159877	22,520000	47,570000
1,706074	-65,903247	142,482	-0,160622	22,520000	47,570000
1,704031	-69,186263	142,782	-0,161928	22,520000	47,570000
1,702033	-70,283056	143,082	-0,162365	22,520000	47,570000
1,700056	-71,879171	143,383	-0,163000	22,530000	47,595000
1,698019	-73,914494	143,683	-0,163810	22,530000	47,595000
1,696064	-76,374303	143,983	-0,164789	22,530000	47,595000
1,693995	-79,126099	144,284	-0,165884	22,530000	47,595000
1,692052	-79,608246	144,584	-0,166076	22,530000	47,595000
1,690023	-83,105959	144,886	-0,167468	22,530000	47,595000
1,688008	-84,111966	145,187	-0,167869	22,530000	47,595000
1,686013	-87,071098	145,487	-0,169046	22,530000	47,595000
1,684016	-89,099060	145,787	-0,169854	22,530000	47,595000
1,682039	-91,085309	146,087	-0,170644	22,530000	47,595000
1,680062	-92,023840	146,387	-0,171018	22,530000	47,595000
1,678064	-94,957208	146,687	-0,172185	22,530000	47,595000
1,676059	-96,993758	146,989	-0,172996	22,530000	47,595000
1,674044	-98,580058	147,289	-0,173627	22,530000	47,585000
1,672017	-100,915957	147,589	-0,174557	22,530000	47,585000
1,670014	-102,620034	147,890	-0,175235	22,530000	47,585000
1,668041	-105,112967	148,190	-0,176227	22,530000	47,585000
1,666045	-106,284597	148,491	-0,176693	22,530000	47,585000
1,664059	-108,653620	148,791	-0,177636	22,530000	47,585000
1,662051	-111,353889	149,092	-0,178711	22,530000	47,585000
1,659998	-112,634707	149,393	-0,179221	22,530000	47,585000
1,658051	-115,251551	149,693	-0,180262	22,530000	47,585000
1,656041	-116,224433	149,993	-0,180649	22,530000	47,585000
1,654039	-118,292880	150,294	-0,181473	22,530000	47,585000
1,652055	-120,320842	150,595	-0,182280	22,530000	47,585000
1,650020	-123,354811	150,896	-0,183487	22,530000	47,585000
1,647994	-124,193968	151,196	-0,183821	22,520000	47,530000
1,646050	-125,972882	151,496	-0,184529	22,520000	47,530000
1,643997	-128,474403	151,796	-0,185525	22,520000	47,530000
1,642050	-131,275273	152,096	-0,186640	22,520000	47,530000
1,640081	-133,052960	152,396	-0,187347	22,520000	47,530000
1,638046	-135,529945	152,697	-0,188333	22,520000	47,530000
1,636027	-136,120053	152,998	-0,188568	22,520000	47,530000
1,633987	-139,086546	153,299	-0,189749	22,530000	47,555000
1,632094	-141,297307	153,599	-0,190628	22,530000	47,555000
1,630033	-143,524017	153,899	-0,191515	22,530000	47,555000
1,628037	-144,263799	154,200	-0,191809	22,530000	47,555000
1,626007	-147,430267	154,502	-0,193069	22,530000	47,555000
1,624034	-148,328311	154,803	-0,193427	22,530000	47,555000
1,622028	-150,396759	155,103	-0,194250	22,520000	47,570000
1,620056	-152,865156	155,403	-0,195232	22,520000	47,570000
1,618049	-155,275891	155,703	-0,196192	22,520000	47,570000
1,616030	-156,231597	156,003	-0,196572	22,520000	47,570000
1,614056	-159,048416	156,303	-0,197693	22,520000	47,570000
1,612033	-160,669068	156,605	-0,198338	22,520000	47,570000
1,610008	-163,311676	156,905	-0,199390	22,520000	47,570000
1,608050	-164,617030	157,206	-0,199910	22,530000	47,595000
1,606093	-166,876865	157,506	-0,200809	22,530000	47,595000
1,604041	-168,323306	157,806	-0,201385	22,530000	47,595000
1,602048	-171,148712	158,107	-0,202509	22,530000	47,595000
1,600017	-172,312981	158,408	-0,202973	22,530000	47,595000
1,598046	-174,224393	158,708	-0,203733	22,530000	47,595000
1,596039	-176,318605	159,008	-0,204567	22,530000	47,595000
1,594063	-178,088931	159,309	-0,205271	22,520000	47,570000
1,592019	-180,157379	159,609	-0,206095	22,520000	47,570000
1,590032	-183,165584	159,910	-0,207292	22,520000	47,570000
1,588052	-184,072217	160,211	-0,207653	22,520000	47,570000
1,586034	-186,798249	160,511	-0,208738	22,520000	47,570000
1,583992	-189,058083	160,811	-0,209637	22,520000	47,570000
1,582016	-190,163464	161,111	-0,210077	22,520000	47,570000
1,580054	-192,074876	161,411	-0,210838	22,520000	47,570000
1,578088	-195,124794	161,712	-0,212052	22,520000	47,570000
1,576064	-197,269306	162,012	-0,212905	22,520000	47,570000
1,574029	-198,931670	162,312	-0,213567	22,520000	47,570000
1,572042	-200,477485	162,612	-0,214182	22,520000	47,570000
1,570024	-203,219466	162,913	-0,215273	22,520000	47,570000
1,568049	-204,973844	163,213	-0,215972	22,530000	47,555000
1,566057	-206,394521	163,513	-0,216537	22,530000	47,555000
1,564035	-209,169627	163,814	-0,217642	22,530000	47,555000
1,562039	-211,214765	164,115	-0,218456	22,530000	47,555000
1,560067	-212,353270	164,416	-0,218909	22,530000	47,555000
1,558040	-215,121015	164,717	-0,220010	22,530000	47,555000
1,556054	-216,167507	165,018	-0,220427	22,530000	47,555000
1,554028	-219,508185	165,320	-0,221756	22,520000	47,570000
1,552073	-221,087125	165,620	-0,222385	22,520000	47,570000
1,550084	-222,899164	165,920	-0,223106	22,520000	47,570000
1,548060	-225,076800	166,220	-0,223973	22,520000	47,570000
1,546022	-226,829951	166,521	-0,224670	22,520000	47,570000
1,544037	-228,659165	166,823	-0,225398	22,520000	47,570000
1,542016	-230,652776	167,123	-0,226192	22,520000	47,570000
1,540056	-232,689326	167,424	-0,227002	22,520000	47,570000
1,538030	-235,730655	167,725	-0,228213	22,520000	47,570000
1,536030	-237,791742	168,026	-0,229033	22,520000	47,570000
1,534055	-238,805110	168,327	-0,229437	22,520000	47,570000
1,532000	-241,889379	168,628	-0,230664	22,520000	47,570000
1,530068	-243,010708	168,929	-0,231110	22,520000	47,570000
1,528058	-244,648536	169,229	-0,231762	22,520000	47,555000
1,526065	-247,756115	169,530	-0,232999	22,520000	47,555000
1,524046	-248,861495	169,830	-0,233439	22,520000	47,555000
1,522048	-251,978889	170,131	-0,234680	22,520000	47,555000
1,519987	-253,033969	170,431	-0,235100	22,520000	47,555000
1,518049	-256,242148	170,731	-0,236376	22,520000	47,555000
1,516049	-257,205216	171,031	-0,236760	22,520000	47,555000
1,514019	-259,922660	171,332	-0,237841	22,520000	47,555000
1,512019	-261,120053	171,633	-0,238318	22,520000	47,555000
1,510060	-263,604399	171,934	-0,239307	22,520000	47,555000
1,508038	-265,731735	172,234	-0,240153	22,520000	47,555000
1,506043	-268,092170	172,534	-0,241093	22,520000	47,555000
1,504040	-268,923966	172,836	-0,241424	22,520000	47,555000
1,502033	-271,524861	173,137	-0,242459	22,530000	47,570000
1,500030	-273,278011	173,439	-0,243157	22,530000	47,570000
1,498070	-275,821245	173,740	-0,244169	22,530000	47,570000
1,496099	-277,333935	174,040	-0,244771	22,530000	47,570000
1,494083	-279,120210	174,340	-0,245482	22,530000	47,570000
1,492026	-281,389859	174,640	-0,246385	22,530000	47,570000
1,490064	-283,425183	174,941	-0,247195	22,530000	47,570000
1,488073	-284,955049	175,241	-0,247804	22,520000	47,570000
1,486053	-288,062628	175,541	-0,249041	22,520000	47,570000
1,484054	-289,401107	175,841	-0,249574	22,520000	47,570000
1,482071	-291,760315	176,142	-0,250513	22,520000	47,570000
1,480035	-293,098795	176,442	-0,251045	22,520000	47,570000
1,478085	-295,069095	176,742	-0,251830	22,520000	47,570000
1,476044	-297,910451	177,043	-0,252960	22,520000	47,570000
1,474043	-299,099256	177,343	-0,253434	22,520000	47,570000
1,472029	-302,157761	177,643	-0,254651	22,520000	47,570000
1,470072	-303,038631	177,943	-0,255001	22,520000	47,570000
1,468032	-0,349649	178,244	-0,134531	22,520000	47,570000
1,466051	0,231872	178,544	-0,134300	22,520000	47,570000
1,464077	0,158262	178,844	-0,134329	22,520000	47,570000
1,462079	-0,099374	179,145	-0,134432	22,530000	47,555000
1,460059	0,015949	179,446	-0,134386	22,530000	47,555000
1,458062	-0,250275	179,746	-0,134492	22,530000	47,555000
1,456067	0,000000	180,047	-0,134392	22,530000	47,555000
1,454038	-0,307936	180,348	-0,134515	22,530000	47,555000
1,452018	-0,083425	180,648	-0,134425	22,530000	47,555000
1,450043	-0,066249	180,949	-0,134418	22,530000	47,555000
1,448070	-0,133725	181,250	-0,134445	22,520000	47,585000
1,446074	-0,116550	181,551	-0,134438	22,520000	47,585000
1,444084	0,083425	181,852	-0,134359	22,520000	47,585000
1,442042	0,007361	182,152	-0,134389	22,520000	47,585000
1,440088	-0,025764	182,452	-0,134402	22,520000	47,585000
1,438037	0,158262	182,752	-0,134329	22,520000	47,585000
1,436021	0,273585	183,052	-0,134283	22,520000	47,585000
1,434084	-0,208562	183,352	-0,134475	22,520000	47,585000
1,432081	0,182799	183,652	-0,134319	22,520000	47,585000
1,430046	-0,241687	183,952	-0,134488	22,520000	47,585000
1,428065	-0,125137	184,253	-0,134442	22,520000	47,585000
1,426033	0,207336	184,554	-0,134310	22,520000	47,585000
1,424031	0,041712	184,855	-0,134375	22,520000	47,585000
1,422077	0,066249	185,156	-0,134366	22,520000	47,610000
1,420015	-0,008588	185,457	-0,134396	22,520000	47,610000
1,418058	0,049073	185,758	-0,134373	22,520000	47,610000
1,416059	0,074837	186,059	-0,134362	22,520000	47,610000
1,414031	-0,107962	186,359	-0,134435	22,520000	47,610000
1,412051	-0,041712	186,661	-0,134409	22,520000	47,610000
1,410050	-0,025764	186,961	-0,134402	22,520000	47,610000
1,408060	-0,058888	187,262	-0,134416	22,510000	47,585000
1,406050	-0,158262	187,563	-0,134455	22,510000	47,585000
1,404087	0,049073	187,864	-0,134373	22,510000	47,585000
1,402028	0,165623	188,164	-0,134326	22,510000	47,585000
1,400061	0,024537	188,466	-0,134382	22,510000	47,585000
1,398051	-0,125137	188,767	-0,134442	22,510000	47,585000
1,396035	0,015949	189,068	-0,134386	22,510000	47,585000
1,394022	-0,116550	189,368	-0,134438	22,510000	47,585000
1,392031	-0,282173	189,669	-0,134504	22,510000	47,585000
1,390038	-0,058888	189,970	-0,134416	22,510000	47,585000
1,388087	0,191387	190,271	-0,134316	22,510000	47,585000
1,386013	-0,199974	190,572	-0,134472	22,510000	47,585000
1,384094	-0,490735	190,873	-0,134587	22,510000	47,585000
1,382028	-0,066249	191,173	-0,134418	22,520000	47,570000
1,380043	-0,182799	191,473	-0,134465	22,520000	47,570000
1,378103	0,041712	191,773	-0,134375	22,520000	47,570000
1,376066	0,057661	192,075	-0,134369	22,520000	47,570000
1,374002	-0,107962	192,375	-0,134435	22,520000	47,570000
1,372034	-0,033125	192,676	-0,134405	22,520000	47,570000
1,370076	0,083425	192,976	-0,134359	22,520000	47,570000
1,368075	0,207336	193,276	-0,134310	22,510000	47,585000
1,366084	-0,041712	193,576	-0,134409	22,510000	47,585000
1,364039	0,033125	193,876	-0,134379	22,510000	47,585000
1,362055	0,240460	194,177	-0,134296	22,510000	47,585000
1,360050	0,041712	194,478	-0,134375	22,510000	47,585000
1,358031	0,107962	194,778	-0,134349	22,510000	47,585000
1,356010	0,057661	195,079	-0,134369	22,510000	47,585000
1,354056	-0,083425	195,380	-0,134425	22,530000	47,555000
1,352057	-0,215923	195,680	-0,134478	22,530000	47,555000
1,350044	0,049073	195,980	-0,134373	22,530000	47,555000
1,348082	0,066249	196,280	-0,134366	22,530000	47,555000
1,346028	0,141086	196,581	-0,134336	22,530000	47,555000
1,344065	-0,125137	196,881	-0,134442	22,530000	47,555000
1,342064	-0,050300	197,181	-0,134412	22,530000	47,555000
1,340029	0,015949	197,481	-0,134386	22,530000	47,555000
1,338044	0,215923	197,782	-0,134306	22,530000	47,555000
1,336047	0,015949	198,082	-0,134386	22,530000	47,555000
1,334060	0,149674	198,383	-0,134333	22,530000	47,555000
1,332059	0,033125	198,683	-0,134379	22,530000	47,555000
1,330072	-0,175438	198,984	-0,134462	22,530000	47,555000
1,328072	0,015949	199,284	-0,134386	22,510000	47,555000
1,326067	0,107962	199,584	-0,134349	22,510000	47,555000
1,324033	-0,050300	199,884	-0,134412	22,510000	47,555000
1,322044	0,041712	200,184	-0,134375	22,510000	47,555000
1,320061	0,024537	200,485	-0,134382	22,510000	47,555000
1,318063	0,191387	200,785	-0,134316	22,510000	47,555000
1,316081	-0,083425	201,085	-0,134425	22,510000	47,555000
1,314048	0,041712	201,386	-0,134375	22,510000	47,585000
1,312066	-0,058888	201,687	-0,134416	22,510000	47,585000
1,310035	-0,125137	201,987	-0,134442	22,510000	47,585000
1,308071	-0,116550	202,288	-0,134438	22,510000	47,585000
1,306069	-0,092013	202,589	-0,134429	22,510000	47,585000
1,304027	0,041712	202,889	-0,134375	22,510000	47,585000
1,302052	-0,158262	203,191	-0,134455	22,510000	47,585000
1,300085	0,000000	203,492	-0,134392	22,510000	47,585000
1,298061	-0,141086	203,793	-0,134448	22,510000	47,585000
1,296061	0,041712	204,093	-0,134375	22,510000	47,585000
1,294054	-0,058888	204,393	-0,134416	22,510000	47,585000
1,292048	0,057661	204,693	-0,134369	22,510000	47,585000
1,290102	0,015949	204,993	-0,134386	22,510000	47,585000
1,288038	0,191387	205,295	-0,134316	22,520000	47,530000
1,286072	0,007361	205,595	-0,134389	22,520000	47,530000
1,284074	0,015949	205,895	-0,134386	22,520000	47,530000
1,282069	0,015949	206,196	-0,134386	22,520000	47,530000
1,280027	0,182799	206,496	-0,134319	22,520000	47,530000
1,278041	-0,008588	206,797	-0,134396	22,520000	47,530000
1,276062	0,007361	207,097	-0,134389	22,520000	47,530000
1,274041	-0,066249	207,397	-0,134418	22,520000	47,595000
1,272060	-0,208562	207,697	-0,134475	22,520000	47,595000

X-Pos [um]	Y-Pos [um]
0,000431	10,009395

POC
1,766038
1,268033	-0,015949	0,442	-0,134375	22,530000	47,555000
1,271066	0,033125	0,892	-0,134356	22,530000	47,555000
1,274064	-0,057661	1,345	-0,134392	22,530000	47,555000
1,277082	0,249048	1,795	-0,134270	22,530000	47,555000
1,280105	-0,266224	2,245	-0,134475	22,530000	47,555000
1,283077	-0,008588	2,696	-0,134373	22,520000	47,555000
1,286062	-0,141086	3,147	-0,134425	22,520000	47,555000
1,289040	-0,198748	3,598	-0,134448	22,520000	47,555000
[...]
4,258608	2577,022073	588,380	0,891395	22,530000	47,345000
4,249536	2568,553215	589,733	0,888024	22,530000	47,345000
4,240626	2558,264958	591,088	0,883930	22,530000	47,345000
4,231580	2550,535883	592,440	0,880854	22,520000	47,375000
4,222605	2540,862270	593,793	0,877003	22,520000	47,375000
4,213594	2531,804530	595,145	0,873398	22,520000	47,375000
4,204562	2522,862113	596,497	0,869839	22,540000	47,345000
4,195611	2513,138201	597,849	0,865969	22,530000	47,335000
4,186621	2504,711055	599,200	0,862615	22,530000	47,335000
4,177620	2495,744101	600,550	0,859046	22,520000	47,320000
4,168664	2485,630055	601,905	0,855021	22,520000	47,345000
4,159737	2476,986986	603,256	0,851581	22,520000	47,345000
4,150634	2468,368454	604,609	0,848151	22,510000	47,385000
4,141624	2458,445793	605,963	0,844202	22,530000	47,345000
4,132628	2450,302047	607,317	0,840960	22,530000	47,345000
4,123636	2440,278787	608,669	0,836971	22,520000	47,345000
4,114648	2432,350964	610,022	0,833816	22,520000	47,345000
4,105612	2422,095831	611,375	0,829734	22,530000	47,360000
4,096677	2414,017107	612,728	0,826519	22,530000	47,360000
4,087635	2404,261297	614,081	0,822636	22,530000	47,360000
4,078629	2396,041487	615,434	0,819365	22,520000	47,375000
4,069599	2386,975159	616,786	0,815756	22,520000	47,375000
4,060599	2377,350620	618,138	0,811926	22,520000	47,375000
4,051610	2367,876983	619,490	0,808155	22,520000	47,375000
4,042695	2359,848559	620,842	0,804960	22,520000	47,375000
4,033678	2350,641145	622,193	0,801295	22,520000	47,360000
4,024651	2341,382204	623,547	0,797610	22,530000	47,360000
4,015666	2332,199327	624,901	0,793956	22,530000	47,360000
4,006685	2323,357510	626,255	0,790437	22,530000	47,360000
3,997669	2313,450799	627,607	0,786494	22,530000	47,360000
3,988636	2304,267922	628,959	0,782839	22,530000	47,360000
3,979706	2296,397760	630,313	0,779707	22,530000	47,335000
3,970649	2287,488468	631,666	0,776161	22,510000	47,320000
3,961650	2277,341296	633,018	0,772122	22,510000	47,320000
3,952668	2269,337410	634,369	0,768937	22,520000	47,335000
3,943675	2260,163120	635,720	0,765285	22,520000	47,360000
3,934659	2251,163042	637,073	0,761703	22,520000	47,360000
3,925628	2242,178912	638,425	0,758127	22,530000	47,385000
3,916697	2232,421875	639,776	0,754244	22,530000	47,345000
3,907657	2223,089324	641,130	0,750530	22,530000	47,345000
3,898668	2214,380005	642,484	0,747063	22,530000	47,320000
3,889718	2204,656093	643,836	0,743193	22,530000	47,320000
3,880672	2195,971312	645,187	0,739737	22,530000	47,320000
3,871652	2187,461968	646,540	0,736350	22,520000	47,360000
3,862671	2179,134196	647,892	0,733036	22,520000	47,335000
3,853651	2168,903600	649,244	0,728964	22,520000	47,335000
3,844632	2161,000314	650,596	0,725818	22,520000	47,335000
3,835660	2150,853143	651,948	0,721780	22,510000	47,335000
3,826655	2142,825946	653,300	0,718585	22,510000	47,335000
3,817660	2133,409970	654,655	0,714837	22,510000	47,335000
3,808677	2124,159616	656,007	0,711156	22,520000	47,335000
3,799608	2115,566848	657,362	0,707736	22,520000	47,335000
3,790616	2106,615843	658,718	0,704173	22,510000	47,360000
3,781684	2097,723726	660,074	0,700634	22,520000	47,320000
3,772632	2088,266037	661,426	0,696870	22,520000	47,320000
3,763668	2078,625550	662,776	0,693033	22,520000	47,320000
3,754714	2070,564002	664,127	0,689825	22,520000	47,360000
3,745697	2061,032703	665,479	0,686031	22,520000	47,360000
3,736700	2052,904905	666,835	0,682796	22,520000	47,360000
3,727727	2042,874284	668,186	0,678804	22,510000	47,360000
3,718691	2033,557681	669,539	0,675096	22,520000	47,375000
3,709666	2025,745181	670,890	0,671987	22,520000	47,375000
3,700632	2015,731735	672,242	0,668001	22,530000	47,360000
3,691711	2007,379426	673,593	0,664677	22,530000	47,375000
3,682705	1998,129073	674,947	0,660996	22,530000	47,375000
3,673672	1989,386630	676,299	0,657516	22,530000	47,360000
3,664672	1980,444213	677,653	0,653957	22,520000	47,375000
3,655696	1970,944812	679,007	0,650176	22,520000	47,375000
3,646686	1961,862535	680,360	0,646562	22,530000	47,360000
3,637733	1951,955824	681,711	0,642619	22,530000	47,305000
3,628709	1944,691720	683,063	0,639728	22,530000	47,305000
3,619695	1934,711399	684,419	0,635755	22,530000	47,375000
3,610688	1925,469633	685,771	0,632077	22,530000	47,375000
3,601702	1917,541811	687,124	0,628922	22,530000	47,375000
3,592713	1907,701349	688,477	0,625005	22,510000	47,320000
3,583698	1898,393334	689,829	0,621301	22,510000	47,320000
3,574674	1889,542929	691,180	0,617778	22,510000	47,320000
3,565698	1881,182033	692,532	0,614451	22,530000	47,345000
3,556689	1872,181955	693,882	0,610869	22,530000	47,345000
3,547664	1863,173288	695,237	0,607283	22,530000	47,345000
3,538737	1853,142666	696,589	0,603291	22,530000	47,345000
3,529706	1845,214844	697,939	0,600136	22,510000	47,345000
3,520763	1836,528836	699,293	0,596679	22,510000	47,345000
3,511737	1826,631939	700,649	0,592740	22,510000	47,345000
3,502712	1817,240499	702,002	0,589002	22,520000	47,335000
3,493749	1808,954440	703,355	0,585704	22,520000	47,335000
3,484718	1799,978898	704,707	0,582132	22,520000	47,345000
3,475730	1790,305286	706,060	0,578282	22,530000	47,305000
3,466705	1782,203253	707,413	0,575057	22,530000	47,305000
3,457793	1772,945538	708,768	0,571373	22,530000	47,305000
3,448706	1763,728310	710,122	0,567704	22,530000	47,320000
3,439694	1754,528257	711,474	0,564042	22,530000	47,320000
3,430727	1745,195705	712,826	0,560328	22,530000	47,320000
3,421697	1737,350080	714,179	0,557206	22,520000	47,345000
3,412721	1728,532801	715,530	0,553696	22,530000	47,375000
3,403692	1719,515546	716,882	0,550107	22,530000	47,375000
3,394746	1709,825985	718,232	0,546251	22,530000	47,375000
3,385783	1701,548514	719,585	0,542957	22,520000	47,335000
3,376765	1692,231912	720,939	0,539249	22,520000	47,335000
3,367739	1682,990146	722,290	0,535570	22,530000	47,335000
3,358805	1674,073492	723,642	0,532021	22,530000	47,335000
3,349766	1664,350807	724,996	0,528152	22,530000	47,335000
3,340721	1655,483227	726,351	0,524623	22,530000	47,320000
3,331780	1647,595890	727,704	0,521483	22,520000	47,345000
3,322762	1638,313639	729,057	0,517789	22,520000	47,345000
3,313767	1628,746761	730,410	0,513981	22,520000	47,345000
3,304792	1620,536766	731,762	0,510714	22,520000	47,360000
3,295748	1611,261876	733,116	0,507022	22,520000	47,360000
3,286806	1600,989567	734,468	0,502934	22,530000	47,345000
3,277756	1593,435930	735,821	0,499928	22,510000	47,345000
3,268781	1583,612643	737,176	0,496018	22,510000	47,345000
3,259711	1574,478840	738,530	0,492383	22,530000	47,360000
3,250756	1565,802646	739,883	0,488930	22,530000	47,335000
3,241765	1557,342376	741,258	0,485563	22,530000	47,335000
3,232775	1547,252866	742,610	0,481547	22,520000	47,360000
3,223752	1539,258794	743,964	0,478365	22,530000	47,360000
3,214764	1529,460044	745,318	0,474465	22,530000	47,360000
3,205795	1521,224285	746,671	0,471188	22,510000	47,305000
3,196803	1511,393638	748,023	0,467275	22,530000	47,385000
3,187821	1503,232716	749,377	0,464027	22,530000	47,385000
3,178806	1493,367717	750,730	0,460101	22,520000	47,320000
3,169775	1485,339294	752,084	0,456905	22,540000	47,345000
3,160806	1476,156417	753,436	0,453250	22,510000	47,320000
3,151807	1466,848402	754,789	0,449546	22,510000	47,320000
3,142820	1458,355007	756,142	0,446166	22,520000	47,345000
3,133768	1449,421178	757,493	0,442610	22,530000	47,375000
3,124782	1440,395336	758,847	0,439018	22,530000	47,375000
3,115824	1430,655475	760,200	0,435141	22,530000	47,375000
3,106794	1422,144904	761,554	0,431754	22,520000	47,335000
3,097821	1412,820941	762,906	0,428043	22,520000	47,335000
3,088814	1403,330127	764,258	0,424266	22,530000	47,360000
3,079785	1395,816976	765,613	0,421275	22,530000	47,360000
3,070780	1386,891734	766,967	0,417723	22,530000	47,360000
3,061798	1376,769099	768,318	0,413694	22,530000	47,345000
3,052815	1368,051193	769,668	0,410225	22,530000	47,345000
3,043831	1359,143128	771,020	0,406679	22,530000	47,345000
3,034761	1351,272966	772,372	0,403547	22,540000	47,345000
3,025779	1341,823865	773,727	0,399786	22,530000	47,360000
3,016804	1332,831148	775,081	0,396207	22,530000	47,360000
3,007803	1324,080117	776,436	0,392724	22,530000	47,360000
2,998828	1314,789278	777,786	0,389026	22,520000	47,345000
2,989795	1306,120446	779,137	0,385576	22,520000	47,345000
2,980810	1295,915613	780,490	0,381515	22,530000	47,320000
2,971839	1287,987791	781,842	0,378359	22,520000	47,375000
2,962806	1278,671188	783,196	0,374651	22,520000	47,375000
2,953802	1269,163199	784,549	0,370867	22,520000	47,375000
2,944769	1261,218200	785,902	0,367705	22,520000	47,335000
2,935808	1251,794863	787,258	0,363955	22,520000	47,335000
2,926772	1242,594810	788,612	0,360293	22,520000	47,335000
2,917855	1234,216738	789,968	0,356958	22,510000	47,345000
2,908804	1224,386091	791,319	0,353046	22,510000	47,345000
2,899793	1215,584760	792,671	0,349543	22,510000	47,345000
2,890814	1206,086585	794,025	0,345763	22,520000	47,320000
2,881817	1198,091287	795,378	0,342581	22,520000	47,320000
2,872792	1188,076614	796,729	0,338595	22,540000	47,360000
2,863828	1179,393059	798,081	0,335139	22,540000	47,360000
2,854782	1170,849364	799,432	0,331738	22,510000	47,335000
2,845804	1162,422219	800,785	0,328384	22,510000	47,335000
2,836824	1152,250510	802,137	0,324336	22,510000	47,320000
2,827810	1144,197550	803,490	0,321131	22,530000	47,335000
2,818799	1134,290839	804,843	0,317188	22,530000	47,335000
2,809788	1125,231872	806,195	0,313583	22,530000	47,375000
2,800799	1117,253749	807,548	0,310407	22,530000	47,375000
2,791862	1107,712635	808,899	0,306610	22,530000	47,375000
2,782776	1099,311254	810,253	0,303266	22,520000	47,345000
2,773809	1089,595929	811,610	0,299399	22,520000	47,360000
2,764791	1080,895199	812,960	0,295937	22,520000	47,360000
2,755822	1071,379848	814,314	0,292149	22,520000	47,320000
2,746832	1062,769904	815,667	0,288723	22,520000	47,320000
2,737840	1054,558682	817,019	0,285455	22,520000	47,320000
2,728851	1045,524252	818,376	0,281859	22,520000	47,360000
2,719833	1037,430806	819,727	0,278638	22,530000	47,360000
2,710832	1028,330127	821,080	0,275016	22,530000	47,360000
2,701815	1018,423416	822,434	0,271073	22,530000	47,320000
2,692808	1010,222008	823,788	0,267809	22,520000	47,320000
2,683798	1000,207336	825,142	0,263823	22,520000	47,320000
2,674838	991,672228	826,495	0,260426	22,520000	47,320000
2,665758	982,571549	827,848	0,256804	22,510000	47,335000
2,656800	974,219241	829,200	0,253479	22,510000	47,335000
2,647859	965,361475	830,555	0,249954	22,510000	47,335000
2,638835	955,679275	831,908	0,246101	22,530000	47,320000
2,629847	946,769983	833,258	0,242555	22,530000	47,320000
2,620843	938,600473	834,612	0,239303	22,530000	47,320000
2,611834	929,168548	835,966	0,235549	22,530000	47,345000
2,602843	921,322923	837,321	0,232427	22,530000	47,345000
2,593756	911,773222	838,675	0,228626	22,510000	47,335000
2,584814	903,039367	840,030	0,225150	22,510000	47,375000
2,575809	893,017333	841,382	0,221161	22,510000	47,375000
2,566824	883,974315	842,736	0,217562	22,510000	47,375000
2,557849	874,841738	844,091	0,213927	22,530000	47,320000
2,548795	866,581442	845,442	0,210640	22,530000	47,345000
2,539846	857,754348	846,797	0,207126	22,530000	47,345000
2,530830	848,954244	848,148	0,203624	22,530000	47,345000
2,521825	839,472018	849,498	0,199850	22,520000	47,345000
2,512879	830,919735	850,851	0,196446	22,520000	47,345000
2,503837	822,160117	852,202	0,192960	22,520000	47,345000
2,494815	812,287757	853,553	0,189031	22,530000	47,335000
2,485907	804,043410	854,906	0,185750	22,530000	47,335000
2,476830	795,010207	856,256	0,182154	22,530000	47,335000
2,467827	786,383087	857,607	0,178721	22,520000	47,360000
2,458836	776,411354	858,959	0,174752	22,520000	47,360000
2,449844	768,764477	860,310	0,171708	22,520000	47,345000
2,440823	759,198826	861,662	0,167901	22,520000	47,345000
2,431832	750,788856	863,015	0,164554	22,520000	47,345000
2,422859	741,912688	864,368	0,161021	22,520000	47,345000
2,413790	732,796060	865,723	0,157393	22,520000	47,345000
2,404857	723,903944	867,075	0,153854	22,520000	47,345000
2,395847	714,687942	868,429	0,150186	22,520000	47,360000
2,386838	705,179952	869,780	0,146402	22,520000	47,360000
2,377868	696,080500	871,131	0,142780	22,520000	47,360000
2,368855	688,043489	872,483	0,139582	22,530000	47,335000
2,359840	678,312215	873,835	0,135708	22,530000	47,335000
2,350859	670,184418	875,187	0,132474	22,530000	47,335000
2,341819	661,043253	876,540	0,128835	22,530000	47,320000
2,332866	651,235916	877,892	0,124932	22,510000	47,335000
2,323820	643,524017	879,247	0,121863	22,510000	47,335000
2,314860	633,185459	880,598	0,117748	22,530000	47,335000
2,305861	625,040486	881,950	0,114506	22,530000	47,345000
2,296879	615,434349	883,303	0,110683	22,530000	47,345000
2,287845	607,738399	884,656	0,107620	22,530000	47,345000
2,278874	598,214461	886,008	0,103830	22,520000	47,320000
2,269874	589,721066	887,363	0,100449	22,520000	47,320000
2,260830	580,089167	888,716	0,096616	22,520000	47,320000
2,251843	571,354085	890,068	0,093139	22,530000	47,305000
2,242816	563,351425	891,420	0,089954	22,520000	47,345000
2,233831	554,400420	892,773	0,086392	22,520000	47,345000
2,224833	544,420099	894,128	0,082419	22,530000	47,345000
2,215906	535,709554	895,484	0,078953	22,520000	47,305000
2,206835	527,948581	896,837	0,075864	22,520000	47,305000
2,197892	518,050457	898,189	0,071924	22,520000	47,345000
2,188858	509,947197	899,539	0,068699	22,520000	47,345000
2,179800	500,033125	900,890	0,064753	22,520000	47,345000
2,170825	492,079538	902,242	0,061588	22,510000	47,305000
2,161849	482,978859	903,596	0,057966	22,510000	47,335000
2,152851	474,377503	904,947	0,054542	22,510000	47,335000
2,143864	464,388593	906,297	0,050567	22,530000	47,305000
2,134867	456,617806	907,650	0,047474	22,530000	47,320000
2,125858	447,177293	909,001	0,043717	22,530000	47,320000
2,116899	438,591885	910,353	0,040300	22,530000	47,320000
2,107885	429,849443	911,706	0,036820	22,530000	47,345000
2,098852	421,115588	913,057	0,033344	22,530000	47,345000
2,089882	412,289720	914,409	0,029832	22,530000	47,320000
2,080837	402,440670	915,761	0,025912	22,530000	47,320000
2,071853	393,831953	917,113	0,022485	22,530000	47,320000
2,062874	385,579018	918,468	0,019201	22,520000	47,320000
2,053827	376,711438	919,823	0,015671	22,510000	47,320000
2,044848	367,652471	921,176	0,012066	22,510000	47,320000
2,035886	357,439051	922,527	0,008001	22,520000	47,335000
2,026911	350,017912	923,878	0,005047	22,510000	47,360000
2,017799	340,178677	925,229	0,001131	22,510000	47,360000
2,008864	330,745524	926,585	-0,002623	22,510000	47,360000
1,999915	323,399223	927,938	-0,005547	22,510000	47,345000
1,990862	314,331668	929,291	-0,009156	22,510000	47,345000
1,981855	305,223628	930,643	-0,012781	22,530000	47,335000
1,972870	296,322923	931,998	-0,016323	22,530000	47,335000
1,963868	286,316838	933,349	-0,020306	22,530000	47,335000
1,954877	278,862575	934,701	-0,023272	22,510000	47,345000
1,945816	270,102956	936,052	-0,026759	22,510000	47,345000
1,936879	261,085702	937,405	-0,030348	22,510000	47,345000
1,927826	251,403502	938,758	-0,034201	22,520000	47,360000
1,918847	242,636522	940,112	-0,037690	22,520000	47,360000
1,909923	234,325927	941,466	-0,040998	22,530000	47,345000
1,900853	225,550359	942,817	-0,044491	22,530000	47,345000
1,891860	215,652236	944,170	-0,048430	22,530000	47,305000
1,882865	208,006586	945,523	-0,051473	22,530000	47,305000
1,873829	198,548897	946,876	-0,055237	22,530000	47,305000
1,864862	188,966071	948,227	-0,059051	22,530000	47,335000
1,855872	180,763436	949,580	-0,062316	22,530000	47,335000
1,846861	171,996457	950,934	-0,065805	22,530000	47,335000
1,837868	162,763279	952,286	-0,069480	22,530000	47,345000
1,828882	153,812274	953,638	-0,073042	22,530000	47,335000
1,819870	144,845320	954,989	-0,076611	22,530000	47,335000
1,810864	137,249971	956,340	-0,079634	22,520000	47,305000
1,801849	127,717445	957,692	-0,083428	22,510000	47,375000
1,792903	119,746683	959,046	-0,086601	22,510000	47,375000
1,783850	109,517313	960,398	-0,090672	22,510000	47,375000
1,774848	101,472941	961,752	-0,093874	22,520000	47,335000
1,765880	92,621310	963,106	-0,097396	22,520000	47,335000
1,756933	83,355007	964,458	-0,101084	22,520000	47,335000
1,747877	74,313216	965,812	-0,104683	22,530000	47,360000
1,738825	66,817240	967,167	-0,107667	22,530000	47,360000
1,729856	56,711782	968,520	-0,111688	22,530000	47,335000
1,720837	48,617109	969,874	-0,114910	22,520000	47,345000
1,711942	39,982628	971,227	-0,118347	22,520000	47,345000
1,702899	30,234179	972,579	-0,122227	22,530000	47,335000
1,693921	21,142087	973,931	-0,125845	22,530000	47,335000
1,684872	12,681817	975,283	-0,129212	22,530000	47,335000
1,675932	3,979860	976,637	-0,132676	22,510000	47,335000
1,666900	-3,997036	977,989	-0,135851	22,530000	47,320000
1,657791	-14,277933	979,340	-0,139942	22,530000	47,320000
1,648902	-22,048720	980,692	-0,143035	22,520000	47,345000
1,639879	-31,099099	982,042	-0,146637	22,530000	47,320000
1,630837	-40,605861	983,393	-0,150421	22,530000	47,320000
1,621883	-49,008470	984,748	-0,153765	22,530000	47,320000
1,612848	-57,825750	986,100	-0,157274	22,530000	47,360000
1,603937	-66,858953	987,454	-0,160870	22,520000	47,320000
1,594905	-75,710584	988,808	-0,164393	22,520000	47,320000
1,585833	-85,840580	990,159	-0,168424	22,520000	47,320000
1,576834	-93,320607	991,509	-0,171401	22,510000	47,360000
1,567836	-103,641989	992,860	-0,175509	22,510000	47,360000
1,558895	-112,958592	994,210	-0,179217	22,530000	47,345000
1,549876	-120,404267	995,562	-0,182181	22,520000	47,320000
1,540868	-130,253317	996,913	-0,186101	22,520000	47,320000
1,531884	-138,447364	998,265	-0,189362	22,520000	47,320000
1,522859	-148,187225	999,620	-0,193238	22,530000	47,345000
1,513907	-156,813118	1000,973	-0,196671	22,530000	47,345000
1,504880	-165,431650	1002,327	-0,200102	22,520000	47,295000
1,495869	-175,088087	1003,680	-0,203945	22,520000	47,295000
1,486897	-183,323846	1005,032	-0,207223	22,520000	47,295000
1,477870	-192,249087	1006,385	-0,210775	22,520000	47,375000
1,468907	-201,831913	1007,738	-0,214589	22,540000	47,360000
1,459879	-210,973078	1009,090	-0,218227	22,540000	47,360000
1,450868	-219,043214	1010,440	-0,221439	22,540000	47,360000
1,441922	-228,924162	1011,793	-0,225372	22,520000	47,345000
1,432900	-236,877748	1013,146	-0,228537	22,520000	47,345000
1,423869	-245,778453	1014,498	-0,232080	22,520000	47,335000
1,414856	-255,676576	1015,849	-0,236019	22,510000	47,375000
1,405890	-264,476680	1017,201	-0,239521	22,510000	47,375000
1,396922	-272,471979	1018,554	-0,242704	22,540000	47,335000
1,387892	-281,090511	1019,907	-0,246134	22,520000	47,360000
1,378831	-289,467356	1021,262	-0,249468	22,520000	47,360000
1,369894	-298,542272	1022,619	-0,253080	22,520000	47,360000
1,360926	-306,254171	1023,973	-0,256149	22,520000	47,335000
1,351846	-314,066671	1025,325	-0,259258	22,520000	47,335000
1,342847	-321,828871	1026,676	-0,262348	22,520000	47,335000
1,333930	-329,591071	1028,030	-0,265437	22,530000	47,335000
1,324847	0,273585	1029,381	-0,134151	22,530000	47,335000
1,315858	0,090786	1030,732	-0,134224	22,530000	47,335000
1,306888	0,041712	1032,082	-0,134243	22,510000	47,305000
1,297874	-0,074837	1033,436	-0,134290	22,510000	47,305000
1,288874	-0,257636	1034,787	-0,134362	22,510000	47,305000
1,279881	-0,125137	1036,138	-0,134310	22,530000	47,335000
1,270883	-0,166850	1037,491	-0,134326	22,530000	47,335000
1,261892	-0,107962	1038,842	-0,134303	22,530000	47,335000
1,252843	0,000000	1040,197	-0,134260	22,510000	47,335000
1,243869	0,464971	1041,550	-0,134075	22,520000	47,305000
1,234934	0,099374	1042,905	-0,134220	22,520000	47,305000
1,225868	-0,307936	1044,258	-0,134382	22,540000	47,295000
1,216850	-0,092013	1045,610	-0,134296	22,530000	47,335000
1,207904	-0,141086	1046,962	-0,134316	22,530000	47,335000
1,198923	0,008588	1048,315	-0,134256	22,530000	47,335000
1,189914	-0,008588	1049,667	-0,134263	22,520000	47,345000
1,180907	-0,025764	1051,019	-0,134270	22,520000	47,345000
1,171848	0,132498	1052,371	-0,134207	22,530000	47,320000
1,165897	-0,257636	1053,272	-0,134362	22,530000	47,320000