File: Nanoindentation Datenauswertung/data/AR-SA-450-1-450-3um-diff_LF-4x4-1
Quasi static measurement routine
Tip parameters (shape,radius, material...)
05.09.2022

Piezo position[nm]	MEMS displ.[nm]	Time[ms]	Cap [pf]	Temp [°C]	Rh [%]
eoh

X-Pos [um]	Y-Pos [um]
0,000265	0,001402

POC
1,947867
0,949820	0,023307	0,457	-0,079846	94,210000	0,000000
0,952859	0,015150	0,907	-0,079850	94,210000	0,000000
0,955862	0,062929	1,358	-0,079830	94,210000	0,000000
0,958835	-0,071086	1,808	-0,079886	94,250000	0,000000
0,961840	0,433510	2,259	-0,079674	94,250000	0,000000
0,964861	-0,127023	2,713	-0,079909	94,250000	0,000000
0,967880	-0,363589	3,163	-0,080008	94,250000	0,000000
0,970861	0,008157	3,614	-0,079853	94,250000	0,000000
0,973823	-0,142173	4,065	-0,079916	94,180000	0,000000
0,976858	-0,039622	4,515	-0,079873	94,180000	0,000000
0,979838	0,008157	4,966	-0,079853	94,180000	0,000000
0,982834	-0,087401	5,416	-0,079893	94,180000	0,000000
0,985846	0,149165	5,866	-0,079793	94,210000	0,000000
0,988851	-0,135180	6,317	-0,079913	94,210000	0,000000
0,991823	0,395053	6,768	-0,079690	94,210000	0,000000
0,994851	-0,055937	7,219	-0,079879	94,210000	0,000000
0,997848	-0,261038	7,669	-0,079965	94,210000	0,000000
1,000822	0,015150	8,120	-0,079850	94,210000	0,000000
1,003871	0,062929	8,571	-0,079830	94,210000	0,000000
1,006820	0,165480	9,023	-0,079787	94,210000	0,000000
1,009829	-0,118866	9,473	-0,079906	94,210000	0,000000
1,012832	-0,095559	9,923	-0,079896	94,260000	0,000000
1,015840	0,039622	10,374	-0,079839	94,260000	0,000000
1,018864	-0,110708	10,824	-0,079902	94,260000	0,000000
1,021790	-0,039622	11,276	-0,079873	94,260000	0,000000
1,024850	-0,079244	11,726	-0,079889	94,260000	0,000000
1,027865	0,000000	12,176	-0,079856	94,210000	0,000000
1,030864	0,173637	12,627	-0,079783	94,210000	0,000000
1,033854	0,071086	13,078	-0,079826	94,210000	0,000000
1,036827	0,125858	13,529	-0,079803	94,210000	0,000000
1,039849	-0,127023	13,980	-0,079909	94,210000	0,000000
1,042856	0,125858	14,431	-0,079803	94,210000	0,000000
1,045846	0,039622	14,882	-0,079839	94,210000	0,000000
1,048890	-0,016315	15,333	-0,079863	94,210000	0,000000
1,051847	0,008157	15,784	-0,079853	94,180000	0,000000
1,054813	0,046614	16,234	-0,079836	94,180000	0,000000
1,057822	-0,276188	16,684	-0,079972	94,180000	0,000000
1,060810	-0,158487	17,136	-0,079922	94,180000	0,000000
1,063911	-0,079244	17,587	-0,079889	94,180000	0,000000
1,066818	-0,142173	18,037	-0,079916	94,180000	0,000000
1,069819	-0,055937	18,488	-0,079879	94,180000	0,000000
1,072855	-0,079244	18,938	-0,079889	94,180000	0,000000
1,075847	-0,055937	19,388	-0,079879	94,180000	0,000000
1,078874	-0,181794	19,838	-0,079932	94,230000	0,000000
1,081785	-0,047779	20,289	-0,079876	94,230000	0,000000
1,084816	-0,221416	20,739	-0,079949	94,230000	0,000000
1,087852	0,117700	21,190	-0,079807	94,230000	0,000000
1,090877	0,086236	21,640	-0,079820	94,230000	0,000000
1,093773	0,008157	22,091	-0,079853	94,230000	0,000000
1,096806	-0,181794	22,542	-0,079932	94,230000	0,000000
1,099811	0,071086	22,995	-0,079826	94,230000	0,000000
1,102806	-0,047779	23,446	-0,079876	94,230000	0,000000
1,105879	-0,135180	23,897	-0,079913	94,240000	0,000000
1,108897	0,134015	24,347	-0,079800	94,240000	0,000000
1,111878	-0,213259	24,798	-0,079945	94,240000	0,000000
1,114831	-0,071086	25,248	-0,079886	94,240000	0,000000
1,117822	-0,062929	25,700	-0,079882	94,240000	0,000000
1,120882	0,071086	26,151	-0,079826	94,160000	0,000000
1,123819	0,071086	26,601	-0,079826	94,160000	0,000000
1,126884	-0,039622	27,051	-0,079873	94,160000	0,000000
1,129858	0,015150	27,502	-0,079850	94,160000	0,000000
1,132825	0,228408	27,952	-0,079760	94,160000	0,000000
1,135841	-0,135180	28,402	-0,079913	94,160000	0,000000
1,138822	-0,071086	28,852	-0,079886	94,160000	0,000000
1,141824	0,000000	29,304	-0,079856	94,160000	0,000000
1,144796	0,015150	29,754	-0,079850	94,160000	0,000000
1,147878	0,094393	30,205	-0,079816	94,210000	0,000000
1,150854	-0,127023	30,655	-0,079909	94,210000	0,000000
1,153891	-0,110708	31,106	-0,079902	94,210000	0,000000
1,156872	-0,071086	31,558	-0,079886	94,210000	0,000000
1,159789	-0,031464	32,009	-0,079869	94,120000	0,000000
1,162784	0,071086	32,459	-0,079826	94,120000	0,000000
1,165850	-0,236566	32,910	-0,079955	94,120000	0,000000
1,168881	-0,071086	33,361	-0,079886	94,120000	0,000000
1,171795	0,008157	33,811	-0,079853	94,160000	0,000000
1,174769	-0,189952	34,261	-0,079936	94,160000	0,000000
1,177817	-0,269196	34,712	-0,079969	94,160000	0,000000
1,180815	-0,110708	35,162	-0,079902	94,160000	0,000000
1,183808	-0,127023	35,614	-0,079909	94,160000	0,000000
1,186835	-0,150330	36,065	-0,079919	94,160000	0,000000
1,189812	-0,252881	36,516	-0,079962	94,160000	0,000000
1,192784	0,015150	36,967	-0,079850	94,160000	0,000000
1,195837	-0,039622	37,417	-0,079873	94,160000	0,000000
1,198832	-0,016315	37,867	-0,079863	94,240000	0,000000
1,201842	-0,055937	38,319	-0,079879	94,240000	0,000000
1,204835	-0,047779	38,769	-0,079876	94,240000	0,000000
1,207796	-0,095559	39,220	-0,079896	94,240000	0,000000
1,210817	-0,071086	39,672	-0,079886	94,240000	0,000000
1,213854	-0,055937	40,123	-0,079879	94,230000	0,000000
1,216785	0,125858	40,574	-0,079803	94,230000	0,000000
1,219889	-0,158487	41,024	-0,079922	94,230000	0,000000
1,222831	-0,102551	41,474	-0,079899	94,230000	0,000000
1,225791	0,086236	41,924	-0,079820	94,120000	0,000000
1,228799	-0,135180	42,374	-0,079913	94,120000	0,000000
1,231852	-0,095559	42,824	-0,079896	94,120000	0,000000
1,234830	0,125858	43,274	-0,079803	94,120000	0,000000
1,237873	-0,166645	43,724	-0,079926	94,120000	0,000000
1,240832	0,078078	44,176	-0,079823	94,240000	0,000000
1,243794	-0,024472	44,627	-0,079866	94,240000	0,000000
1,246814	-0,244723	45,078	-0,079958	94,240000	0,000000
1,249778	-0,135180	45,530	-0,079913	94,240000	0,000000
1,252851	-0,158487	45,982	-0,079922	94,130000	0,000000
1,255794	-0,118866	46,432	-0,079906	94,130000	0,000000
1,258806	0,000000	46,882	-0,079856	94,130000	0,000000
1,261864	-0,127023	47,334	-0,079909	94,130000	0,000000
1,264873	-0,062929	47,784	-0,079882	94,230000	0,000000
1,267851	-0,196944	48,234	-0,079938	94,230000	0,000000
1,270792	-0,158487	48,686	-0,079922	94,230000	0,000000
1,273798	0,008157	49,136	-0,079853	94,230000	0,000000
1,276837	-0,071086	49,587	-0,079886	94,230000	0,000000
1,279834	0,062929	50,037	-0,079830	94,130000	0,000000
1,282785	-0,055937	50,488	-0,079879	94,130000	0,000000
1,285858	0,039622	50,939	-0,079839	94,130000	0,000000
1,288833	-0,016315	51,389	-0,079863	94,130000	0,000000
1,291828	-0,095559	51,840	-0,079896	94,170000	0,000000
1,294765	0,291337	52,292	-0,079734	94,170000	0,000000
1,297793	0,094393	52,742	-0,079816	94,170000	0,000000
1,300848	0,102551	53,192	-0,079813	94,170000	0,000000
1,303796	-0,087401	53,642	-0,079893	94,170000	0,000000
1,306777	-0,095559	54,093	-0,079896	94,260000	0,000000
1,309823	0,008157	54,545	-0,079853	94,260000	0,000000
1,312834	-0,205101	54,996	-0,079942	94,260000	0,000000
1,315829	-0,118866	55,446	-0,079906	94,260000	0,000000
1,318807	-0,236566	55,896	-0,079955	94,260000	0,000000
1,321920	-0,039622	56,346	-0,079873	94,260000	0,000000
1,324805	0,008157	56,796	-0,079853	94,260000	0,000000
1,327816	-0,292503	57,246	-0,079979	94,260000	0,000000
1,330803	0,015150	57,697	-0,079850	94,260000	0,000000
1,333786	-0,039622	58,148	-0,079873	94,230000	0,000000
1,336769	-0,110708	58,598	-0,079902	94,230000	0,000000
1,339788	-0,181794	59,048	-0,079932	94,230000	0,000000
1,342865	0,000000	59,498	-0,079856	94,230000	0,000000
1,345825	-0,047779	59,950	-0,079876	94,200000	0,000000
1,348764	-0,386896	60,401	-0,080018	94,200000	0,000000
1,351878	-0,016315	60,851	-0,079863	94,200000	0,000000
1,354793	-0,102551	61,302	-0,079899	94,200000	0,000000
1,357767	-0,062929	61,754	-0,079882	94,200000	0,000000
1,360874	-0,071086	62,206	-0,079886	94,180000	0,000000
1,363812	0,086236	62,657	-0,079820	94,180000	0,000000
1,366811	0,015150	63,108	-0,079850	94,180000	0,000000
1,369796	0,188787	63,558	-0,079777	94,180000	0,000000
1,372810	0,086236	64,009	-0,079820	94,250000	0,000000
1,375784	0,023307	64,460	-0,079846	94,250000	0,000000
1,378802	-0,150330	64,911	-0,079919	94,250000	0,000000
1,381771	-0,039622	65,361	-0,079873	94,250000	0,000000
1,384860	-0,008157	65,813	-0,079859	94,260000	0,000000
1,387884	-0,110708	66,265	-0,079902	94,260000	0,000000
1,390774	-0,110708	66,716	-0,079902	94,260000	0,000000
1,393832	-0,135180	67,167	-0,079913	94,260000	0,000000
1,396847	-0,135180	67,618	-0,079913	94,260000	0,000000
1,399799	-0,236566	68,070	-0,079955	94,260000	0,000000
1,402827	-0,024472	68,522	-0,079866	94,260000	0,000000
1,405815	-0,173637	68,973	-0,079929	94,260000	0,000000
1,408791	0,008157	69,424	-0,079853	94,260000	0,000000
1,411781	-0,087401	69,875	-0,079893	94,200000	0,000000
1,414844	-0,189952	70,326	-0,079936	94,200000	0,000000
1,417794	-0,008157	70,776	-0,079859	94,200000	0,000000
1,420833	-0,102551	71,228	-0,079899	94,200000	0,000000
1,423836	-0,292503	71,678	-0,079979	94,200000	0,000000
1,426802	-0,166645	72,128	-0,079926	94,150000	0,000000
1,429815	0,023307	72,578	-0,079846	94,150000	0,000000
1,432848	-0,087401	73,030	-0,079893	94,150000	0,000000
1,435815	-0,079244	73,480	-0,079889	94,150000	0,000000
1,438865	-0,189952	73,930	-0,079936	94,180000	0,000000
1,441805	-0,173637	74,382	-0,079929	94,180000	0,000000
1,444821	-0,055937	74,832	-0,079879	94,180000	0,000000
1,447819	-0,173637	75,282	-0,079929	94,180000	0,000000
1,450814	0,062929	75,734	-0,079830	94,180000	0,000000
1,453770	-0,213259	76,184	-0,079945	94,210000	0,000000
1,456792	0,015150	76,634	-0,079850	94,210000	0,000000
1,459815	0,023307	77,084	-0,079846	94,210000	0,000000
1,462746	-0,244723	77,535	-0,079958	94,210000	0,000000
1,465856	-0,118866	77,986	-0,079906	94,230000	0,000000
1,468825	-0,039622	78,436	-0,079873	94,230000	0,000000
1,471822	-0,127023	78,887	-0,079909	94,230000	0,000000
1,474809	-0,118866	79,339	-0,079906	94,230000	0,000000
1,477825	-0,039622	79,789	-0,079873	94,230000	0,000000
1,480821	-0,213259	80,240	-0,079945	94,230000	0,000000
1,483854	-0,055937	80,690	-0,079879	94,230000	0,000000
1,486795	-0,142173	81,140	-0,079916	94,230000	0,000000
1,489767	0,023307	81,590	-0,079846	94,230000	0,000000
1,492816	-0,150330	82,040	-0,079919	94,240000	0,000000
1,495789	-0,276188	82,490	-0,079972	94,240000	0,000000
1,498775	-0,118866	82,941	-0,079906	94,240000	0,000000
1,501847	0,039622	83,391	-0,079839	94,240000	0,000000
1,504794	-0,150330	83,841	-0,079919	94,240000	0,000000
1,507800	0,196944	84,292	-0,079773	94,240000	0,000000
1,510791	0,000000	84,742	-0,079856	94,240000	0,000000
1,513834	-0,284345	85,193	-0,079975	94,240000	0,000000
1,516817	-0,031464	85,643	-0,079869	94,240000	0,000000
1,519845	-0,196944	86,095	-0,079938	94,240000	0,000000
1,522824	-0,332124	86,546	-0,079995	94,240000	0,000000
1,525798	0,062929	86,996	-0,079830	94,240000	0,000000
1,528858	-0,055937	87,449	-0,079879	94,240000	0,000000
1,531810	-0,008157	87,901	-0,079859	94,240000	0,000000
1,534850	-0,071086	88,352	-0,079886	94,240000	0,000000
1,537839	-0,236566	88,802	-0,079955	94,240000	0,000000
1,540819	-0,135180	89,252	-0,079913	94,240000	0,000000
1,543757	-0,135180	89,702	-0,079913	94,240000	0,000000
1,546824	-0,110708	90,152	-0,079902	94,240000	0,000000
1,549869	-0,189952	90,602	-0,079936	94,240000	0,000000
1,552825	-0,071086	91,054	-0,079886	94,240000	0,000000
1,555844	-0,024472	91,505	-0,079866	94,240000	0,000000
1,558883	-0,205101	91,956	-0,079942	94,240000	0,000000
1,561849	-0,442833	92,406	-0,080042	94,240000	0,000000
1,564795	0,015150	92,858	-0,079850	94,240000	0,000000
1,567799	-0,110708	93,309	-0,079902	94,240000	0,000000
1,570832	-0,158487	93,759	-0,079922	94,240000	0,000000
1,573794	-0,158487	94,209	-0,079922	94,170000	0,000000
1,576817	-0,292503	94,660	-0,079979	94,170000	0,000000
1,579762	-0,252881	95,110	-0,079962	94,170000	0,000000
1,582810	-0,166645	95,560	-0,079926	94,170000	0,000000
1,585792	-0,181794	96,010	-0,079932	94,210000	0,000000
1,588782	-0,150330	96,460	-0,079919	94,210000	0,000000
1,591789	0,000000	96,910	-0,079856	94,210000	0,000000
1,594788	-0,189952	97,361	-0,079936	94,210000	0,000000
1,597765	0,054771	97,811	-0,079833	94,230000	0,000000
1,600811	-0,102551	98,262	-0,079899	94,230000	0,000000
1,603856	0,008157	98,712	-0,079853	94,230000	0,000000
1,606851	-0,008157	99,163	-0,079859	94,230000	0,000000
1,609779	-0,244723	99,614	-0,079958	94,230000	0,000000
1,612775	-0,150330	100,067	-0,079919	94,230000	0,000000
1,615773	-0,008157	100,518	-0,079859	94,230000	0,000000
1,618834	-0,292503	100,969	-0,079979	94,230000	0,000000
1,621773	-0,166645	101,420	-0,079926	94,230000	0,000000
1,624845	-0,071086	101,871	-0,079886	94,240000	0,000000
1,627775	-0,110708	102,322	-0,079902	94,240000	0,000000
1,630738	-0,221416	102,773	-0,079949	94,240000	0,000000
1,633772	-0,079244	103,225	-0,079889	94,240000	0,000000
1,636788	-0,079244	103,677	-0,079889	94,240000	0,000000
1,639766	-0,229574	104,128	-0,079952	94,240000	0,000000
1,642779	-0,158487	104,578	-0,079922	94,240000	0,000000
1,645814	-0,221416	105,028	-0,079949	94,240000	0,000000
1,648822	-0,135180	105,478	-0,079913	94,240000	0,000000
1,651768	0,015150	105,928	-0,079850	94,180000	0,000000
1,654755	-0,347274	106,378	-0,080001	94,180000	0,000000
1,657796	-0,457982	106,830	-0,080048	94,180000	0,000000
1,660750	-0,008157	107,280	-0,079859	94,180000	0,000000
1,663745	-0,110708	107,730	-0,079902	94,180000	0,000000
1,666773	-0,095559	108,180	-0,079896	94,180000	0,000000
1,669776	-0,261038	108,630	-0,079965	94,180000	0,000000
1,672759	-0,102551	109,082	-0,079899	94,180000	0,000000
1,675851	-0,457982	109,533	-0,080048	94,180000	0,000000
1,678819	-0,173637	109,983	-0,079929	94,210000	0,000000
1,681789	-0,323967	110,434	-0,079992	94,210000	0,000000
1,684789	-0,173637	110,884	-0,079929	94,210000	0,000000
1,687766	-0,315810	111,336	-0,079988	94,210000	0,000000
1,690782	-0,173637	111,787	-0,079929	94,210000	0,000000
1,693806	-0,213259	112,237	-0,079945	94,210000	0,000000
1,696830	-0,323967	112,687	-0,079992	94,210000	0,000000
1,699786	-0,062929	113,138	-0,079882	94,210000	0,000000
1,702811	-0,261038	113,588	-0,079965	94,210000	0,000000
1,705777	-0,300660	114,040	-0,079982	94,240000	0,000000
1,708785	-0,315810	114,492	-0,079988	94,240000	0,000000
1,711796	-0,379904	114,943	-0,080015	94,240000	0,000000
1,714827	0,015150	115,394	-0,079850	94,240000	0,000000
1,717802	-0,545383	115,844	-0,080084	94,150000	0,000000
1,720711	-0,300660	116,295	-0,079982	94,150000	0,000000
1,723757	-0,481289	116,747	-0,080058	94,150000	0,000000
1,726836	-0,853036	117,198	-0,080213	94,150000	0,000000
1,729802	-0,252881	117,648	-0,079962	94,150000	0,000000
1,732768	-0,323967	118,099	-0,079992	94,290000	0,000000
1,735770	-0,158487	118,551	-0,079922	94,290000	0,000000
1,738780	-0,315810	119,002	-0,079988	94,290000	0,000000
1,741740	-0,386896	119,453	-0,080018	94,290000	0,000000
1,744813	-0,071086	119,904	-0,079886	94,160000	0,000000
1,747804	-0,403211	120,354	-0,080025	94,160000	0,000000
1,750766	-0,261038	120,806	-0,079965	94,160000	0,000000
1,753770	-0,418360	121,257	-0,080031	94,160000	0,000000
1,756833	-0,118866	121,708	-0,079906	94,160000	0,000000
1,759778	-0,426518	122,158	-0,080035	94,260000	0,000000
1,762801	-0,363589	122,609	-0,080008	94,260000	0,000000
1,765780	-0,466140	123,059	-0,080051	94,260000	0,000000
1,768843	-0,323967	123,509	-0,079992	94,260000	0,000000
1,771806	-0,118866	123,959	-0,079906	94,160000	0,000000
1,774796	-0,410203	124,409	-0,080028	94,160000	0,000000
1,777776	-0,410203	124,859	-0,080028	94,160000	0,000000
1,780753	-0,323967	125,309	-0,079992	94,160000	0,000000
1,783798	-0,418360	125,760	-0,080031	94,160000	0,000000
1,786803	-0,442833	126,210	-0,080042	94,160000	0,000000
1,789756	-0,355431	126,661	-0,080005	94,160000	0,000000
1,792829	-0,284345	127,111	-0,079975	94,160000	0,000000
1,795825	-0,553541	127,563	-0,080088	94,160000	0,000000
1,798799	-0,481289	128,016	-0,080058	94,240000	0,000000
1,801821	-0,269196	128,467	-0,079969	94,240000	0,000000
1,804768	-0,474297	128,919	-0,080055	94,240000	0,000000
1,807806	-0,355431	129,370	-0,080005	94,240000	0,000000
1,810773	-0,481289	129,821	-0,080058	94,210000	0,000000
1,813776	-0,442833	130,271	-0,080042	94,210000	0,000000
1,816764	-0,457982	130,721	-0,080048	94,210000	0,000000
1,819770	-0,213259	131,171	-0,079945	94,210000	0,000000
1,822797	-0,426518	131,622	-0,080035	94,210000	0,000000
1,825784	-0,505761	132,073	-0,080068	94,210000	0,000000
1,828837	-0,529068	132,524	-0,080078	94,210000	0,000000
1,831775	-0,576848	132,975	-0,080098	94,210000	0,000000
1,834798	-0,742327	133,426	-0,080167	94,210000	0,000000
1,837805	-0,608312	133,876	-0,080111	94,180000	0,000000
1,840790	-0,505761	134,326	-0,080068	94,180000	0,000000
1,843803	-0,836721	134,777	-0,080207	94,180000	0,000000
1,846795	-0,623462	135,228	-0,080117	94,180000	0,000000
1,849748	-0,410203	135,679	-0,080028	94,180000	0,000000
1,852783	-0,765634	136,129	-0,080177	94,180000	0,000000
1,855781	-0,726012	136,581	-0,080160	94,180000	0,000000
1,858744	-0,647934	137,031	-0,080127	94,180000	0,000000
1,861765	-0,924122	137,481	-0,080243	94,180000	0,000000
1,864729	-0,520911	137,932	-0,080074	94,180000	0,000000
1,867792	-0,955586	138,383	-0,080256	94,180000	0,000000
1,870785	-0,924122	138,835	-0,080243	94,180000	0,000000
1,873765	-64,984524	139,285	-0,107084	94,180000	0,000000
1,876799	-61,265895	139,738	-0,105526	94,180000	0,000000
1,879804	-59,450282	140,189	-0,104766	94,160000	0,000000
1,882802	-55,795747	140,640	-0,103234	94,160000	0,000000
1,885761	-52,606187	141,090	-0,101898	94,160000	0,000000
1,888774	-49,614736	141,540	-0,100645	94,160000	0,000000
1,891833	-47,617327	141,990	-0,099808	94,160000	0,000000
1,894784	-44,333374	142,441	-0,098432	94,160000	0,000000
1,897800	-41,593638	142,891	-0,097284	94,160000	0,000000
1,900789	-38,317842	143,342	-0,095911	94,160000	0,000000
1,903793	-34,820629	143,792	-0,094446	94,120000	0,000000
1,906804	-31,498219	144,244	-0,093054	94,120000	0,000000
1,909753	-28,292344	144,694	-0,091710	94,120000	0,000000
1,912745	-26,769233	145,144	-0,091072	94,120000	0,000000
1,915768	-23,334949	145,594	-0,089633	94,120000	0,000000
1,918794	-19,648950	146,044	-0,088089	94,210000	0,000000
1,921762	-17,588613	146,494	-0,087226	94,210000	0,000000
1,924762	-13,641576	146,945	-0,085572	94,210000	0,000000
1,927792	-11,312043	147,396	-0,084596	94,210000	0,000000
1,930765	-7,578265	147,847	-0,083031	94,230000	0,000000
1,933798	-4,776766	148,299	-0,081857	94,230000	0,000000
1,936754	-2,376147	148,750	-0,080852	94,230000	0,000000
1,939744	1,468340	149,202	-0,079241	94,230000	0,000000
1,942811	3,781558	149,653	-0,078271	94,230000	0,000000
1,945733	6,291719	150,104	-0,077220	94,180000	0,000000
1,948765	9,645594	150,556	-0,075814	94,180000	0,000000
1,951767	13,309451	151,007	-0,074279	94,180000	0,000000
1,954791	15,598197	151,458	-0,073320	94,180000	0,000000
1,957784	19,126874	151,909	-0,071842	94,180000	0,000000
1,960744	22,331584	152,359	-0,070499	94,180000	0,000000
1,963756	25,276421	152,810	-0,069265	94,180000	0,000000
1,966708	28,355273	153,261	-0,067975	94,180000	0,000000
1,969739	31,417810	153,712	-0,066692	94,180000	0,000000
1,972737	34,377797	154,164	-0,065452	94,240000	0,000000
1,975753	36,652558	154,614	-0,064499	94,240000	0,000000
1,978815	39,809489	155,064	-0,063176	94,240000	0,000000
1,981805	43,425567	155,516	-0,061661	94,240000	0,000000
1,984732	45,034914	155,968	-0,060986	94,210000	0,000000
1,987771	48,422584	156,419	-0,059567	94,210000	0,000000
1,990812	51,185626	156,869	-0,058409	94,210000	0,000000
1,993750	54,223691	157,320	-0,057136	94,210000	0,000000
1,996789	58,258129	157,771	-0,055446	94,210000	0,000000
1,999781	60,397710	158,222	-0,054549	94,210000	0,000000
2,002733	62,978958	158,673	-0,053468	94,210000	0,000000
2,005773	66,436549	159,125	-0,052019	94,210000	0,000000
2,008751	69,183277	159,576	-0,050868	94,210000	0,000000
2,011763	72,554632	160,026	-0,049456	94,150000	0,000000
2,014805	75,230273	160,476	-0,048334	94,150000	0,000000
2,017769	78,254354	160,926	-0,047067	94,150000	0,000000
2,020758	80,984767	161,376	-0,045923	94,150000	0,000000
2,023744	84,766324	161,826	-0,044339	94,210000	0,000000
2,026783	86,889590	162,277	-0,043449	94,210000	0,000000
2,029802	90,016222	162,728	-0,042139	94,210000	0,000000
2,032725	93,695229	163,179	-0,040598	94,210000	0,000000
2,035728	96,094682	163,630	-0,039592	94,210000	0,000000
2,038773	99,859925	164,080	-0,038015	94,260000	0,000000
2,041779	101,849176	164,532	-0,037181	94,260000	0,000000
2,044749	105,645883	164,984	-0,035590	94,260000	0,000000
2,047762	108,235289	165,436	-0,034505	94,260000	0,000000
2,050745	111,922453	165,887	-0,032960	94,180000	0,000000
2,053784	113,792838	166,337	-0,032177	94,180000	0,000000
2,056793	116,382244	166,788	-0,031092	94,180000	0,000000
2,059736	120,463296	167,239	-0,029382	94,180000	0,000000
2,062754	123,723943	167,689	-0,028016	94,180000	0,000000
2,065734	126,573221	168,139	-0,026822	94,180000	0,000000
2,068759	129,770939	168,590	-0,025482	94,180000	0,000000
2,071779	132,036378	169,041	-0,024533	94,180000	0,000000
2,072725	133,504717	169,492	-0,023917	94,180000	0,000000
2,072732	133,701661	169,944	-0,023835	94,210000	0,000000
2,071804	133,094514	170,394	-0,024089	94,210000	0,000000
2,068742	130,172984	170,846	-0,025313	94,210000	0,000000
2,065771	127,118605	171,296	-0,026593	94,210000	0,000000
2,062777	123,274118	171,749	-0,028204	94,210000	0,000000
2,059783	120,597311	172,200	-0,029326	94,210000	0,000000
2,056763	118,221165	172,650	-0,030321	94,210000	0,000000
2,053851	114,376678	173,100	-0,031932	94,210000	0,000000
2,050744	111,163811	173,550	-0,033278	94,210000	0,000000
2,047764	108,741050	174,000	-0,034293	94,210000	0,000000
2,044743	106,057251	174,451	-0,035418	94,210000	0,000000
2,041784	102,986557	174,901	-0,036705	94,210000	0,000000
2,038791	99,742225	175,351	-0,038064	94,210000	0,000000
2,035817	96,883624	175,801	-0,039262	94,180000	0,000000
2,032839	93,339797	176,251	-0,040747	94,180000	0,000000
2,029770	90,528975	176,702	-0,041924	94,180000	0,000000
2,026730	87,127321	177,153	-0,043350	94,180000	0,000000
2,023786	83,827053	177,604	-0,044732	94,180000	0,000000
2,020765	80,812295	178,054	-0,045996	94,170000	0,000000
2,017783	78,821879	178,505	-0,046830	94,170000	0,000000
2,014777	75,577547	178,957	-0,048189	94,170000	0,000000
2,011795	72,665340	179,409	-0,049409	94,170000	0,000000
2,008793	68,938553	179,861	-0,050971	94,100000	0,000000
2,005805	65,662757	180,313	-0,052343	94,100000	0,000000
2,002749	64,209567	180,765	-0,052952	94,100000	0,000000
1,999739	60,397710	181,215	-0,054549	94,100000	0,000000
1,996793	57,571739	181,667	-0,055733	94,100000	0,000000
1,993731	54,618744	182,118	-0,056971	94,260000	0,000000
1,990760	51,706537	182,570	-0,058191	94,260000	0,000000
1,987781	49,163746	183,020	-0,059256	94,260000	0,000000
1,984771	45,658376	183,470	-0,060725	94,260000	0,000000
1,981755	42,422201	183,920	-0,062081	94,200000	0,000000
1,978776	39,059004	184,370	-0,063490	94,200000	0,000000
1,975768	35,475556	184,821	-0,064992	94,200000	0,000000
1,972756	33,580698	185,272	-0,065786	94,200000	0,000000
1,969766	29,460024	185,724	-0,067512	94,200000	0,000000
1,966822	27,376380	186,175	-0,068385	94,200000	0,000000
1,963788	23,563358	186,625	-0,069983	94,200000	0,000000
1,960772	21,463399	187,076	-0,070863	94,200000	0,000000
1,957773	17,737778	187,527	-0,072424	94,200000	0,000000
1,954756	15,905849	187,980	-0,073191	94,250000	0,000000
1,951812	12,820005	188,431	-0,074484	94,250000	0,000000
1,948810	8,888117	188,883	-0,076132	94,250000	0,000000
1,945773	6,543435	189,334	-0,077114	94,250000	0,000000
1,942796	2,644177	189,784	-0,078748	94,250000	0,000000
1,939778	-0,545383	190,235	-0,080084	94,210000	0,000000
1,936798	-2,850444	190,686	-0,081050	94,210000	0,000000
1,933788	-6,552758	191,137	-0,082602	94,210000	0,000000
1,930800	-8,983676	191,588	-0,083620	94,210000	0,000000
1,927734	-11,493838	192,038	-0,084672	94,210000	0,000000
1,924730	-14,714862	192,489	-0,086021	94,210000	0,000000
1,921787	-17,674849	192,939	-0,087262	94,210000	0,000000
1,918798	-20,698930	193,390	-0,088529	94,210000	0,000000
1,915772	-23,895482	193,843	-0,089868	94,130000	0,000000
1,912761	-26,430116	194,294	-0,090930	94,130000	0,000000
1,909808	-30,100966	194,744	-0,092468	94,130000	0,000000
1,906825	-32,484105	195,196	-0,093467	94,130000	0,000000
1,903778	-35,547807	195,646	-0,094750	94,130000	0,000000
1,900817	-38,799131	196,097	-0,096113	94,130000	0,000000
1,897792	-42,865034	196,548	-0,097816	94,130000	0,000000
1,894764	-45,517368	196,998	-0,098928	94,130000	0,000000
1,891760	-47,799122	197,449	-0,099884	94,130000	0,000000
1,888766	-50,498070	197,900	-0,101015	94,160000	0,000000
1,885765	-53,798339	198,351	-0,102397	94,160000	0,000000
1,882807	-57,130072	198,802	-0,103793	94,160000	0,000000
1,879769	-60,761299	199,252	-0,105315	94,160000	0,000000
1,876823	-63,294768	199,702	-0,106376	94,160000	0,000000
1,873802	-65,797938	200,152	-0,107425	94,260000	0,000000
1,870721	-68,987498	200,604	-0,108762	94,260000	0,000000
1,867788	-71,638667	201,054	-0,109873	94,260000	0,000000
1,864757	-74,851535	201,505	-0,111219	94,260000	0,000000
1,861819	-78,285818	201,955	-0,112658	94,290000	0,000000
1,858781	-80,875224	202,406	-0,113743	94,290000	0,000000
1,855706	-84,040312	202,856	-0,115069	94,290000	0,000000
1,852835	-86,819669	203,306	-0,116233	94,290000	0,000000
1,849779	-89,740034	203,757	-0,117457	94,290000	0,000000
1,846765	-93,663764	204,208	-0,119101	94,290000	0,000000
1,843800	-95,912888	204,659	-0,120043	94,290000	0,000000
1,840837	-99,757374	205,109	-0,121654	94,290000	0,000000
1,837766	-102,662589	205,559	-0,122872	94,290000	0,000000
1,834780	-104,881414	206,009	-0,123801	94,240000	0,000000
1,831781	-107,787795	206,461	-0,125019	94,240000	0,000000
1,828788	-111,449321	206,914	-0,126553	94,240000	0,000000
1,825788	-113,951326	207,366	-0,127602	94,240000	0,000000
1,822790	-116,572196	207,817	-0,128700	94,180000	0,000000
1,819813	-119,935393	208,267	-0,130109	94,180000	0,000000
1,816811	-123,708793	208,717	-0,131690	94,180000	0,000000
1,813821	-125,823902	209,168	-0,132576	94,180000	0,000000
1,810785	-129,044927	209,619	-0,133926	94,180000	0,000000
1,807769	-132,044535	210,071	-0,135183	94,180000	0,000000
1,804782	-134,847199	210,521	-0,136357	94,180000	0,000000
1,801792	-138,802394	210,971	-0,138014	94,180000	0,000000
1,798843	-141,975640	211,423	-0,139344	94,180000	0,000000
1,795798	-143,933426	211,874	-0,140164	94,210000	0,000000
1,792848	-147,991171	212,324	-0,141864	94,210000	0,000000
1,789715	-149,988580	212,774	-0,142701	94,210000	0,000000
1,786788	-153,895995	213,226	-0,144338	94,210000	0,000000
1,783804	-157,100705	213,678	-0,145681	94,210000	0,000000
1,780770	-158,813768	214,129	-0,146399	94,210000	0,000000
1,777814	-162,208430	214,580	-0,147821	94,210000	0,000000
1,774799	-165,302431	215,030	-0,149118	94,210000	0,000000
1,771794	-168,128403	215,481	-0,150302	94,210000	0,000000
1,768762	-171,144326	215,932	-0,151565	94,230000	0,000000
1,765765	-174,223178	216,383	-0,152855	94,230000	0,000000
1,762833	-176,986221	216,834	-0,154013	94,230000	0,000000
1,759764	-180,640756	217,285	-0,155544	94,230000	0,000000
1,756808	-183,167232	217,736	-0,156603	94,230000	0,000000
1,753785	-186,782145	218,186	-0,158118	94,210000	0,000000
1,750810	-188,929883	218,638	-0,159018	94,210000	0,000000
1,747783	-192,490025	219,088	-0,160509	94,210000	0,000000
1,744857	-196,104937	219,539	-0,162024	94,210000	0,000000
1,741830	-198,181589	219,990	-0,162894	94,210000	0,000000
1,738786	-201,023876	220,441	-0,164085	94,210000	0,000000
1,735765	-204,141184	220,892	-0,165391	94,210000	0,000000
1,732849	-207,282965	221,342	-0,166708	94,210000	0,000000
1,729767	-210,014544	221,793	-0,167852	94,210000	0,000000
1,726835	-213,716857	222,244	-0,169403	94,210000	0,000000
1,723770	-215,982296	222,694	-0,170353	94,210000	0,000000
1,720825	-219,502815	223,146	-0,171828	94,210000	0,000000
1,717841	-222,045607	223,597	-0,172893	94,210000	0,000000
1,714812	-225,423954	224,048	-0,174309	94,160000	0,000000
1,711750	-229,323212	224,498	-0,175942	94,160000	0,000000
1,708756	-232,205120	224,948	-0,177150	94,160000	0,000000
1,705759	-235,125485	225,399	-0,178374	94,160000	0,000000
1,702802	-237,438703	225,849	-0,179343	94,160000	0,000000
1,699777	-241,417204	226,300	-0,181010	94,160000	0,000000
1,696770	-243,249133	226,750	-0,181777	94,160000	0,000000
1,693794	-246,935132	227,201	-0,183322	94,160000	0,000000
1,690786	-249,792568	227,651	-0,184519	94,160000	0,000000
1,687790	-252,950664	228,102	-0,185842	94,180000	0,000000
1,684853	-255,973579	228,553	-0,187109	94,180000	0,000000
1,681803	-258,382356	229,003	-0,188118	94,180000	0,000000
1,678803	-261,216485	229,454	-0,189306	94,180000	0,000000
1,675810	-264,112377	229,904	-0,190519	94,160000	0,000000
1,672822	-267,996485	230,354	-0,192146	94,160000	0,000000
1,669789	-270,254932	230,804	-0,193093	94,160000	0,000000
1,666781	-273,996868	231,254	-0,194661	94,160000	0,000000
1,663772	-276,254149	231,704	-0,195606	94,160000	0,000000
1,660830	-278,858704	232,154	-0,196698	94,320000	0,000000
1,657747	-282,238216	232,605	-0,198114	94,320000	0,000000
1,654787	-285,056030	233,056	-0,199294	94,320000	0,000000
1,651838	-287,921623	233,508	-0,200495	94,320000	0,000000
1,648788	-291,852346	233,958	-0,202142	94,150000	0,000000
1,645777	-294,125942	234,408	-0,203095	94,150000	0,000000
1,642786	-297,449517	234,858	-0,204487	94,150000	0,000000
1,639784	-300,827864	235,308	-0,205903	94,150000	0,000000
1,636769	-303,868260	235,758	-0,207177	94,150000	0,000000
1,633783	-305,738645	236,208	-0,207960	94,180000	0,000000
1,630789	-309,338408	236,659	-0,209469	94,180000	0,000000
1,627790	-312,582740	237,111	-0,210828	94,180000	0,000000
1,624755	-315,069595	237,561	-0,211870	94,180000	0,000000
1,621831	-317,943345	238,011	-0,213074	94,180000	0,000000
1,618826	-321,045505	238,461	-0,214374	94,180000	0,000000
1,615863	-324,747818	238,912	-0,215925	94,180000	0,000000
1,612790	-327,155430	239,363	-0,216934	94,180000	0,000000
1,609818	-330,146881	239,814	-0,218188	94,260000	0,000000
1,606827	-333,052096	240,264	-0,219405	94,260000	0,000000
1,603779	-336,193877	240,716	-0,220721	94,260000	0,000000
1,600819	-340,038363	241,167	-0,222332	94,260000	0,000000
1,597795	-342,249030	241,618	-0,223258	94,260000	0,000000
1,594787	-344,916514	242,069	-0,224376	94,240000	0,000000
1,591820	-347,735494	242,520	-0,225557	94,240000	0,000000
1,588796	-351,595130	242,970	-0,227174	94,240000	0,000000
1,585832	-354,144913	243,420	-0,228243	94,240000	0,000000
1,582833	-357,168994	243,871	-0,229510	94,130000	0,000000
1,579808	-360,476255	244,324	-0,230896	94,130000	0,000000
1,576819	-362,686922	244,775	-0,231822	94,130000	0,000000
1,573755	-366,688731	245,226	-0,233499	94,130000	0,000000
1,570809	-368,693131	245,676	-0,234338	94,130000	0,000000
1,567869	-372,095950	246,126	-0,235764	94,130000	0,000000
1,564849	-375,048945	246,576	-0,237001	94,130000	0,000000
1,561824	-378,190726	247,028	-0,238318	94,130000	0,000000
1,558800	-380,882682	247,479	-0,239446	94,130000	0,000000
1,555854	-384,403201	247,929	-0,240921	94,210000	0,000000
1,552817	-387,662683	248,380	-0,242287	94,210000	0,000000
1,549879	-389,881507	248,830	-0,243216	94,210000	0,000000
1,546794	-392,565306	249,282	-0,244341	94,210000	0,000000
1,543802	-395,913354	249,732	-0,245744	94,210000	0,000000
1,540799	-399,007356	250,184	-0,247040	94,210000	0,000000
1,537809	-401,557139	250,635	-0,248108	94,210000	0,000000
1,534825	-404,841093	251,086	-0,249484	94,210000	0,000000
1,531835	-407,832544	251,537	-0,250738	94,210000	0,000000
1,528800	-410,611901	251,987	-0,251902	94,210000	0,000000
1,525833	-414,858433	252,437	-0,253682	94,210000	0,000000
1,522811	-416,508568	252,889	-0,254373	94,210000	0,000000
1,519772	-420,376361	253,339	-0,255994	94,210000	0,000000
1,516833	-422,460005	253,790	-0,256867	94,210000	0,000000
1,513786	-426,289342	254,240	-0,258471	94,240000	0,000000
1,510824	-429,297108	254,690	-0,259731	94,240000	0,000000
1,507806	-431,696562	255,142	-0,260737	94,240000	0,000000
1,504828	-435,352262	255,592	-0,262269	94,240000	0,000000
1,501800	-437,498835	256,042	-0,263168	94,240000	0,000000
1,498816	-441,090440	256,494	-0,264673	94,240000	0,000000
1,495814	-443,458430	256,945	-0,265665	94,240000	0,000000
1,492776	-447,192208	257,396	-0,267229	94,240000	0,000000
1,489866	-449,497268	257,846	-0,268195	94,210000	0,000000
1,486807	-452,190390	258,299	-0,269324	94,210000	0,000000
1,483824	-455,150377	258,751	-0,270564	94,210000	0,000000
1,480838	-458,070741	259,202	-0,271788	94,210000	0,000000
1,477791	-461,473561	259,652	-0,273213	94,210000	0,000000
1,474791	-464,393925	260,104	-0,274437	94,180000	0,000000
1,471854	-467,362069	260,554	-0,275681	94,180000	0,000000
1,468769	-470,093647	261,005	-0,276825	94,180000	0,000000
1,465812	-474,001063	261,456	-0,278462	94,180000	0,000000
1,462820	-476,408674	261,906	-0,279471	94,180000	0,000000
1,459766	-479,803336	262,357	-0,280894	94,180000	0,000000
1,456796	-482,960266	262,809	-0,282216	94,180000	0,000000
1,453832	-485,321263	263,260	-0,283206	94,180000	0,000000
1,450776	-488,257943	263,712	-0,284436	94,180000	0,000000
1,447765	-491,320480	264,164	-0,285719	94,200000	0,000000
1,444830	-493,980972	264,614	-0,286834	94,200000	0,000000
1,441832	-496,909494	265,065	-0,288061	94,200000	0,000000
1,438760	-500,249385	265,516	-0,289460	94,200000	0,000000
1,435827	-503,966848	265,967	-0,291018	94,170000	0,000000
1,432817	-506,342995	266,420	-0,292014	94,170000	0,000000
1,429795	-510,101246	266,870	-0,293588	94,170000	0,000000
1,426832	-512,011253	267,320	-0,294389	94,170000	0,000000
1,423825	-515,832432	267,771	-0,295990	94,170000	0,000000
1,420833	-518,957898	268,222	-0,297299	94,240000	0,000000
1,417835	-521,081164	268,673	-0,298189	94,240000	0,000000
1,414822	-525,059666	269,123	-0,299856	94,240000	0,000000
1,411788	-527,088539	269,574	-0,300706	94,240000	0,000000
1,408865	-529,922667	270,027	-0,301894	94,170000	0,000000
1,405801	-533,222936	270,478	-0,303276	94,170000	0,000000
1,402841	-535,567618	270,930	-0,304259	94,170000	0,000000
1,399752	-538,874879	271,380	-0,305645	94,170000	0,000000
1,396781	-541,724157	271,831	-0,306838	94,280000	0,000000
1,393799	-544,589751	272,281	-0,308039	94,280000	0,000000
1,390820	-548,482016	272,733	-0,309670	94,280000	0,000000
1,387826	-551,623797	273,184	-0,310986	94,280000	0,000000
1,384852	-553,809992	273,634	-0,311902	94,280000	0,000000
1,381803	-556,194296	274,084	-0,312901	94,210000	0,000000
1,378836	-559,541179	274,536	-0,314304	94,210000	0,000000
1,375783	-562,241293	274,987	-0,315435	94,210000	0,000000
1,372855	-565,414538	275,437	-0,316765	94,210000	0,000000
1,369789	-568,493390	275,887	-0,318055	94,210000	0,000000
1,366812	-571,484841	276,338	-0,319308	94,210000	0,000000
1,363793	-575,360792	276,789	-0,320932	94,210000	0,000000
1,360791	-578,290480	277,240	-0,322160	94,210000	0,000000
1,357804	-580,895035	277,691	-0,323251	94,210000	0,000000
1,354800	-583,200095	278,142	-0,324217	94,230000	0,000000
1,351827	-586,350034	278,594	-0,325537	94,230000	0,000000
1,348794	-590,368157	279,046	-0,327220	94,230000	0,000000
1,345819	-592,451801	279,497	-0,328093	94,230000	0,000000
1,342807	-595,380323	279,948	-0,329320	94,230000	0,000000
1,339821	-597,850863	280,398	-0,330355	94,230000	0,000000
1,336828	-601,427320	280,848	-0,331854	94,230000	0,000000
1,333793	-604,095969	281,300	-0,332972	94,230000	0,000000
1,330811	-607,095577	281,750	-0,334229	94,230000	0,000000
1,327801	-610,956379	282,200	-0,335847	94,250000	0,000000
1,324739	-612,795299	282,650	-0,336617	94,250000	0,000000
1,321851	-616,592007	283,102	-0,338208	94,250000	0,000000
1,318857	-620,191770	283,553	-0,339716	94,250000	0,000000
1,315825	-622,078470	284,005	-0,340507	94,290000	0,000000
1,312824	-625,883335	284,456	-0,342101	94,290000	0,000000
1,309811	-628,094002	284,906	-0,343027	94,290000	0,000000
1,306848	-631,654143	285,357	-0,344519	94,290000	0,000000
1,303835	-633,762259	285,807	-0,345402	94,290000	0,000000
1,300779	-636,603380	286,258	-0,346593	94,290000	0,000000
1,297840	-639,769634	286,708	-0,347919	94,290000	0,000000
1,294849	-643,510404	287,159	-0,349487	94,290000	0,000000
1,291838	-645,610363	287,609	-0,350367	94,290000	0,000000
1,288836	-649,036489	288,059	-0,351802	94,160000	0,000000
1,285777	-652,494080	288,510	-0,353251	94,160000	0,000000
1,282814	-654,918006	288,961	-0,354267	94,160000	0,000000
1,279834	-658,249739	289,414	-0,355663	94,160000	0,000000
1,276837	-660,270454	289,864	-0,356509	94,260000	0,000000
1,273862	-664,248956	290,316	-0,358176	94,260000	0,000000
1,270797	-666,253356	290,768	-0,359016	94,260000	0,000000
1,267832	-669,593247	291,218	-0,360416	94,260000	0,000000
1,264783	-672,404068	291,669	-0,361593	94,260000	0,000000
1,261843	-675,435141	292,120	-0,362863	94,210000	0,000000
1,258756	-679,311092	292,571	-0,364487	94,210000	0,000000
1,255852	-682,231457	293,022	-0,365711	94,210000	0,000000
1,252807	-685,002657	293,474	-0,366872	94,210000	0,000000
1,249822	-686,991908	293,924	-0,367706	94,230000	0,000000
1,246825	-689,738636	294,376	-0,368856	94,230000	0,000000
1,243858	-693,227691	294,827	-0,370318	94,230000	0,000000
1,240869	-696,093284	295,280	-0,371519	94,230000	0,000000
1,237854	-698,887791	295,731	-0,372690	94,230000	0,000000
1,234828	-701,847777	296,183	-0,373930	94,240000	0,000000
1,231782	-705,708579	296,635	-0,375548	94,240000	0,000000
1,228852	-707,965860	297,086	-0,376494	94,240000	0,000000
1,225810	-711,313908	297,537	-0,377896	94,240000	0,000000
1,222906	-714,834427	297,988	-0,379372	94,230000	0,000000
1,219845	-717,020622	298,439	-0,380288	94,230000	0,000000
1,216815	-719,689271	298,890	-0,381406	94,230000	0,000000
1,213843	-722,672565	299,340	-0,382656	94,230000	0,000000
1,210817	-726,296800	299,791	-0,384174	94,230000	0,000000
1,207812	-728,988757	300,241	-0,385302	94,180000	0,000000
1,204862	-731,348589	300,691	-0,386291	94,180000	0,000000
1,201796	-734,032387	301,141	-0,387416	94,180000	0,000000
1,198812	-737,956118	301,591	-0,389060	94,180000	0,000000
1,195792	-741,445173	302,042	-0,390521	94,180000	0,000000
1,192798	-743,411116	302,494	-0,391345	94,180000	0,000000
1,189825	-747,231131	302,945	-0,392946	94,180000	0,000000
1,186816	-749,425483	303,395	-0,393865	94,180000	0,000000
1,183777	-752,014888	303,845	-0,394950	94,240000	0,000000
1,180841	-754,896797	304,296	-0,396158	94,240000	0,000000
1,177821	-758,992999	304,746	-0,397874	94,240000	0,000000
1,174826	-761,724577	305,197	-0,399019	94,240000	0,000000
1,171790	-764,732343	305,649	-0,400279	94,240000	0,000000
1,168808	-766,832302	306,100	-0,401159	94,160000	0,000000
1,165815	-770,266585	306,550	-0,402598	94,160000	0,000000
1,162795	-773,653090	307,002	-0,404017	94,160000	0,000000
1,159821	-775,974465	307,452	-0,404989	94,160000	0,000000
1,156833	-778,704878	307,904	-0,406133	94,180000	0,000000
1,153848	-781,760423	308,354	-0,407414	94,180000	0,000000
1,150813	-785,541981	308,805	-0,408998	94,180000	0,000000
1,147855	-787,404208	309,257	-0,409778	94,180000	0,000000
1,144865	-790,633391	309,709	-0,411131	94,180000	0,000000
1,141835	-794,493027	310,159	-0,412749	94,210000	0,000000
1,138798	-797,113897	310,610	-0,413847	94,210000	0,000000
1,135816	-799,481886	311,061	-0,414839	94,210000	0,000000
1,132836	-803,382309	311,514	-0,416473	94,210000	0,000000
1,129898	-805,237545	311,965	-0,417250	94,210000	0,000000
1,126830	-809,113496	312,415	-0,418875	94,210000	0,000000
1,123769	-811,370777	312,868	-0,419820	94,210000	0,000000
1,120796	-814,141977	313,320	-0,420981	94,210000	0,000000
1,117829	-817,252293	313,770	-0,422285	94,210000	0,000000
1,114810	-820,369602	314,220	-0,423591	94,240000	0,000000
1,111796	-823,267825	314,670	-0,424805	94,240000	0,000000
1,108833	-826,985289	315,120	-0,426363	94,240000	0,000000
1,105848	-829,906819	315,571	-0,427587	94,240000	0,000000
1,102836	-832,147785	316,024	-0,428526	94,240000	0,000000
1,099851	-835,692777	316,476	-0,430011	94,240000	0,000000
1,096820	-837,878972	316,926	-0,430927	94,240000	0,000000
1,093798	-841,754922	317,376	-0,432551	94,240000	0,000000
1,090842	-843,997054	317,826	-0,433491	94,160000	0,000000
[...]
3,255273	1444,824219	535,483	0,526021	94,830000	0,000000
3,248301	1437,892723	536,535	0,523117	94,780000	0,000000
3,241285	1431,404059	537,587	0,520398	94,780000	0,000000
3,234302	1423,628850	538,639	0,517141	94,810000	0,000000
3,227317	1417,423367	539,690	0,514541	94,810000	0,000000
3,220241	1410,011747	540,741	0,511435	94,810000	0,000000
3,213276	1403,308659	541,791	0,508626	94,810000	0,000000
3,206282	1396,219841	542,844	0,505656	94,690000	0,000000
3,199311	1388,365388	543,897	0,502365	94,690000	0,000000
3,192271	1381,347656	544,950	0,499425	94,690000	0,000000
3,185323	1375,293668	546,000	0,496888	94,750000	0,000000
3,178277	1367,793482	547,052	0,493746	94,750000	0,000000
3,171320	1360,254839	548,103	0,490587	94,830000	0,000000
3,164275	1353,118241	549,153	0,487597	94,830000	0,000000
3,157296	1347,410361	550,204	0,485205	94,780000	0,000000
3,150313	1340,187528	551,256	0,482179	94,780000	0,000000
3,143352	1332,498555	552,308	0,478957	94,770000	0,000000
3,136315	1325,323501	553,361	0,475951	94,770000	0,000000
3,129318	1318,732287	554,413	0,473189	94,770000	0,000000
3,122264	1311,169171	555,463	0,470020	94,770000	0,000000
3,115289	1304,285455	556,514	0,467136	94,800000	0,000000
3,108341	1297,780476	557,566	0,464410	94,800000	0,000000
3,101282	1290,415470	558,619	0,461324	94,890000	0,000000
3,094321	1283,287030	559,671	0,458337	94,890000	0,000000
3,087310	1276,166747	560,721	0,455354	94,780000	0,000000
3,080344	1269,109394	561,771	0,452397	94,780000	0,000000
3,073324	1263,189420	562,826	0,449917	94,780000	0,000000
3,066259	1255,136859	563,878	0,446542	94,700000	0,000000
3,059301	1248,307913	564,930	0,443681	94,700000	0,000000
3,052278	1241,883344	565,981	0,440989	94,700000	0,000000
3,045321	1234,564952	567,035	0,437923	94,700000	0,000000
3,038380	1227,808258	568,086	0,435092	94,810000	0,000000
3,031325	1220,615724	569,138	0,432078	94,810000	0,000000
3,024330	1213,227411	570,190	0,428982	94,810000	0,000000
3,017304	1207,014935	571,242	0,426379	94,810000	0,000000
3,010319	1198,883129	572,293	0,422972	94,770000	0,000000
3,003281	1192,733583	573,343	0,420396	94,770000	0,000000
2,996318	1185,882496	574,394	0,417525	94,730000	0,000000
2,989294	1178,153901	575,449	0,414287	94,730000	0,000000
2,982347	1171,033618	576,503	0,411303	94,810000	0,000000
2,975292	1164,315381	577,553	0,408488	94,810000	0,000000
2,968296	1156,894438	578,604	0,405379	94,770000	0,000000
2,961308	1149,671605	579,656	0,402353	94,770000	0,000000
2,954317	1143,450971	580,706	0,399746	94,770000	0,000000
2,947295	1136,773521	581,758	0,396948	94,770000	0,000000
2,940360	1129,399193	582,811	0,393858	94,860000	0,000000
2,933326	1121,963100	583,862	0,390743	94,780000	0,000000
2,926326	1115,750625	584,914	0,388140	94,780000	0,000000
2,919318	1108,661806	585,965	0,385169	94,820000	0,000000
2,912312	1100,830661	587,017	0,381888	94,820000	0,000000
2,905355	1093,829244	588,070	0,378955	94,830000	0,000000
2,898306	1087,229872	589,121	0,376189	94,830000	0,000000
2,891342	1080,425399	590,171	0,373338	94,830000	0,000000
2,884290	1072,941527	591,222	0,370203	94,830000	0,000000
2,877296	1065,679072	592,273	0,367160	94,820000	0,000000
2,870320	1059,640233	593,326	0,364629	94,820000	0,000000
2,863344	1052,622501	594,378	0,361689	94,810000	0,000000
2,856302	1045,706155	595,428	0,358791	94,810000	0,000000
2,849311	1037,985717	596,478	0,355556	94,810000	0,000000
2,842318	1031,505211	597,531	0,352841	94,810000	0,000000
2,835344	1024,740360	598,581	0,350006	94,780000	0,000000
2,828379	1017,643385	599,633	0,347033	94,780000	0,000000
2,821306	1010,956612	600,685	0,344231	94,800000	0,000000
2,814326	1003,938880	601,738	0,341291	94,800000	0,000000
2,807313	996,124049	602,790	0,338016	94,780000	0,000000
2,800296	989,997809	603,842	0,335449	94,800000	0,000000
2,793302	982,758661	604,896	0,332416	94,800000	0,000000
2,786347	975,527670	605,948	0,329386	94,860000	0,000000
2,779424	968,723197	607,001	0,326535	94,860000	0,000000
2,772354	961,847638	608,052	0,323654	94,860000	0,000000
2,765343	954,948771	609,103	0,320764	94,860000	0,000000
2,758369	947,970661	610,156	0,317840	94,830000	0,000000
2,751347	941,022850	611,208	0,314929	94,830000	0,000000
2,744375	933,989969	612,258	0,311982	94,830000	0,000000
2,737383	926,758978	613,309	0,308952	94,830000	0,000000
2,730326	918,825282	614,362	0,305628	94,800000	0,000000
2,723353	912,809750	615,412	0,303107	94,800000	0,000000
2,716310	904,876053	616,462	0,299783	94,780000	0,000000
2,709352	897,826857	617,512	0,296830	94,780000	0,000000
2,702347	891,654003	618,563	0,294243	94,830000	0,000000
2,695339	883,829850	619,614	0,290965	94,830000	0,000000
2,688386	877,704775	620,666	0,288398	94,830000	0,000000
2,681357	869,896937	621,719	0,285127	94,830000	0,000000
2,674382	863,755547	622,771	0,282554	94,750000	0,000000
2,667364	856,287990	623,823	0,279425	94,750000	0,000000
2,660340	848,946291	624,874	0,276349	94,800000	0,000000
2,653282	842,046260	625,924	0,273458	94,800000	0,000000
2,646370	834,618325	626,977	0,270345	94,800000	0,000000
2,639328	827,759080	628,031	0,267471	94,800000	0,000000
2,632367	820,630640	629,083	0,264484	94,800000	0,000000
2,625391	813,967174	630,136	0,261692	94,820000	0,000000
2,618365	807,723234	631,187	0,259076	94,820000	0,000000
2,611342	799,615901	632,239	0,255679	94,820000	0,000000
2,604335	793,411583	633,292	0,253080	94,820000	0,000000
2,597379	786,590795	634,346	0,250222	94,820000	0,000000
2,590344	779,336497	635,397	0,247182	94,820000	0,000000
2,583371	772,507551	636,450	0,244321	94,810000	0,000000
2,576381	765,410576	637,504	0,241347	94,810000	0,000000
2,569340	757,351022	638,556	0,237970	94,780000	0,000000
2,562389	751,714228	639,608	0,235608	94,780000	0,000000
2,555352	744,681347	640,659	0,232662	94,810000	0,000000
2,548397	737,639143	641,711	0,229711	94,810000	0,000000
2,541399	729,792848	642,762	0,226423	94,860000	0,000000
2,534352	723,628151	643,814	0,223840	94,860000	0,000000
2,527362	716,688498	644,864	0,220933	94,780000	0,000000
2,520398	708,825888	645,914	0,217638	94,820000	0,000000
2,513405	702,637884	646,966	0,215045	94,820000	0,000000
2,506379	694,727495	648,018	0,211731	94,820000	0,000000
2,499423	688,688656	649,069	0,209201	94,820000	0,000000
2,492351	681,497287	650,121	0,206187	94,750000	0,000000
2,485354	673,808314	651,171	0,202966	94,750000	0,000000
2,478370	667,200785	652,222	0,200197	94,750000	0,000000
2,471392	659,772850	653,272	0,197085	94,750000	0,000000
2,464320	652,628095	654,327	0,194091	94,830000	0,000000
2,457388	646,534485	655,378	0,191538	94,830000	0,000000
2,450388	639,847712	656,430	0,188736	94,780000	0,000000
2,443352	632,861445	657,481	0,185809	94,780000	0,000000
2,436328	624,927748	658,534	0,182485	94,780000	0,000000
2,429334	618,794516	659,584	0,179915	94,780000	0,000000
2,422368	611,160315	660,634	0,176716	94,860000	0,000000
2,415413	603,953796	661,685	0,173697	94,860000	0,000000
2,408341	597,116693	662,739	0,170832	94,860000	0,000000
2,401384	590,075654	663,790	0,167882	94,860000	0,000000
2,394382	583,010143	664,843	0,164921	94,730000	0,000000
2,387337	576,774360	665,897	0,162309	94,830000	0,000000
2,380376	569,882486	666,950	0,159421	94,830000	0,000000
2,373339	563,015084	668,001	0,156543	94,830000	0,000000
2,366408	555,056916	669,052	0,153209	94,830000	0,000000
2,359403	548,789668	670,104	0,150583	94,820000	0,000000
2,352384	540,981830	671,155	0,147312	94,820000	0,000000
2,345410	535,195872	672,207	0,144887	94,860000	0,000000
2,338352	527,111846	673,262	0,141500	94,860000	0,000000
2,331407	520,173357	674,314	0,138593	94,770000	0,000000
2,324416	514,252219	675,366	0,136112	94,770000	0,000000
2,317415	507,085322	676,420	0,133109	94,770000	0,000000
2,310378	499,317105	677,473	0,129854	94,770000	0,000000
2,303423	492,914678	678,526	0,127171	94,810000	0,000000
2,296367	485,944725	679,578	0,124251	94,810000	0,000000
2,289354	479,211338	680,628	0,121430	94,810000	0,000000
2,282336	471,190241	681,678	0,118069	94,810000	0,000000
2,275417	464,346146	682,730	0,115201	94,810000	0,000000
2,268450	457,865640	683,782	0,112486	94,810000	0,000000
2,261378	451,446897	684,833	0,109796	94,810000	0,000000
2,254408	444,445480	685,884	0,106863	94,810000	0,000000
2,247390	436,905672	686,936	0,103704	94,810000	0,000000
2,240365	430,354080	687,988	0,100958	94,850000	0,000000
2,233356	422,223439	689,039	0,097552	94,850000	0,000000
2,226431	415,639217	690,090	0,094793	94,820000	0,000000
2,219367	409,758866	691,142	0,092329	94,820000	0,000000
2,212457	402,243530	692,194	0,089180	94,800000	0,000000
2,205398	395,652316	693,245	0,086418	94,800000	0,000000
2,198358	388,396853	694,296	0,083378	94,800000	0,000000
2,191339	380,732352	695,350	0,080167	94,800000	0,000000
2,184440	374,384696	696,401	0,077507	94,800000	0,000000
2,177393	367,603530	697,452	0,074666	94,800000	0,000000
2,170386	360,625420	698,503	0,071742	94,800000	0,000000
2,163392	352,755817	699,556	0,068445	94,800000	0,000000
2,156374	346,155280	700,607	0,065679	94,810000	0,000000
2,149425	338,593330	701,658	0,062511	94,810000	0,000000
2,142397	331,875093	702,710	0,059696	94,770000	0,000000
2,135380	324,723346	703,762	0,056699	94,770000	0,000000
2,128393	319,015467	704,813	0,054308	94,810000	0,000000
2,121396	311,903341	705,866	0,051328	94,800000	0,000000
2,114409	305,241041	706,921	0,048536	94,800000	0,000000
2,107356	297,219943	707,973	0,045175	94,810000	0,000000
2,100402	291,189262	709,025	0,042648	94,810000	0,000000
2,093397	283,437360	710,076	0,039400	94,770000	0,000000
2,086441	277,311120	711,129	0,036833	94,770000	0,000000
2,079413	270,261924	712,180	0,033880	94,770000	0,000000
2,072396	263,907276	713,232	0,031217	94,770000	0,000000
2,065377	256,502648	714,283	0,028115	94,810000	0,000000
2,058428	249,287972	715,336	0,025092	94,810000	0,000000
2,051418	242,798143	716,388	0,022373	94,810000	0,000000
2,044424	235,661545	717,439	0,019382	94,810000	0,000000
2,037384	227,917801	718,489	0,016138	94,860000	0,000000
2,030395	221,690176	719,540	0,013528	94,860000	0,000000
2,023367	214,095596	720,591	0,010346	94,780000	0,000000
2,016429	207,851656	721,642	0,007730	94,780000	0,000000
2,009371	199,997203	722,695	0,004439	94,800000	0,000000
2,002385	193,199722	723,746	0,001591	94,800000	0,000000
1,995377	186,426714	724,797	-0,001247	94,810000	0,000000
1,988384	179,463753	725,848	-0,004165	94,810000	0,000000
1,981400	171,814402	726,898	-0,007370	94,830000	0,000000
1,974409	165,420132	727,948	-0,010049	94,830000	0,000000
1,967426	158,852224	728,998	-0,012801	94,830000	0,000000
1,960353	151,487218	730,049	-0,015887	94,780000	0,000000
1,953381	144,990398	731,101	-0,018609	94,780000	0,000000
1,946372	138,162617	732,154	-0,021470	94,780000	0,000000
1,939352	130,157835	733,205	-0,024824	94,780000	0,000000
1,932410	123,242654	734,259	-0,027721	94,800000	0,000000
1,925394	117,022020	735,309	-0,030328	94,800000	0,000000
1,918376	109,333047	736,361	-0,033549	94,800000	0,000000
1,911358	103,167186	737,416	-0,036133	94,800000	0,000000
1,904357	96,347563	738,468	-0,038990	94,750000	0,000000
1,897392	88,761141	739,520	-0,042169	94,750000	0,000000
1,890390	81,293584	740,572	-0,045298	94,830000	0,000000
1,883375	75,577547	741,623	-0,047693	94,830000	0,000000
1,876349	67,857110	742,676	-0,050928	94,780000	0,000000
1,869331	60,475789	743,727	-0,054021	94,780000	0,000000
1,862420	53,648009	744,778	-0,056881	94,780000	0,000000
1,855327	47,103408	745,828	-0,059624	94,780000	0,000000
1,848383	40,464415	746,878	-0,062405	94,810000	0,000000
1,841405	32,728828	747,929	-0,065646	94,810000	0,000000
1,834442	26,989484	748,981	-0,068051	94,810000	0,000000
1,827365	19,632635	750,033	-0,071134	94,810000	0,000000
1,820404	12,677832	751,087	-0,074048	94,810000	0,000000
1,813366	4,712672	752,138	-0,077385	94,860000	0,000000
1,806398	-2,099959	753,189	-0,080240	94,860000	0,000000
1,799398	-8,975518	754,240	-0,083121	94,860000	0,000000
1,792385	-15,109916	755,291	-0,085691	94,860000	0,000000
1,785373	-22,016940	756,342	-0,088585	94,810000	0,000000
1,778399	-29,011364	757,393	-0,091516	94,810000	0,000000
1,771380	-36,550007	758,446	-0,094674	94,810000	0,000000
1,764376	-43,339331	759,498	-0,097519	94,810000	0,000000
1,757431	-49,843144	760,551	-0,100244	94,810000	0,000000
1,750434	-57,879391	761,601	-0,103611	94,810000	0,000000
1,743458	-63,934545	762,654	-0,106148	94,820000	0,000000
1,736399	-70,834576	763,706	-0,109040	94,820000	0,000000
1,729471	-78,570163	764,758	-0,112281	94,830000	0,000000
1,722358	-85,698603	765,812	-0,115268	94,830000	0,000000
1,715390	-91,990323	766,863	-0,117904	94,830000	0,000000
1,708343	-99,267928	767,914	-0,120953	94,810000	0,000000
1,701402	-105,448939	768,970	-0,123543	94,810000	0,000000
1,694399	-112,679930	770,022	-0,126573	94,780000	0,000000
1,687396	-120,361911	771,073	-0,129792	94,780000	0,000000
1,680387	-126,486985	772,123	-0,132358	94,860000	0,000000
1,673378	-133,805377	773,174	-0,135424	94,860000	0,000000
1,666383	-140,948967	774,228	-0,138417	94,810000	0,000000
1,659405	-146,924877	775,280	-0,140921	94,810000	0,000000
1,652404	-154,628999	776,332	-0,144149	94,810000	0,000000
1,645393	-161,545346	777,383	-0,147047	94,810000	0,000000
1,638420	-167,655271	778,436	-0,149607	94,830000	0,000000
1,631406	-175,296465	779,487	-0,152809	94,830000	0,000000
1,624413	-181,745506	780,539	-0,155511	94,830000	0,000000
1,617431	-189,032434	781,592	-0,158564	94,830000	0,000000
1,610426	-195,939458	782,646	-0,161458	94,780000	0,000000
1,603437	-202,436279	783,697	-0,164181	94,780000	0,000000
1,596416	-210,125252	784,751	-0,167402	94,800000	0,000000
1,589378	-217,948240	785,803	-0,170680	94,800000	0,000000
1,582417	-223,742355	786,853	-0,173108	94,800000	0,000000
1,575443	-231,226227	787,905	-0,176244	94,810000	0,000000
1,568399	-238,536461	788,959	-0,179307	94,810000	0,000000
1,561444	-245,064747	790,012	-0,182042	94,750000	0,000000
1,554383	-251,022011	791,064	-0,184538	94,750000	0,000000
1,547443	-258,618922	792,115	-0,187721	94,800000	0,000000
1,540449	-265,486323	793,166	-0,190599	94,800000	0,000000
1,533356	-273,482949	794,218	-0,193949	94,800000	0,000000
1,526381	-278,969412	795,271	-0,196248	94,800000	0,000000
1,519454	-287,005659	796,322	-0,199615	94,830000	0,000000
1,512441	-293,715739	797,377	-0,202427	94,830000	0,000000
1,505440	-301,421027	798,428	-0,205655	94,830000	0,000000
1,498385	-307,230292	799,479	-0,208089	94,830000	0,000000
1,491442	-314,697848	800,530	-0,211218	94,810000	0,000000
1,484458	-321,550101	801,582	-0,214089	94,810000	0,000000
1,477478	-328,528211	802,634	-0,217013	94,780000	0,000000
1,470422	-334,472656	803,684	-0,219504	94,780000	0,000000
1,463448	-341,523018	804,736	-0,222458	94,780000	0,000000
1,456446	-349,329691	805,789	-0,225729	94,780000	0,000000
1,449391	-355,527017	806,840	-0,228326	94,730000	0,000000
1,442404	-362,576214	807,894	-0,231279	94,730000	0,000000
1,435385	-369,949377	808,944	-0,234369	94,730000	0,000000
1,428440	-376,082609	809,996	-0,236938	94,770000	0,000000
1,421390	-383,305443	811,046	-0,239965	94,770000	0,000000
1,414454	-390,094766	812,096	-0,242810	94,770000	0,000000
1,407442	-397,459772	813,149	-0,245896	94,770000	0,000000
1,400437	-404,778164	814,200	-0,248962	94,860000	0,000000
1,393453	-411,637409	815,253	-0,251836	94,860000	0,000000
1,386443	-418,370795	816,306	-0,254657	94,860000	0,000000
1,379417	-424,624058	817,359	-0,257277	94,860000	0,000000
1,372455	-432,422574	818,412	-0,260545	94,860000	0,000000
1,365447	-438,572121	819,462	-0,263122	94,860000	0,000000
1,358417	-445,313665	820,513	-0,265946	94,860000	0,000000
1,351413	-452,433948	821,564	-0,268930	94,860000	0,000000
1,344442	-459,271051	822,614	-0,271794	94,860000	0,000000
1,337431	-467,165125	823,667	-0,275102	94,860000	0,000000
1,330421	-473,590860	824,718	-0,277794	94,750000	0,000000
1,323392	-480,987330	825,770	-0,280894	94,750000	0,000000
1,316410	-487,034327	826,820	-0,283427	94,830000	0,000000
1,309440	-493,585919	827,871	-0,286172	94,780000	0,000000
1,302391	-500,469636	828,922	-0,289057	94,780000	0,000000
1,295473	-508,064215	829,974	-0,292239	94,900000	0,000000
1,288472	-514,647272	831,030	-0,294997	94,900000	0,000000
1,281421	-522,683519	832,082	-0,298364	94,820000	0,000000
1,274448	-529,757188	833,135	-0,301328	94,820000	0,000000
1,267407	-536,325095	834,187	-0,304080	94,780000	0,000000
1,260428	-542,198454	835,238	-0,306541	94,780000	0,000000
1,253414	-550,628589	836,290	-0,310073	94,820000	0,000000
1,246402	-556,596342	837,344	-0,312574	94,820000	0,000000
1,239432	-563,764404	838,394	-0,315577	94,820000	0,000000
1,232425	-570,292689	839,445	-0,318312	94,820000	0,000000
1,225418	-576,442236	840,496	-0,320889	94,780000	0,000000
1,218392	-583,934265	841,547	-0,324028	94,780000	0,000000
1,211375	-591,213035	842,600	-0,327078	94,860000	0,000000
1,204426	-597,599148	843,651	-0,329754	94,860000	0,000000
1,197403	-605,682009	844,703	-0,333141	94,860000	0,000000
1,190482	-611,753477	845,753	-0,335685	94,860000	0,000000
1,183434	-619,346892	846,806	-0,338866	94,880000	0,000000
1,176374	-625,860028	847,856	-0,341595	94,880000	0,000000
1,169365	-631,827780	848,908	-0,344096	94,820000	0,000000
1,162439	-639,493446	849,958	-0,347308	94,820000	0,000000
1,155455	-646,155747	851,010	-0,350099	94,820000	0,000000
1,148455	-654,230450	852,061	-0,353482	94,830000	0,000000
1,141421	-659,741386	853,112	-0,355792	94,830000	0,000000
1,134424	-665,709138	854,163	-0,358292	94,860000	0,000000
1,127443	-673,058995	855,214	-0,361372	94,860000	0,000000
1,120420	-680,242206	856,270	-0,364381	94,860000	0,000000
1,113413	-687,054837	857,320	-0,367236	94,860000	0,000000
1,106451	-694,340599	858,373	-0,370289	94,820000	0,000000
1,099415	-702,677506	859,425	-0,373782	94,820000	0,000000
1,092425	-709,702230	860,478	-0,376725	94,780000	0,000000
1,085419	-715,307559	861,529	-0,379074	94,780000	0,000000
1,078442	-722,105040	862,583	-0,381922	94,810000	0,000000
1,071365	-729,619211	863,635	-0,385070	94,810000	0,000000
1,064454	-737,387427	864,688	-0,388325	94,850000	0,000000
1,057405	-742,992756	865,738	-0,390674	94,850000	0,000000
1,050475	-749,962709	866,788	-0,393594	94,820000	0,000000
1,043402	-755,898997	867,841	-0,396082	94,820000	0,000000
1,036427	-763,264003	868,891	-0,399167	94,820000	0,000000
1,029449	-770,440222	869,941	-0,402174	94,860000	0,000000
1,022437	-775,665647	870,996	-0,404364	94,860000	0,000000
1,015435	-784,436064	872,049	-0,408039	94,810000	0,000000
1,008458	-790,656697	873,101	-0,410645	94,810000	0,000000
1,001400	-796,979881	874,153	-0,413294	94,810000	0,000000
0,994459	-805,647748	875,204	-0,416926	94,810000	0,000000
0,987398	-812,010553	876,256	-0,419592	94,850000	0,000000
0,980426	-818,325580	877,309	-0,422238	94,850000	0,000000
0,973409	-825,320005	878,362	-0,425169	94,850000	0,000000
0,966424	-832,231690	879,413	-0,428065	94,850000	0,000000
0,959462	-838,140010	880,466	-0,430541	94,850000	0,000000
0,952424	-846,626081	881,519	-0,434096	94,850000	0,000000
0,945421	-852,530905	882,572	-0,436570	94,800000	0,000000
0,938419	-861,071748	883,626	-0,440149	94,800000	0,000000
0,931434	-866,298339	884,678	-0,442339	94,860000	0,000000
0,924415	-872,968797	885,731	-0,445134	94,860000	0,000000
0,917387	-881,067972	886,781	-0,448527	94,800000	0,000000
0,910463	-888,370050	887,834	-0,451587	94,800000	0,000000
0,903434	-894,567376	888,886	-0,454184	94,820000	0,000000
0,896403	-901,056039	889,939	-0,456902	94,820000	0,000000
0,889423	-909,155215	890,993	-0,460296	94,820000	0,000000
0,882423	-915,281455	892,045	-0,462863	94,800000	0,000000
0,875404	-920,609431	893,098	-0,465095	94,800000	0,000000
0,868433	-927,746028	894,150	-0,468085	94,860000	0,000000
0,861441	-0,512754	895,203	-0,079575	94,860000	0,000000
0,854466	-0,181794	896,256	-0,079436	94,830000	0,000000
0,847465	0,008157	897,309	-0,079356	94,830000	0,000000
0,840425	-0,102551	898,362	-0,079403	94,830000	0,000000
0,833490	-0,008157	899,414	-0,079363	94,830000	0,000000
0,826456	0,205101	900,466	-0,079274	94,850000	0,000000
0,819433	-0,110708	901,517	-0,079406	94,850000	0,000000
0,812443	-0,039622	902,569	-0,079376	94,830000	0,000000
0,810442	-0,236566	902,869	-0,079459	94,830000	0,000000