File: Nanoindentation Datenauswertung/data/array-partial unload
Quasi static measurement routine
Tip parameters (shape,radius, material...)
11.07.2022

Piezo position[nm]	MEMS displ.[nm]	Time[ms]	Cap [pf]
eoh

X-Pos [um]	Y-Pos [um]
0,000000	0,000000

POC
2,681934
2,385942	-0,427527	0,283	-0,103807
2,391936	-0,061879	0,446	-0,103648
2,397949	-0,793176	0,596	-0,103965
2,403933	-1,463719	0,746	-0,104256
2,409934	-1,342211	0,901	-0,104204
2,415978	-2,012754	1,052	-0,104495
2,421943	-2,744051	1,202	-0,104812
2,427941	-3,293086	1,353	-0,105050
2,433963	-3,842121	1,504	-0,105289
2,439993	-4,451910	1,654	-0,105553
2,445897	-4,634172	1,804	-0,105632
2,451947	-5,488101	1,954	-0,106003
2,457919	-5,671488	2,104	-0,106083
2,463941	-6,097890	2,254	-0,106268
2,469988	-6,768433	2,411	-0,106559
2,475979	-8,109519	2,562	-0,107141
2,481985	-9,024203	2,713	-0,107538
2,487981	-9,389851	2,871	-0,107696
2,494005	-9,633992	3,022	-0,107802
2,499996	-10,183027	3,172	-0,108041
2,505961	-10,365288	3,327	-0,108120
2,511974	-14,268163	3,479	-0,109813
2,517946	-14,450425	3,631	-0,109893
2,523953	-18,169913	3,782	-0,111507
2,529917	-17,865018	3,932	-0,111375
2,535946	-19,571753	4,090	-0,112115
2,541951	-20,120788	4,241	-0,112354
2,547965	-21,889401	4,395	-0,113121
2,553920	-21,706014	4,549	-0,113042
2,559972	-22,437311	4,700	-0,113359
2,565962	-24,266678	4,856	-0,114153
2,571995	-22,802959	5,006	-0,113518
2,577960	-19,632506	5,157	-0,112142
2,583980	-16,766948	5,307	-0,110898
2,589962	-13,719128	5,457	-0,109575
2,595927	-12,682937	5,613	-0,109125
2,601924	-9,268343	5,765	-0,107644
2,607954	-5,183207	5,916	-0,105871
2,613957	-3,232332	6,074	-0,105024
2,619952	-0,366773	6,224	-0,103780
2,625923	3,108574	6,374	-0,102272
2,631911	6,523167	6,536	-0,100790
2,637954	9,877007	6,686	-0,099334
2,643937	13,534616	6,848	-0,097747
2,649940	16,765823	6,999	-0,096345
2,655949	21,034346	7,149	-0,094492
2,661974	25,240990	7,300	-0,092667
2,667965	29,326127	7,450	-0,090894
2,673920	33,776912	7,602	-0,088962
2,679921	38,409958	7,753	-0,086951
2,685937	41,885306	7,903	-0,085443
2,691948	46,458723	8,054	-0,083458
2,697944	50,299719	8,206	-0,081791
2,703956	55,604434	8,357	-0,079489
2,709939	58,713008	8,508	-0,078140
2,715944	62,555129	8,659	-0,076472
2,721958	65,663702	8,809	-0,075123
2,727941	68,896034	8,961	-0,073720
2,733944	71,089925	9,112	-0,072768
2,739925	72,797784	9,262	-0,072027
2,745975	75,235815	9,413	-0,070969
2,751939	78,284760	9,563	-0,069646
2,757923	81,943494	9,714	-0,068058
2,763920	84,320772	9,865	-0,067026
2,769954	87,918752	10,016	-0,065464
2,775970	91,149959	10,166	-0,064062
2,781877	94,381165	10,318	-0,062660
2,781943	92,917447	10,470	-0,063295
2,781949	93,222341	10,621	-0,063163
2,781942	92,369537	10,771	-0,063533
2,781911	93,040080	10,936	-0,063242
2,781906	92,491044	11,087	-0,063480
2,781884	92,430291	11,249	-0,063506
2,781926	92,307658	11,401	-0,063560
2,781917	92,430291	11,551	-0,063506
2,781912	92,125396	11,703	-0,063639
2,781920	92,430291	11,854	-0,063506
2,781899	92,917447	12,006	-0,063295
2,781904	92,612552	12,159	-0,063427
2,781936	92,917447	12,310	-0,063295
2,781957	91,759748	12,460	-0,063797
2,781878	92,125396	12,610	-0,063639
2,781940	92,673306	12,776	-0,063401
2,781944	92,430291	12,926	-0,063506
2,781957	92,125396	13,076	-0,063639
2,781883	91,697869	13,230	-0,063824
2,781913	92,002763	13,381	-0,063692
2,781949	92,002763	13,531	-0,063692
2,781906	92,002763	13,682	-0,063692
2,781899	92,307658	13,832	-0,063560
2,781957	92,307658	13,992	-0,063560
2,781961	92,063517	14,143	-0,063666
2,781956	92,307658	14,293	-0,063560
2,781953	92,002763	14,444	-0,063692
2,781919	91,515607	14,596	-0,063903
2,781930	92,063517	14,746	-0,063666
2,781951	92,125396	14,903	-0,063639
2,781945	92,063517	15,054	-0,063666
2,781933	91,759748	15,207	-0,063797
2,781924	92,491044	15,359	-0,063480
2,777916	88,771556	15,510	-0,065094
2,771904	84,625666	15,662	-0,066894
2,765938	80,540530	15,812	-0,068667
2,759971	75,784850	15,962	-0,070730
2,753966	71,699714	16,113	-0,072503
2,747923	67,493070	16,264	-0,074329
2,741926	63,773582	16,416	-0,075943
2,735922	59,262043	16,567	-0,077901
2,729887	54,933891	16,720	-0,079780
2,723920	50,238965	16,870	-0,081817
2,717903	46,658986	17,022	-0,083371
2,711946	41,824552	17,173	-0,085469
2,705893	38,837486	17,323	-0,086766
2,699980	32,801474	17,473	-0,089385
2,693950	29,021232	17,623	-0,091026
2,687943	24,204799	17,776	-0,093116
2,681897	20,485311	17,927	-0,094730
2,685947	23,350869	18,061	-0,093487
2,691913	27,557514	18,211	-0,091661
2,697902	32,130931	18,362	-0,089676
2,703960	35,971927	18,514	-0,088009
2,709940	40,422712	18,664	-0,086078
2,715956	44,629356	18,815	-0,084252
2,721946	49,445790	18,965	-0,082162
2,727960	53,714313	19,116	-0,080309
2,733942	57,981711	19,267	-0,078457
2,739961	62,250234	19,418	-0,076604
2,745883	66,396124	19,570	-0,074805
2,751923	70,420507	19,720	-0,073059
2,757950	75,114307	19,872	-0,071021
2,763980	78,773041	20,024	-0,069434
2,769957	83,223826	20,176	-0,067502
2,775983	87,674611	20,326	-0,065570
2,781914	92,673306	20,490	-0,063401
2,787915	96,210532	20,640	-0,061866
2,793910	100,294544	20,801	-0,060093
2,799948	104,136665	20,952	-0,058426
2,805984	107,489379	21,102	-0,056971
2,811963	111,208867	21,280	-0,055356
2,817976	115,781160	21,431	-0,053372
2,823966	119,500648	21,582	-0,051758
2,829965	122,488839	21,732	-0,050461
2,835976	126,023816	21,882	-0,048927
2,841946	130,110077	22,060	-0,047153
2,847957	133,097143	22,211	-0,045857
2,854000	136,084209	22,361	-0,044561
2,859936	139,072401	22,517	-0,043264
2,865927	142,364361	22,668	-0,041835
2,871969	145,778955	22,819	-0,040353
2,877949	148,034724	22,970	-0,039374
2,883940	151,875720	23,121	-0,037707
2,889938	154,802032	23,297	-0,036437
2,895903	157,728345	23,447	-0,035167
2,901944	161,570466	23,597	-0,033500
2,907954	165,532969	23,752	-0,031780
2,913959	167,362336	23,902	-0,030986
2,919924	170,105262	24,052	-0,029795
2,925958	173,824750	24,202	-0,028181
2,931894	176,446168	24,352	-0,027043
2,937934	179,373605	24,534	-0,025773
2,943911	182,726319	24,686	-0,024318
2,949914	186,445808	24,836	-0,022704
2,955936	189,981909	24,988	-0,021169
2,961877	193,335748	25,139	-0,019713
2,967925	197,419760	25,310	-0,017941
2,973963	200,956986	25,461	-0,016406
2,979882	204,309701	25,642	-0,014951
2,985961	207,358646	25,792	-0,013627
2,991914	211,199642	25,944	-0,011960
2,997914	213,516165	26,100	-0,010955
3,003927	216,565110	26,251	-0,009632
3,009939	219,186528	26,403	-0,008494
3,015970	222,356981	26,553	-0,007118
3,021926	224,856891	26,704	-0,006033
3,027875	227,722449	26,865	-0,004790
3,033908	231,441937	27,016	-0,003175
3,039937	233,514320	27,169	-0,002276
3,045926	237,355316	27,326	-0,000609
3,051949	239,611085	27,478	0,000370
3,057893	242,172874	27,629	0,001482
3,063907	245,525589	27,780	0,002937
3,069924	249,366584	27,931	0,004604
3,075979	252,720424	28,086	0,006060
3,081913	255,402596	28,236	0,007224
3,087948	257,963260	28,387	0,008335
3,093858	260,584677	28,544	0,009473
3,099887	265,523744	28,694	0,011616
3,105865	268,572689	28,847	0,012939
3,111908	272,169544	28,997	0,014500
3,117909	275,461505	29,150	0,015929
3,123918	277,718399	29,302	0,016909
3,129939	279,425133	29,453	0,017649
3,135911	281,436762	29,604	0,018522
3,141887	284,485707	29,755	0,019846
3,147920	286,436582	29,906	0,020692
3,153892	287,900301	30,071	0,021328
3,159928	290,765859	30,222	0,022571
3,165915	294,423468	30,372	0,024159
3,171901	298,447851	30,523	0,025905
3,177899	301,800565	30,676	0,027360
3,181922	303,813319	30,839	0,028234
3,181926	303,385792	30,990	0,028048
3,181906	302,715249	31,142	0,027757
3,181902	303,082022	31,298	0,027917
3,181862	302,288846	31,448	0,027572
3,181905	302,593741	31,611	0,027705
3,181896	302,837882	31,762	0,027811
3,181893	302,959389	31,912	0,027863
3,181886	302,167339	32,076	0,027520
3,181877	302,167339	32,226	0,027520
3,181829	301,983952	32,376	0,027440
3,181909	302,593741	32,527	0,027705
3,181889	301,983952	32,678	0,027440
3,181889	302,472233	32,829	0,027652
3,181927	302,044706	32,979	0,027466
3,181912	302,044706	33,130	0,027466
3,181893	302,106585	33,284	0,027493
3,181906	302,349600	33,435	0,027599
3,181893	302,228093	33,587	0,027546
3,181872	302,288846	33,737	0,027572
3,181857	301,862444	33,890	0,027387
3,181865	301,983952	34,040	0,027440
3,181902	302,349600	34,191	0,027599
3,181890	302,044706	34,341	0,027466
3,181914	301,923198	34,491	0,027414
3,181928	301,739811	34,642	0,027334
3,181931	301,923198	34,792	0,027414
3,181935	301,739811	34,950	0,027334
3,181897	302,106585	35,102	0,027493
3,181900	301,983952	35,252	0,027440
3,181882	302,106585	35,402	0,027493
3,181890	302,410354	35,553	0,027625
3,181878	301,739811	35,711	0,027334
3,181910	301,923198	35,861	0,027414
3,175879	297,654675	36,012	0,025561
3,169893	293,203890	36,162	0,023629
3,163921	288,997246	36,313	0,021804
3,157915	284,607215	36,478	0,019898
3,151904	279,913414	36,628	0,017861
3,145925	275,279243	36,779	0,015850
3,139896	270,705825	36,930	0,013865
3,133926	266,743322	37,080	0,012146
3,127900	263,146466	37,230	0,010584
3,121919	258,877943	37,381	0,008732
3,115883	254,487912	37,531	0,006827
3,109878	250,707670	37,682	0,005186
3,103832	247,294202	37,833	0,003705
3,097939	241,563085	37,985	0,001217
3,091897	236,684773	38,136	-0,000900
3,085937	233,209425	38,288	-0,002408
3,079913	229,124289	38,439	-0,004181
3,073935	224,551996	38,590	-0,006166
3,067881	221,015895	38,740	-0,007700
3,061885	216,260216	38,891	-0,009764
3,055897	211,626044	39,041	-0,011775
3,049896	207,968435	39,191	-0,013363
3,043935	203,761791	39,343	-0,015188
3,037910	198,639338	39,495	-0,017412
3,031900	194,860221	39,666	-0,019052
3,025909	190,896592	39,818	-0,020772
3,019935	186,567315	39,969	-0,022651
3,013893	181,567495	40,133	-0,024821
3,007879	177,239343	40,283	-0,026699
3,001917	172,849312	40,433	-0,028604
2,995938	168,581914	40,584	-0,030457
2,989957	164,923180	40,735	-0,032044
2,983934	160,350887	40,887	-0,034029
2,983902	160,593903	41,024	-0,033923
2,989938	165,045813	41,174	-0,031991
2,995856	169,129824	41,335	-0,030219
3,001928	172,667051	41,486	-0,028684
3,007933	178,214781	41,642	-0,026276
3,013907	181,567495	41,792	-0,024821
3,019939	186,201667	41,943	-0,022810
3,025914	190,957346	42,095	-0,020746
3,031922	195,408131	42,245	-0,018814
3,037908	199,432514	42,396	-0,017067
3,043939	204,127439	42,559	-0,015030
3,049946	208,394837	42,709	-0,013178
3,055976	212,053571	42,869	-0,011590
3,061906	216,686618	43,019	-0,009579
3,067914	220,955141	43,169	-0,007727
3,073930	224,978399	43,319	-0,005980
3,079894	228,942027	43,470	-0,004260
3,085992	233,392812	43,621	-0,002329
3,091899	236,745527	43,772	-0,000874
3,097887	241,684593	43,922	0,001270
3,103928	246,745167	44,083	0,003466
3,109902	250,342022	44,233	0,005027
3,115932	254,549791	44,384	0,006854
3,121911	258,390787	44,534	0,008521
3,127937	262,353291	44,684	0,010240
3,133926	267,292357	44,845	0,012384
3,139942	271,133353	44,996	0,014051
3,145828	275,949786	45,147	0,016141
3,151913	280,156430	45,315	0,017967
3,157906	284,546461	45,466	0,019872
3,163878	288,813859	45,640	0,021724
3,169890	293,265769	45,790	0,023656
3,175926	297,533167	45,940	0,025508
3,181932	301,862444	46,090	0,027387
3,187882	305,947581	46,240	0,029160
3,193884	310,459119	46,392	0,031118
3,199910	314,726517	46,570	0,032970
3,205888	318,934287	46,721	0,034796
3,211903	322,896790	46,886	0,036516
3,217921	326,798540	47,038	0,038209
3,223899	327,896610	47,190	0,038686
3,229891	325,091806	47,343	0,037469
3,235917	328,262259	47,494	0,038845
3,241878	331,676852	47,646	0,040327
3,247868	335,212954	47,796	0,041861
3,253877	337,712864	47,946	0,042946
3,259888	341,126332	48,112	0,044428
3,265889	343,626242	48,263	0,045513
3,271918	346,553679	48,433	0,046783
3,277902	349,906394	48,584	0,048238
3,283862	353,565128	48,734	0,049826
3,289890	356,735581	48,924	0,051202
3,295861	360,453944	49,074	0,052816
3,301874	363,747030	49,236	0,054245
3,307887	368,502709	49,387	0,056309
3,313864	370,453584	49,538	0,057156
3,319902	374,294580	49,689	0,058823
3,325840	376,550349	49,840	0,059802
3,331823	379,050259	49,991	0,060887
3,337871	382,342220	50,157	0,062315
3,343858	385,147024	50,308	0,063533
3,349860	388,378231	50,467	0,064935
3,355855	391,732071	50,619	0,066391
3,361851	394,048594	50,769	0,067396
3,367850	397,097539	50,919	0,068719
3,373861	401,304183	51,071	0,070545
3,379815	403,864847	51,258	0,071656
3,385905	407,523582	51,411	0,073244
3,391898	410,815542	51,561	0,074673
3,397856	414,290890	51,722	0,076181
3,403888	417,034940	51,872	0,077372
3,409852	419,228831	52,039	0,078324
3,415839	421,790620	52,190	0,079436
3,421855	424,167897	52,340	0,080468
3,427819	423,923756	52,507	0,080362
3,433839	427,033455	52,658	0,081711
3,439872	430,021646	52,810	0,083008
3,445851	433,862642	52,973	0,084675
3,451811	436,910462	53,124	0,085998
3,457799	439,776021	53,292	0,087242
3,463848	442,764212	53,444	0,088539
3,469830	445,567891	53,594	0,089755
3,475867	449,775661	53,766	0,091582
3,481854	453,189129	53,916	0,093063
3,487823	456,969371	54,076	0,094704
3,493810	460,749613	54,226	0,096344
3,499792	463,981945	54,377	0,097747
3,505773	467,700308	54,544	0,099361
3,511780	471,114901	54,695	0,100843
3,517853	475,016651	54,846	0,102536
3,523873	478,431245	54,997	0,104018
3,529864	481,175295	55,148	0,105209
3,535821	484,528010	55,299	0,106664
3,541840	488,673900	55,449	0,108463
3,547840	491,783599	55,599	0,109813
3,553790	494,711037	55,750	0,111083
3,559777	499,709731	55,900	0,113253
3,565817	503,673360	56,083	0,114973
3,571809	507,696618	56,236	0,116719
3,577792	511,599492	56,388	0,118413
3,581841	514,037523	56,546	0,119471
3,581766	513,732629	56,696	0,119339
3,581731	514,037523	56,847	0,119471
3,581813	513,001332	56,999	0,119021
3,581806	513,488488	57,150	0,119233
3,581815	514,160156	57,319	0,119524
3,581788	513,550367	57,470	0,119260
3,581827	513,611121	57,638	0,119286
3,581794	513,245473	57,789	0,119127
3,581787	513,732629	57,940	0,119339
3,581778	513,245473	58,092	0,119127
3,581760	513,245473	58,242	0,119127
3,581786	512,635684	58,393	0,118863
3,581823	513,366980	58,544	0,119180
3,581749	513,306227	58,696	0,119154
3,581777	512,452297	58,846	0,118783
3,581808	513,184719	58,997	0,119101
3,581825	513,062086	59,148	0,119048
3,581835	513,732629	59,300	0,119339
3,581818	513,062086	59,451	0,119048
3,581771	513,427734	59,603	0,119207
3,581767	513,427734	59,754	0,119207
3,581785	513,306227	59,905	0,119154
3,581814	513,001332	60,077	0,119021
3,581785	513,245473	60,227	0,119127
3,581806	512,819070	60,377	0,118942
3,581791	513,001332	60,528	0,119021
3,581783	512,635684	60,678	0,118863
3,581823	512,879824	60,846	0,118969
3,581822	513,001332	60,997	0,119021
3,581785	512,757191	61,147	0,118916
3,581826	512,696438	61,299	0,118889
3,581796	512,940578	61,450	0,118995
3,581780	512,391543	61,600	0,118757
3,575847	508,489793	61,765	0,117063
3,569795	504,160516	61,915	0,115185
3,563831	500,442153	62,079	0,113571
3,557782	495,380454	62,229	0,111374
3,551800	491,052302	62,381	0,109496
3,545787	486,662271	62,549	0,107590
3,539802	483,857467	62,700	0,106373
3,533799	477,882209	62,856	0,103780
3,527818	474,103093	63,008	0,102140
3,521808	469,773816	63,159	0,100261
3,515795	465,749433	63,329	0,098514
3,509800	461,482035	63,480	0,096662
3,503833	456,603723	63,652	0,094545
3,497831	453,128375	63,803	0,093037
3,491808	448,677590	63,954	0,091105
3,485768	444,592454	64,117	0,089332
3,479790	440,385810	64,267	0,087506
3,473818	435,752763	64,417	0,085496
3,467847	431,972521	64,579	0,083855
3,461843	426,972701	64,730	0,081685
3,455818	422,948319	64,897	0,079938
3,449815	418,985815	65,047	0,078219
3,443808	414,412397	65,197	0,076234
3,437828	410,084245	65,351	0,074355
3,431814	405,876476	65,502	0,072529
3,425850	401,304183	65,677	0,070545
3,419837	396,792645	65,830	0,068587
3,413856	393,256543	65,980	0,067052
3,407846	389,110653	66,149	0,065253
3,401837	384,842130	66,300	0,063400
3,395845	380,269837	66,460	0,061416
3,389860	376,306209	66,612	0,059696
3,383833	372,160318	66,763	0,057896
3,377856	368,197815	66,936	0,056177
3,371823	364,051924	67,086	0,054377
3,365852	359,234366	67,249	0,052287
3,359846	356,125792	67,401	0,050938
3,353864	350,394675	67,551	0,048450
3,347862	346,309539	67,702	0,046677
3,341867	341,919508	67,853	0,044772
3,335810	338,017758	68,004	0,043079
3,329841	333,688481	68,159	0,041200
3,323821	329,664099	68,311	0,039453
3,317828	324,847665	68,461	0,037363
3,311871	321,128177	68,613	0,035749
3,305839	316,739271	68,764	0,033844
3,299836	312,531502	68,937	0,032018
3,293880	308,629752	69,087	0,030324
3,287826	304,239721	69,254	0,028419
3,281867	300,154585	69,405	0,026646
3,285866	302,654495	69,543	0,027731
3,291840	307,472053	69,706	0,029822
3,297834	311,921713	69,857	0,031753
3,303845	315,946096	70,009	0,033500
3,309850	319,908599	70,181	0,035219
3,315876	324,055615	70,332	0,037019
3,321896	328,078872	70,501	0,038765
3,327890	332,529657	70,651	0,040697
3,333867	337,042321	70,801	0,042655
3,339861	340,822563	70,952	0,044296
3,345822	344,480172	71,102	0,045883
3,351852	349,357359	71,261	0,048000
3,357864	353,808144	71,412	0,049932
3,363869	358,503069	71,564	0,051969
3,369846	361,978417	71,735	0,053478
3,375902	366,673342	71,885	0,055515
3,381841	370,575092	72,036	0,057208
3,387890	374,904369	72,187	0,059087
3,393873	378,074822	72,339	0,060463
3,399830	383,561798	72,512	0,062845
3,405852	387,525427	72,663	0,064565
3,411816	392,220352	72,813	0,066603
3,417830	395,938715	72,982	0,068216
3,423883	400,328746	73,132	0,070122
3,429818	404,597269	73,292	0,071974
3,435801	409,413702	73,442	0,074064
3,441846	413,010558	73,594	0,075625
3,447820	417,217202	73,762	0,077451
3,453831	421,546479	73,912	0,079330
3,459841	426,362912	74,086	0,081420
3,465833	430,326541	74,236	0,083141
3,471788	434,533185	74,386	0,084966
3,477817	438,800583	74,547	0,086818
3,483808	443,251368	74,699	0,088750
3,489833	447,275751	74,877	0,090497
3,495802	451,848043	75,027	0,092481
3,501879	455,689039	75,178	0,094148
3,507790	459,713422	75,350	0,095895
3,513878	463,798558	75,500	0,097667
3,519813	468,431605	75,668	0,099678
3,525841	472,821636	75,818	0,101583
3,531832	476,906772	75,969	0,103356
3,537858	481,114541	76,122	0,105183
3,543864	485,808342	76,272	0,107220
3,549793	490,076865	76,422	0,109072
3,555814	493,978615	76,592	0,110766
3,561823	498,856927	76,742	0,112883
3,567785	501,234204	76,911	0,113915
3,573795	507,575110	77,062	0,116667
3,579788	511,599492	77,212	0,118413
3,585792	516,050277	77,362	0,120345
3,591790	519,952027	77,512	0,122038
3,597775	524,585073	77,663	0,124049
3,603814	528,853597	77,815	0,125901
3,609804	533,060241	77,965	0,127727
3,615816	538,243448	78,121	0,129977
3,621838	542,084443	78,274	0,131644
3,627815	546,107701	78,427	0,133390
3,633780	551,290908	78,595	0,135639
3,639836	555,010396	78,745	0,137253
3,645792	560,009091	78,895	0,139423
3,651777	564,338368	79,046	0,141302
3,657828	568,849906	79,199	0,143260
3,663788	572,630148	79,372	0,144900
3,669775	577,141687	79,523	0,146858
3,675785	581,653226	79,673	0,148816
3,681787	586,408905	79,824	0,150880
3,687800	590,494042	79,974	0,152653
3,693769	594,152776	80,133	0,154241
3,699839	599,213350	80,284	0,156438
3,705774	604,151291	80,434	0,158581
3,711795	608,175673	80,611	0,160327
3,717779	612,565704	80,761	0,162232
3,723792	616,772348	80,928	0,164058
3,729816	620,308450	81,081	0,165593
3,735799	624,454340	81,231	0,167392
3,741771	629,271898	81,406	0,169483
3,747796	633,051015	81,556	0,171123
3,753767	637,196906	81,707	0,172922
3,759773	638,477238	81,858	0,173478
3,765805	639,391921	82,010	0,173875
3,771819	642,989901	82,178	0,175437
3,777743	646,770143	82,329	0,177077
3,783798	650,671893	82,501	0,178771
3,789805	654,147240	82,653	0,180279
3,795754	658,598025	82,805	0,182210
3,801717	663,353705	82,971	0,184274
3,807806	667,560349	83,121	0,186100
3,813774	670,853435	83,299	0,187529
3,819762	675,609114	83,451	0,189593
3,825832	679,693125	83,601	0,191366
3,831757	684,205789	83,774	0,193324
3,837759	687,924152	83,924	0,194938
3,843789	693,655269	84,090	0,197425
3,849764	696,825722	84,241	0,198801
3,855731	701,338386	84,391	0,200760
3,861775	704,142065	84,565	0,201977
3,867807	709,630166	84,717	0,204358
3,873772	713,836811	84,888	0,206184
3,879780	717,982701	85,039	0,207983
3,885771	721,702189	85,191	0,209598
3,891786	725,848079	85,354	0,211397
3,897796	730,238110	85,504	0,213302
3,903787	732,615387	85,670	0,214334
3,909736	736,334875	85,820	0,215948
3,915795	738,895539	85,970	0,217060
3,921754	741,639590	86,127	0,218250
3,927756	745,053058	86,278	0,219732
3,933783	748,894054	86,429	0,221399
3,939762	753,467472	86,601	0,223384
3,945762	758,101644	86,752	0,225395
3,951734	761,941514	86,921	0,227062
3,957762	766,149284	87,071	0,228888
3,963804	770,051033	87,221	0,230581
3,969780	774,745959	87,377	0,232619
3,975752	778,586955	87,527	0,234286
3,981739	782,854353	87,678	0,236138
3,981770	783,464142	87,830	0,236402
3,981754	782,976986	87,981	0,236191
3,981807	782,672091	88,131	0,236059
3,981757	782,001548	88,283	0,235768
3,981734	782,244564	88,436	0,235873
3,981763	782,001548	88,603	0,235768
3,981790	781,940794	88,755	0,235741
3,981765	781,634775	88,923	0,235608
3,981755	781,757407	89,074	0,235662
3,981761	782,062302	89,225	0,235794
3,981747	781,940794	89,382	0,235741
3,981797	781,940794	89,532	0,235741
3,981743	782,306443	89,710	0,235900
3,981716	781,696654	89,860	0,235635
3,981743	782,123056	90,012	0,235820
3,981743	781,878915	90,171	0,235714
3,981748	781,878915	90,322	0,235714
3,981784	782,001548	90,478	0,235768
3,981748	781,940794	90,628	0,235741
3,981751	781,818161	90,779	0,235688
3,981774	782,183810	90,937	0,235847
3,981788	781,513267	91,088	0,235556
3,981740	781,634775	91,265	0,235608
3,981747	781,818161	91,416	0,235688
3,981756	781,878915	91,567	0,235714
3,981792	781,331005	91,732	0,235477
3,981781	782,183810	91,882	0,235847
3,981737	782,244564	92,032	0,235873
3,981716	782,062302	92,200	0,235794
3,981766	781,696654	92,351	0,235635
3,981723	781,634775	92,521	0,235608
3,981730	781,818161	92,671	0,235688
3,981717	782,001548	92,822	0,235768
3,977767	778,282060	92,988	0,234153
3,971733	774,075416	93,140	0,232328
3,965748	769,257858	93,306	0,230237
3,959760	764,990459	93,458	0,228385
3,953823	759,747624	93,609	0,226109
3,947793	754,747804	93,777	0,223939
3,941729	750,723421	93,928	0,222193
3,935806	746,028496	94,080	0,220155
3,929799	741,029801	94,230	0,217986
3,923822	737,249559	94,382	0,216345
3,917745	732,188985	94,542	0,214149
3,911784	727,433306	94,693	0,212085
3,905729	722,859888	94,844	0,210100
3,899769	717,921947	95,014	0,207957
3,893748	713,410408	95,165	0,205999
3,887748	709,081131	95,335	0,204120
3,881792	704,081311	95,486	0,201950
3,875741	700,423702	95,637	0,200363
3,869818	695,240495	95,791	0,198113
3,863798	690,484816	95,941	0,196049
3,857813	686,095910	96,110	0,194145
3,851791	682,071528	96,263	0,192398
3,845792	676,766813	96,413	0,190096
3,839806	672,620923	96,581	0,188296
3,833850	667,865243	96,732	0,186232
3,827822	663,291826	96,888	0,184248
3,821881	658,048990	97,038	0,181972
3,815786	653,658959	97,189	0,180067
3,809790	648,598385	97,367	0,177871
3,803817	643,904585	97,517	0,175833
3,797806	640,001710	97,688	0,174140
3,791801	635,368664	97,840	0,172129
3,785818	630,490351	97,992	0,170012
3,779794	626,222953	98,158	0,168160
3,773814	621,893676	98,309	0,166281
3,767793	617,260630	98,477	0,164270
3,761787	612,931353	98,629	0,162391
3,755787	608,175673	98,779	0,160327
3,749817	603,541502	98,934	0,158316
3,743811	600,615189	99,084	0,157046
3,737778	594,944826	99,234	0,154585
3,731785	590,006885	99,407	0,152442
3,725778	585,311960	99,559	0,150404
3,719869	580,495527	99,728	0,148314
3,713801	576,776039	99,879	0,146700
3,707784	571,959605	100,031	0,144609
3,701752	567,081293	100,197	0,142492
3,695772	563,240297	100,349	0,140825
3,689796	558,423864	100,512	0,138735
3,683849	553,728939	100,663	0,136697
3,677794	548,790998	100,814	0,134554
3,671812	545,071510	100,987	0,132940
3,665843	540,315830	101,139	0,130876
3,659807	535,682784	101,290	0,128865
3,653781	531,536893	101,440	0,127066
3,647788	526,597827	101,591	0,124922
3,641790	522,573445	101,748	0,123176
3,635827	517,940398	101,898	0,121165
3,629792	513,427734	102,048	0,119207
3,623820	509,404477	102,217	0,117460
3,617780	504,588044	102,369	0,115370
3,611734	499,832364	102,542	0,113306
3,605787	495,685349	102,693	0,111506
3,599783	491,601337	102,844	0,109734
3,593801	487,149428	103,019	0,107802
3,587830	482,760522	103,170	0,105897
3,581814	477,882209	103,343	0,103780
3,585862	480,809647	103,483	0,105050
3,591849	485,198553	103,635	0,106955
3,597798	490,381759	103,801	0,109205
3,603809	495,014806	103,951	0,111215
3,609883	498,978435	104,128	0,112936
3,615866	503,916376	104,279	0,115079
3,621840	508,063391	104,430	0,116878
3,627862	512,147402	104,585	0,118651
3,633856	517,940398	104,736	0,121165
3,639818	521,719515	104,910	0,122805
3,645803	526,048792	105,061	0,124684
3,651835	530,927104	105,212	0,126801
3,657840	536,048432	105,374	0,129024
3,663900	539,889428	105,524	0,130691
3,669791	545,010756	105,699	0,132914
3,675816	548,912505	105,849	0,134607
3,681836	553,302536	105,999	0,136512
3,687795	557,387673	106,164	0,138285
3,693773	561,959965	106,314	0,140270
3,699799	566,838278	106,464	0,142387
3,705850	570,922289	106,625	0,144159
3,711832	575,983988	106,778	0,146356
3,717823	580,677788	106,950	0,148393
3,723816	583,543347	107,100	0,149637
3,729832	589,518604	107,250	0,152230
3,735819	594,395791	107,430	0,154347
3,741790	598,664315	107,580	0,156199
3,747839	603,480748	107,752	0,158290
3,753818	607,810025	107,902	0,160168
3,759787	611,895161	108,054	0,161941
3,765805	616,711595	108,204	0,164032
3,771732	621,406520	108,355	0,166069
3,777802	625,064129	108,534	0,167657
3,783830	630,308090	108,685	0,169933
3,789823	634,696996	108,836	0,171837
3,795806	639,209659	109,001	0,173796
3,801817	643,599690	109,152	0,175701
3,807821	648,598385	109,304	0,177871
3,813775	653,232557	109,456	0,179882
3,819809	657,560709	109,607	0,181760
3,825770	660,183252	109,784	0,182898
3,831799	666,706419	109,935	0,185729
3,837822	670,365153	110,105	0,187317
3,843818	675,547235	110,256	0,189566
3,849775	680,973457	110,407	0,191921
3,855798	685,302734	110,577	0,193800
3,861790	689,997660	110,729	0,195838
3,867819	693,655269	110,908	0,197425
3,873803	698,410948	111,059	0,199489
3,879787	703,045120	111,210	0,201500
3,885802	707,679291	111,386	0,203512
3,891785	712,190830	111,536	0,205470
3,897775	717,312158	111,706	0,207692
3,903755	721,397294	111,857	0,209465
3,909809	726,152974	112,008	0,211529
3,915765	730,543005	112,182	0,213435
3,921813	735,054543	112,333	0,215393
3,927863	739,870977	112,500	0,217483
3,933795	744,443269	112,651	0,219467
3,939827	749,260828	112,802	0,221558
3,945755	752,918437	112,953	0,223146
3,951843	758,101644	113,103	0,225395
3,957720	762,185655	113,254	0,227167
3,963837	767,063967	113,435	0,229285
3,969754	771,636260	113,585	0,231269
3,975819	777,062482	113,751	0,233624
3,981786	781,086865	113,902	0,235371
3,987749	785,719911	114,052	0,237381
3,993759	790,171821	114,226	0,239313
3,999813	794,560727	114,376	0,241218
4,005812	798,768496	114,534	0,243044
4,011770	804,132840	114,686	0,245373
4,017721	807,852328	114,837	0,246987
4,023759	812,181605	115,016	0,248866
4,029723	817,242178	115,166	0,251062
4,035767	821,632209	115,335	0,252967
4,041790	826,082994	115,485	0,254899
4,047727	830,471900	115,635	0,256804
4,053806	834,740423	115,798	0,258656
4,059772	839,496103	115,948	0,260720
4,065757	843,702747	116,101	0,262546
4,071780	848,458426	116,251	0,264610
4,077734	852,665071	116,403	0,266436
4,083744	855,714016	116,555	0,267759
4,089771	860,348187	116,706	0,269770
4,095764	865,041988	116,856	0,271807
4,101777	869,189003	117,030	0,273607
4,107691	873,395647	117,180	0,275433
4,113742	878,151327	117,350	0,277497
4,119739	882,113830	117,500	0,279216
4,125802	887,235158	117,653	0,281439
4,131767	891,076154	117,828	0,283106
4,137775	895,222044	117,979	0,284905
4,143759	898,270989	118,153	0,286229
4,149757	904,429633	118,304	0,288901
4,155747	908,818539	118,454	0,290806
4,161756	912,721414	118,627	0,292500
4,167766	917,354461	118,779	0,294511
4,173761	922,719929	118,948	0,296839
4,179743	926,013015	119,100	0,298269
4,185751	930,706815	119,250	0,300306
4,191776	934,791952	119,402	0,302079
4,197771	938,999721	119,552	0,303905
4,203717	944,242557	119,723	0,306180
4,209785	948,022798	119,874	0,307821
4,215736	952,595091	120,024	0,309805
4,221710	956,375333	120,186	0,311446
4,227736	960,521223	120,338	0,313245
4,233712	965,338782	120,508	0,315336
4,239719	969,788441	120,658	0,317267
4,245747	973,935457	120,808	0,319067
4,251748	978,385117	120,960	0,320998
4,257706	983,019288	121,110	0,323009
4,263726	986,738776	121,261	0,324624
4,269745	991,006174	121,433	0,326476
4,275706	994,909049	121,584	0,328169
4,281708	999,846990	121,752	0,330313
4,287735	1003,566478	121,902	0,331927
4,293720	1008,017263	122,052	0,333858
4,299699	1012,894450	122,228	0,335975
4,305719	1017,223727	122,379	0,337854
4,311730	1021,064723	122,551	0,339521
4,317716	1025,759649	122,703	0,341559
4,323742	1030,088926	122,855	0,343438
4,329699	1034,417078	123,007	0,345316
4,335750	1038,928616	123,158	0,347274
4,341738	1043,441280	123,311	0,349232
4,347670	1047,159643	123,461	0,350846
4,353687	1051,549674	123,611	0,352751
4,359640	1056,244600	123,762	0,354789
4,365692	1060,756138	123,913	0,356747
4,371713	1065,511818	124,064	0,358811
4,377660	1069,536200	124,238	0,360558
4,381683	1072,523266	124,388	0,361854
4,381736	1073,437950	124,561	0,362251
4,381667	1072,950794	124,711	0,362040
4,381665	1072,706653	124,861	0,361934
4,381698	1072,645899	125,020	0,361907
4,381711	1072,767407	125,170	0,361960
4,381687	1072,767407	125,350	0,361960
4,381716	1072,706653	125,502	0,361934
4,381675	1072,341005	125,653	0,361775
4,381710	1072,401759	125,810	0,361801
4,381744	1071,913477	125,961	0,361589
4,381717	1072,218372	126,135	0,361722
4,381716	1072,341005	126,287	0,361775
4,381698	1072,767407	126,438	0,361960
4,381690	1071,852724	126,610	0,361563
4,381669	1072,096864	126,760	0,361669
4,381745	1072,401759	126,932	0,361801
4,381630	1072,341005	127,083	0,361775
4,381739	1072,341005	127,235	0,361775
4,381727	1072,401759	127,419	0,361801
4,381727	1072,341005	127,570	0,361775
4,381644	1072,523266	127,745	0,361854
4,381708	1072,401759	127,896	0,361801
4,381736	1072,279126	128,049	0,361748
4,381592	1071,974231	128,202	0,361616
4,381749	1072,401759	128,352	0,361801
4,381688	1072,341005	128,513	0,361775
4,381690	1072,401759	128,664	0,361801
4,381709	1072,279126	128,816	0,361748
4,381671	1072,584020	128,973	0,361880
4,381673	1072,706653	129,125	0,361934
4,381697	1072,462513	129,276	0,361828
4,381716	1071,974231	129,437	0,361616
4,381707	1072,523266	129,589	0,361854
4,375642	1067,828341	129,741	0,359816
4,369728	1063,011908	129,891	0,357726
4,363676	1058,439615	130,041	0,355742
4,357751	1053,928076	130,207	0,353784
4,351681	1049,538045	130,357	0,351878
4,345726	1044,782366	130,537	0,349814
4,339725	1040,392335	130,687	0,347909
4,333693	1035,697410	130,839	0,345872
4,327705	1031,673027	131,016	0,344125
4,321711	1027,223367	131,167	0,342194
4,315744	1022,649950	131,343	0,340209
4,309709	1018,138411	131,494	0,338251
4,303733	1013,748380	131,644	0,336346
4,297697	1008,992701	131,806	0,334282
4,291673	1005,943755	131,956	0,332958
4,285713	1000,091131	132,112	0,330418
4,279698	994,847170	132,265	0,328143
4,273749	990,274878	132,415	0,326158
4,267759	986,494636	132,592	0,324518
4,261733	981,617449	132,744	0,322401
4,255757	977,104785	132,912	0,320442
4,249749	973,812824	133,064	0,319014
4,243763	967,960199	133,216	0,316474
4,237778	963,265274	133,376	0,314436
4,231683	958,935997	133,526	0,312557
4,225717	954,668599	133,706	0,310705
4,219701	950,155935	133,856	0,308747
4,213722	945,462135	134,007	0,306709
4,207691	941,132858	134,172	0,304831
4,201721	935,706635	134,322	0,302476
4,195784	931,865639	134,473	0,300809
4,189741	926,682433	134,642	0,298559
4,183699	921,927878	134,793	0,296496
4,177726	918,025004	134,955	0,294802
4,171764	912,842922	135,105	0,292553
4,165750	908,270629	135,257	0,290568
4,159728	903,697212	135,425	0,288583
4,153717	901,380688	135,576	0,287578
4,147753	894,185853	135,750	0,284456
4,141729	889,430174	135,901	0,282392
4,135770	885,223529	136,052	0,280566
4,129755	881,016885	136,221	0,278740
4,123712	876,321960	136,372	0,276703
4,117723	871,687788	136,555	0,274691
4,111750	868,456581	136,705	0,273289
4,105758	862,848097	136,856	0,270855
4,099787	857,848277	137,028	0,268685
4,093726	853,030719	137,179	0,266594
4,087737	849,068215	137,355	0,264875
4,081750	844,130274	137,506	0,262731
4,075763	839,496103	137,656	0,260720
4,069778	834,861931	137,826	0,258709
4,063788	830,045498	137,977	0,256619
4,057768	825,533959	138,127	0,254661
4,051769	820,594893	138,278	0,252517
4,045775	816,327495	138,428	0,250665
4,039781	811,693323	138,596	0,248654
4,033770	806,206347	138,748	0,246272
4,027780	801,877070	138,926	0,244394
4,021801	797,793059	139,077	0,242621
4,015760	793,098133	139,227	0,240583
4,009761	787,671911	139,406	0,238229
4,003722	783,342634	139,557	0,236350
3,997755	779,013357	139,725	0,234471
3,991745	773,952783	139,875	0,232274
3,985760	770,051033	140,026	0,230581
3,979777	764,807073	140,206	0,228305
3,973782	760,357413	140,357	0,226374
3,967775	755,357593	140,516	0,224204
3,961772	751,759613	140,667	0,222643
3,955751	747,005058	140,818	0,220579
3,949804	742,309008	140,999	0,218541
3,943805	737,859348	141,150	0,216610
3,937822	733,103669	141,301	0,214546
3,931786	728,408743	141,452	0,212508
3,925782	723,653064	141,602	0,210444
3,919788	718,958138	141,769	0,208407
3,913743	714,568107	141,919	0,206501
3,907820	709,935061	142,070	0,204491
3,901762	705,179381	142,233	0,202427
3,895793	700,361823	142,385	0,200336
3,889784	696,399320	142,535	0,198616
3,883797	691,704394	142,686	0,196579
3,877809	686,887961	142,836	0,194488
3,871816	682,497930	143,019	0,192583
3,865837	677,864883	143,169	0,190572
3,859760	672,499415	143,332	0,188244
3,853802	667,560349	143,482	0,186100
3,847787	663,475212	143,633	0,184327
3,841805	658,963674	143,802	0,182369
3,835775	655,001170	143,953	0,180649
3,829828	649,939471	144,133	0,178453
3,823812	644,575128	144,284	0,176125
3,817810	640,429237	144,434	0,174325
3,811798	636,404855	144,594	0,172579
3,805830	633,051015	144,744	0,171123
3,799782	627,442531	144,903	0,168689
3,793860	622,077063	145,053	0,166360
3,787819	618,479083	145,204	0,164799
3,781759	613,419634	145,380	0,162603
3,775780	608,967724	145,531	0,160671
3,769825	603,602256	145,681	0,158342
3,763791	599,761260	145,863	0,156675
3,757789	595,615369	146,014	0,154876
3,751792	591,103831	146,178	0,152918
3,745827	585,860995	146,329	0,150643
3,739782	582,141507	146,480	0,149028
3,733785	576,410390	146,650	0,146541
3,727735	572,264500	146,802	0,144742
3,721801	568,728399	146,978	0,143207
3,715794	564,033473	147,128	0,141169
3,709820	559,521934	147,278	0,139211
3,703781	554,827009	147,454	0,137174
3,697813	550,132083	147,604	0,135136
3,691768	545,497912	147,771	0,133125
3,685813	541,230514	147,921	0,131273
3,679847	536,961991	148,073	0,129420
3,673803	532,145557	148,225	0,127330
3,667839	527,207616	148,375	0,125187
3,661814	522,512691	148,527	0,123149
3,655768	518,366800	148,679	0,121350
3,649821	513,916016	148,829	0,119418
3,643810	510,014266	149,009	0,117725
3,637797	505,135954	149,160	0,115608
3,631788	501,904747	149,325	0,114206
3,625795	495,990243	149,476	0,111639
3,619813	491,296443	149,626	0,109602
3,613862	487,455447	149,779	0,107935
3,607823	482,577135	149,930	0,105817
3,601789	478,248983	150,080	0,103939
3,595850	474,468741	150,269	0,102298
3,589824	469,285534	150,419	0,100049
3,583811	464,896628	150,569	0,098144
3,577799	460,201703	150,720	0,096106
3,571816	456,360707	150,871	0,094439
3,565832	452,152938	151,052	0,092613
3,559805	447,214997	151,202	0,090470
3,553865	442,824966	151,382	0,088565
3,547816	438,618322	151,533	0,086739
3,541826	434,533185	151,683	0,084966
3,535853	429,472611	151,860	0,082770
3,529817	425,021826	152,011	0,080838
3,523783	420,509163	152,186	0,078880
3,517802	415,997624	152,339	0,076922
3,511833	411,669472	152,518	0,075043
3,505869	407,949984	152,668	0,073429
3,499831	403,864847	152,820	0,071656
3,493814	399,109168	152,979	0,069592
3,487829	394,292735	153,129	0,067502
3,481814	390,512493	153,282	0,065861
3,475815	385,635306	153,463	0,063745
3,469837	381,855064	153,614	0,062104
3,463898	378,135576	153,774	0,060490
3,457869	373,258389	153,925	0,058373
3,451862	369,294760	154,075	0,056653
3,445843	365,088116	154,259	0,054827
3,439877	360,332436	154,410	0,052763
3,433849	356,430687	154,582	0,051070
3,427811	351,491620	154,732	0,048926
3,421861	347,589871	154,883	0,047233
3,415904	343,199840	155,059	0,045328
3,409849	339,724492	155,210	0,043819
3,403877	335,517848	155,385	0,041994
3,397860	331,067063	155,536	0,040062
3,391867	326,921173	155,686	0,038263
3,385889	323,993736	155,860	0,036992
3,379879	319,360689	156,010	0,034981
3,373877	314,605010	156,167	0,032917
3,367863	309,727823	156,318	0,030801
3,361875	305,885702	156,469	0,029133
3,355870	301,618304	156,636	0,027281
3,349841	297,410534	156,788	0,025455
3,343871	292,960874	156,967	0,023524
3,337863	288,570844	157,117	0,021619
3,331888	284,912109	157,268	0,020031
3,325851	281,315254	157,436	0,018470
3,319889	275,949786	157,587	0,016141
3,313873	271,194106	157,758	0,014077
3,307924	267,048216	157,908	0,012278
3,301905	262,658185	158,059	0,010373
3,295876	258,512295	158,234	0,008573
3,289899	253,330213	158,386	0,006324
3,283868	250,464655	158,575	0,005081
3,277922	246,562905	158,726	0,003387
3,271910	242,050241	158,876	0,001429
3,265855	237,112300	159,041	-0,000714
3,259935	233,453566	159,191	-0,002302
3,253925	229,429183	159,367	-0,004049
3,247889	225,345172	159,518	-0,005821
3,241879	221,442297	159,670	-0,007515
3,235898	216,747372	159,843	-0,009553
3,229904	212,845622	159,995	-0,011246
3,223893	208,334083	160,158	-0,013204
3,217911	203,822545	160,309	-0,015162
3,211910	199,432514	160,459	-0,017067
3,205907	195,896412	160,641	-0,018602
3,199900	191,079979	160,791	-0,020692
3,193914	186,629194	160,968	-0,022624
3,187895	182,482179	161,120	-0,024424
3,181867	177,726499	161,271	-0,026488
3,175884	174,068890	161,437	-0,028075
3,169931	169,739613	161,588	-0,029954
3,163928	165,349582	161,740	-0,031859
3,157930	160,960676	161,890	-0,033764
3,151915	156,509892	162,040	-0,035696
3,145893	152,546263	162,216	-0,037416
3,139872	148,095478	162,368	-0,039348
3,133935	145,229920	162,531	-0,040591
3,127909	140,596873	162,681	-0,042602
3,121935	136,693998	162,832	-0,044296
3,115911	132,365846	163,012	-0,046174
3,109952	128,889374	163,163	-0,047683
3,103920	124,744609	163,331	-0,049482
3,097946	120,292699	163,483	-0,051414
3,091920	116,695844	163,634	-0,052975
3,085913	113,952918	163,788	-0,054166
3,079891	109,928535	163,938	-0,055912
3,073979	105,843399	164,091	-0,057685
3,067872	102,672946	164,270	-0,059061
3,061938	100,538684	164,420	-0,059987
3,055898	97,185970	164,580	-0,061442
3,049853	95,173216	164,731	-0,062316
3,043939	93,832130	164,881	-0,062898
3,037933	91,515607	165,062	-0,063903
3,031920	88,040260	165,212	-0,065412
3,025915	85,784490	165,370	-0,066391
3,019946	84,504158	165,520	-0,066946
3,013938	83,040440	165,670	-0,067582
3,007981	80,297514	165,836	-0,068772
3,001981	77,735725	165,987	-0,069884
2,995962	75,358448	166,170	-0,070916
2,989914	72,309503	166,321	-0,072239
2,983971	71,212558	166,472	-0,072715
2,977880	68,651894	166,631	-0,073826
2,971900	67,127421	166,783	-0,074488
2,965945	65,481441	166,937	-0,075202
2,959927	63,956968	167,088	-0,075864
2,953890	62,006093	167,239	-0,076710
2,947943	61,822707	167,412	-0,076790
2,941964	59,750324	167,562	-0,077689
2,935965	60,055219	167,741	-0,077557
2,929947	57,311168	167,891	-0,078748
2,923951	56,030836	168,043	-0,079304
2,917972	56,517992	168,224	-0,079092
2,911918	54,750504	168,374	-0,079859
2,905948	52,494735	168,541	-0,080838
2,899921	51,335910	168,693	-0,081341
2,893924	49,750684	168,844	-0,082029
2,887941	47,555669	169,030	-0,082982
2,881979	45,727427	169,180	-0,083775
2,875966	44,812743	169,361	-0,084172
2,869926	43,409778	169,511	-0,084781
2,863984	42,373587	169,663	-0,085231
2,857938	39,508029	169,841	-0,086475
[...]
3,666504	646,953530	97,002	0,186047
3,660490	642,806515	97,176	0,184248
3,654525	637,442171	97,329	0,181919
3,648553	632,747246	97,480	0,179882
3,642542	628,357215	97,652	0,177977
3,636515	624,150571	97,803	0,176151
3,630570	618,967364	97,988	0,173901
3,624489	615,492016	98,138	0,172393
3,618545	610,066919	98,290	0,170039
3,612579	605,798396	98,467	0,168186
3,606614	602,018154	98,619	0,166545
3,600579	596,226283	98,778	0,164032
3,594492	592,385288	98,929	0,162365
3,588581	587,506975	99,081	0,160248
3,582479	582,690542	99,250	0,158157
3,576569	578,728039	99,400	0,156438
3,570560	574,216500	99,571	0,154479
3,564548	569,826469	99,723	0,152574
3,558607	564,948157	99,874	0,150457
3,552552	560,315110	100,033	0,148446
3,546594	556,168095	100,183	0,146646
3,540553	552,449732	100,333	0,145033
3,534540	546,962756	100,510	0,142651
3,528591	542,511971	100,660	0,140720
3,522544	537,756291	100,823	0,138656
3,516586	533,731909	100,975	0,136909
3,510532	528,853597	101,127	0,134792
3,504529	524,281304	101,302	0,132808
3,498551	520,440308	101,453	0,131141
3,492554	516,538558	101,639	0,129447
3,486543	511,233844	101,790	0,127145
3,480592	506,417411	101,942	0,125055
3,474541	502,332274	102,110	0,123282
3,468539	497,942243	102,261	0,121376
3,462609	493,186564	102,441	0,119313
3,456586	489,101427	102,592	0,117540
3,450605	483,980100	102,742	0,115317
3,444546	479,712702	102,914	0,113465
3,438614	475,504932	103,064	0,111639
3,442622	479,102913	103,235	0,113200
3,448564	483,431065	103,385	0,115079
3,454572	487,821096	103,535	0,116984
3,460573	491,845478	103,701	0,118730
3,466588	496,661911	103,851	0,120821
3,472566	500,930435	104,015	0,122673
3,478586	505,624235	104,166	0,124710
3,484548	509,892758	104,318	0,126563
3,490562	514,769945	104,487	0,128680
3,496577	519,464871	104,639	0,130717
3,502557	523,854902	104,792	0,132623
3,508569	528,427194	104,943	0,134607
3,514547	532,817225	105,095	0,136512
3,520587	537,390643	105,265	0,138497
3,526583	541,169760	105,415	0,140137
3,532508	546,352967	105,581	0,142387
3,538537	551,595802	105,731	0,144662
3,544538	556,046587	105,882	0,146594
3,550526	560,192477	106,052	0,148393
3,556555	564,277614	106,202	0,150166
3,562563	568,789153	106,377	0,152124
3,568578	573,544832	106,527	0,154188
3,574566	578,423144	106,678	0,156305
3,580574	582,203386	106,831	0,157946
3,586527	586,470784	106,981	0,159798
3,592542	591,165710	107,131	0,161835
3,598472	596,775319	107,326	0,164270
3,604541	600,859330	107,477	0,166042
3,610521	605,249361	107,639	0,167948
3,616567	610,066919	107,789	0,170039
3,622577	613,601896	107,948	0,171573
3,628508	619,699786	108,100	0,174219
3,634514	623,419274	108,250	0,175833
3,640644	627,808180	108,401	0,177738
3,646510	631,466914	108,552	0,179326
3,652513	636,953890	108,702	0,181708
3,658576	640,978273	108,875	0,183454
3,664555	646,099600	109,026	0,185677
3,670596	650,428877	109,180	0,187556
3,676535	654,574768	109,331	0,189355
3,682586	659,940236	109,482	0,191684
3,688539	664,634037	109,657	0,193721
3,694554	669,207454	109,810	0,195706
3,700534	673,474852	109,975	0,197558
3,706591	678,840321	110,127	0,199886
3,712553	682,742070	110,279	0,201580
3,718556	686,522312	110,431	0,203220
3,724530	691,766273	110,581	0,205496
3,730522	697,131741	110,733	0,207825
3,736552	700,362948	110,883	0,209227
3,742582	705,667663	111,035	0,211529
3,748539	710,849744	111,186	0,213778
3,754476	714,080951	111,338	0,215181
3,760511	720,116962	111,490	0,217800
3,766494	724,262853	111,665	0,219600
3,772521	728,531376	111,816	0,221452
3,778567	733,164423	111,978	0,223463
3,784507	737,675961	112,129	0,225421
3,790522	742,249379	112,280	0,227406
3,796526	746,273762	112,459	0,229152
3,802556	751,272456	112,610	0,231322
3,808510	755,601734	112,784	0,233201
3,814518	759,870257	112,935	0,235053
3,820563	765,052338	113,088	0,237302
3,826545	769,503123	113,259	0,239234
3,832576	773,344119	113,410	0,240901
3,838509	778,283185	113,588	0,243044
3,844532	782,794724	113,739	0,245002
3,850525	787,306263	113,890	0,246960
3,856513	791,391399	114,060	0,248733
3,862563	796,207832	114,211	0,250824
3,868483	801,085019	114,383	0,252940
3,874518	805,840699	114,534	0,255004
3,880500	809,986589	114,685	0,256804
3,886530	814,560007	114,861	0,258789
3,892553	818,889284	115,011	0,260667
3,898514	823,217436	115,183	0,262546
3,904547	825,900733	115,334	0,263710
3,910485	829,863236	115,484	0,265430
3,916518	833,643478	115,645	0,267071
3,922520	837,362966	115,796	0,268685
3,928480	838,948193	115,947	0,269373
3,934543	841,996013	116,106	0,270696
3,940523	844,861571	116,258	0,271939
3,946520	845,959641	116,452	0,272416
3,952553	848,520305	116,605	0,273527
3,958545	851,141723	116,755	0,274665
3,964501	854,861211	116,920	0,276279
3,970530	857,909031	117,070	0,277602
3,976511	860,104047	117,242	0,278555
3,982522	861,080609	117,393	0,278979
3,988490	857,238488	117,545	0,277311
3,994567	857,909031	117,721	0,277602
4,000519	859,799152	117,872	0,278422
4,006576	862,238308	118,022	0,279481
4,012506	865,103867	118,172	0,280725
4,018564	868,701847	118,323	0,282286
4,024543	872,115315	118,481	0,283768
4,030513	874,371085	118,632	0,284747
4,036496	879,126764	118,782	0,286811
4,042555	883,029639	118,932	0,288504
4,048537	885,223529	119,083	0,289457
4,054511	887,967580	119,241	0,290647
4,060549	890,528244	119,393	0,291759
4,066521	894,003591	119,544	0,293267
4,072520	898,332868	119,714	0,295146
4,078464	901,564075	119,866	0,296548
4,084555	905,344317	120,047	0,298189
4,090520	909,003051	120,198	0,299777
4,096462	912,295012	120,349	0,301206
4,102525	916,318269	120,527	0,302952
4,108500	919,916250	120,678	0,304513
4,114550	923,635738	120,835	0,306127
4,120539	928,086523	120,988	0,308059
4,126528	931,560745	121,139	0,309567
4,132498	935,768514	121,319	0,311393
4,138536	939,731018	121,472	0,313113
4,144508	944,243682	121,623	0,315071
4,150550	948,328818	121,773	0,316844
4,156527	952,107935	121,925	0,318484
4,162449	956,009685	122,093	0,320178
4,168488	959,363524	122,246	0,321633
4,174555	962,656610	122,417	0,323063
4,180517	965,948571	122,567	0,324491
4,186470	968,814129	122,718	0,325735
4,192499	973,448301	122,896	0,327746
4,198491	976,984402	123,048	0,329281
4,204473	980,642011	123,200	0,330868
4,210508	984,727148	123,351	0,332641
4,216532	987,897600	123,504	0,334017
4,222444	989,604335	123,679	0,334758
4,228486	992,469893	123,829	0,336001
4,234425	996,310889	123,986	0,337668
4,238517	997,957994	124,136	0,338383
4,238456	997,835361	124,287	0,338330
4,238501	996,616908	124,459	0,337801
4,238465	995,702225	124,609	0,337404
4,238469	995,335451	124,783	0,337245
4,238418	995,458084	124,934	0,337298
4,238533	994,848295	125,085	0,337034
4,238500	994,177752	125,256	0,336743
4,238486	994,543401	125,407	0,336901
4,238459	994,116998	125,557	0,336716
4,238484	993,994366	125,718	0,336663
4,238475	994,055120	125,869	0,336689
4,238488	993,567963	126,043	0,336478
4,238465	993,872858	126,194	0,336610
4,238518	993,628717	126,345	0,336504
4,238482	993,872858	126,526	0,336610
4,238470	993,507209	126,677	0,336452
4,238461	993,263069	126,828	0,336346
4,238458	993,567963	126,978	0,336478
4,238495	993,384577	127,130	0,336398
4,238466	993,751350	127,301	0,336558
4,238489	993,567963	127,453	0,336478
4,238470	993,567963	127,617	0,336478
4,238507	993,445331	127,767	0,336425
4,238458	992,958174	127,917	0,336213
4,238440	993,384577	128,089	0,336398
4,238469	993,263069	128,240	0,336346
4,238447	993,384577	128,397	0,336398
4,238449	993,507209	128,547	0,336452
4,238503	993,445331	128,699	0,336425
4,238486	993,567963	128,881	0,336478
4,238483	993,202315	129,032	0,336319
4,238447	993,141561	129,199	0,336293
4,238483	993,628717	129,351	0,336504
4,232489	988,628897	129,502	0,334334
4,226461	984,300745	129,666	0,332456
4,220469	979,423558	129,816	0,330339
4,214492	974,667879	129,988	0,328275
4,208461	970,520863	130,139	0,326476
4,202459	965,278028	130,290	0,324200
4,196511	961,740801	130,466	0,322665
4,190497	957,168509	130,616	0,320681
4,184480	952,412829	130,799	0,318617
4,178526	948,632587	130,952	0,316976
4,172485	943,511260	131,102	0,314753
4,166472	938,329178	131,277	0,312504
4,160469	934,793077	131,428	0,310970
4,154492	930,098151	131,600	0,308932
4,148502	925,524734	131,751	0,306947
4,142556	921,257335	131,902	0,305095
4,136512	916,562410	132,085	0,303058
4,130524	912,721414	132,235	0,301391
4,124504	907,660840	132,392	0,299194
4,118487	903,210055	132,543	0,297263
4,112470	899,185673	132,694	0,295516
4,106473	894,369240	132,871	0,293426
4,100511	889,736193	133,022	0,291415
4,094503	884,736373	133,200	0,289245
4,088492	880,773870	133,350	0,287525
4,082510	875,895557	133,500	0,285408
4,076488	872,420210	133,672	0,283900
4,070476	867,725284	133,823	0,281862
4,064562	862,116800	134,001	0,279428
4,058502	859,494258	134,151	0,278290
4,052485	854,251422	134,303	0,276015
4,046497	848,885954	134,479	0,273686
4,040533	844,313661	134,630	0,271702
4,034515	840,228525	134,796	0,269929
4,028558	835,716986	134,947	0,267971
4,022539	832,119006	135,098	0,266409
4,016551	827,058432	135,279	0,264213
4,010489	822,912541	135,429	0,262414
4,004538	818,035354	135,600	0,260297
3,998558	813,340429	135,750	0,258259
3,992521	808,340609	135,901	0,256089
3,986514	804,560367	136,052	0,254449
3,980530	799,743934	136,203	0,252358
3,974512	795,719551	136,354	0,250612
3,968524	791,573661	136,530	0,248812
3,962524	786,452333	136,681	0,246590
3,956527	781,696654	136,842	0,244526
3,950559	777,124361	136,995	0,242542
3,944561	772,673576	137,147	0,240610
3,938553	768,588440	137,298	0,238837
3,932519	764,259163	137,450	0,236958
3,926547	759,442729	137,610	0,234868
3,920552	755,540980	137,761	0,233174
3,914550	750,541160	137,912	0,231004
3,908494	745,603219	138,084	0,228861
3,902558	741,456203	138,234	0,227062
3,896537	737,616332	138,386	0,225395
3,890501	732,493880	138,538	0,223172
3,884522	728,287235	138,690	0,221346
3,878546	723,531556	138,859	0,219282
3,872505	718,775877	139,009	0,217218
3,866571	713,898690	139,192	0,215102
3,860540	709,508659	139,342	0,213196
3,854571	704,997120	139,494	0,211238
3,848573	701,338386	139,647	0,209650
3,842544	696,338566	139,798	0,207480
3,836564	692,253429	139,948	0,205708
3,830534	687,620383	140,104	0,203697
3,824545	683,230352	140,254	0,201792
3,818559	678,474672	140,431	0,199728
3,812535	673,841626	140,583	0,197717
3,806540	669,755364	140,734	0,195943
3,800535	665,000810	140,897	0,193880
3,794538	660,610779	141,047	0,191975
3,788532	656,037361	141,199	0,189990
3,782534	651,830717	141,349	0,188164
3,776570	647,135792	141,499	0,186126
3,770543	642,624253	141,686	0,184168
3,764543	637,624433	141,837	0,181999
3,758500	634,027578	142,001	0,180438
3,752536	628,662109	142,152	0,178109
3,746513	624,394711	142,302	0,176257
3,740552	619,394891	142,461	0,174087
3,734563	615,370509	142,612	0,172340
3,728595	610,736337	142,764	0,170329
3,722537	606,408185	142,933	0,168451
3,716569	601,530998	143,084	0,166334
3,710552	597,140967	143,240	0,164429
3,704562	592,567549	143,391	0,162444
3,698541	587,751116	143,541	0,160354
3,692542	582,995437	143,697	0,158290
3,686600	578,362390	143,847	0,156279
3,680520	573,850851	144,003	0,154321
3,674579	569,460820	144,154	0,152416
3,668582	564,277614	144,306	0,150166
3,662578	560,010216	144,463	0,148314
3,656542	555,680939	144,614	0,146435
3,650557	551,718435	144,799	0,144715
3,644582	545,864685	144,950	0,142175
3,638586	540,926744	145,101	0,140032
3,632583	537,207256	145,253	0,138417
3,626555	533,731909	145,404	0,136909
3,620573	527,756651	145,556	0,134316
3,614565	523,245113	145,712	0,132358
3,608514	518,733574	145,862	0,130400
3,602566	513,673000	146,036	0,128204
3,596536	509,953512	146,188	0,126589
3,590619	504,771430	146,339	0,124340
3,584602	500,198013	146,506	0,122355
3,578555	495,564966	146,657	0,120345
3,572541	490,625900	146,836	0,118201
3,566551	486,296623	146,986	0,116322
3,560567	481,480190	147,138	0,114232
3,554566	476,603003	147,313	0,112115
3,548563	472,457112	147,464	0,110316
3,542569	468,554237	147,646	0,108622
3,536609	463,372156	147,798	0,106373
3,530591	459,042879	147,949	0,104494
3,524558	454,165692	148,115	0,102377
3,518603	449,288504	148,265	0,100261
3,512582	444,776966	148,440	0,098303
3,506561	440,874091	148,590	0,096609
3,500624	436,484060	148,741	0,094704
3,494618	431,485365	148,910	0,092534
3,488634	426,362912	149,062	0,090311
3,482602	423,375846	149,242	0,089015
3,476574	417,766237	149,393	0,086580
3,470566	412,949804	149,544	0,084490
3,464536	408,620527	149,719	0,082611
3,458570	403,805219	149,869	0,080521
3,452556	399,597449	150,043	0,078695
3,446583	395,268172	150,195	0,076816
3,440579	390,390985	150,346	0,074699
3,434576	385,696060	150,519	0,072662
3,428629	381,428661	150,670	0,070810
3,422599	376,733736	150,845	0,068772
3,416623	372,466338	150,997	0,066920
3,410589	367,588026	151,148	0,064803
3,404593	363,320628	151,308	0,062951
3,398593	358,930597	151,458	0,061045
3,392578	354,053409	151,618	0,058929
3,386613	349,663378	151,768	0,057023
3,380615	345,517488	151,918	0,055224
3,374582	340,396160	152,089	0,053001
3,368600	335,578602	152,240	0,050911
3,362650	331,860239	152,409	0,049297
3,356586	326,737786	152,560	0,047074
3,350604	323,140931	152,712	0,045513
3,344616	318,263744	152,893	0,043396
3,338648	313,995221	153,043	0,041543
3,332602	309,788576	153,216	0,039718
3,326640	305,337792	153,368	0,037786
3,320662	301,131147	153,519	0,035960
3,314676	297,167519	153,689	0,034240
3,308648	292,960874	153,840	0,032415
3,302634	287,778793	154,018	0,030166
3,296632	283,815164	154,170	0,028445
3,290599	279,364379	154,321	0,026514
3,284615	274,792087	154,502	0,024529
3,278630	269,975653	154,652	0,022439
3,272643	265,036587	154,815	0,020295
3,266626	260,829943	154,966	0,018470
3,260631	257,841752	155,119	0,017173
3,254633	252,110635	155,273	0,014686
3,248649	249,184323	155,423	0,013416
3,242643	244,062995	155,574	0,011193
3,236631	239,246562	155,747	0,009103
3,230650	235,344812	155,898	0,007409
3,224680	230,954781	156,060	0,005504
3,218617	227,235293	156,211	0,003890
3,212656	221,930579	156,362	0,001587
3,206659	218,272969	156,516	0,000000
3,200671	213,822185	156,667	-0,001932
3,194703	209,371400	156,842	-0,003863
3,188626	205,469650	156,993	-0,005557
3,182625	201,627529	157,144	-0,007224
3,176662	196,811096	157,312	-0,009314
3,170681	193,030854	157,462	-0,010955
3,164622	188,335928	157,625	-0,012993
3,158699	184,007776	157,775	-0,014871
3,152644	180,166781	157,926	-0,016538
3,146689	176,873695	158,106	-0,017967
3,140639	172,911191	158,256	-0,019687
3,134667	169,557352	158,419	-0,021143
3,128666	165,899743	158,569	-0,022730
3,122684	163,094938	158,720	-0,023947
3,116622	159,314696	158,871	-0,025588
3,110659	157,058927	159,021	-0,026567
3,104677	153,888474	159,173	-0,027943
3,098619	151,022915	159,345	-0,029187
3,092719	148,339619	159,495	-0,030351
3,086635	146,023095	159,671	-0,031356
3,080658	143,645818	159,821	-0,032388
3,074664	141,145908	159,972	-0,033473
3,068721	137,975455	160,126	-0,034849
3,062668	135,049143	160,276	-0,036119
3,056674	132,914882	160,452	-0,037045
3,050678	130,414972	160,603	-0,038130
3,044687	127,366026	160,755	-0,039454
3,038663	125,475905	160,918	-0,040274
3,032671	122,793734	161,069	-0,041438
3,026686	120,721351	161,226	-0,042337
3,020688	118,282195	161,377	-0,043396
3,014670	116,452828	161,527	-0,044190
3,008694	115,659652	161,705	-0,044534
3,002686	114,075551	161,856	-0,045222
2,996678	111,575641	162,012	-0,046307
2,990663	109,807028	162,164	-0,047074
2,984693	106,758083	162,314	-0,048397
2,978688	105,051348	162,500	-0,049138
2,972664	102,064282	162,650	-0,050435
2,966680	100,051528	162,817	-0,051308
2,960714	97,795759	162,969	-0,052287
2,954636	96,881075	163,119	-0,052684
2,948646	94,930201	163,273	-0,053531
2,942627	94,015517	163,425	-0,053928
2,936680	92,003888	163,575	-0,054801
2,930678	90,602049	163,752	-0,055409
2,924659	89,138330	163,902	-0,056044
2,918670	87,857998	164,070	-0,056600
2,912723	85,358088	164,220	-0,057685
2,906674	84,382650	164,372	-0,058108
2,900687	84,017002	164,544	-0,058267
2,894685	80,602409	164,694	-0,059749
2,888729	79,382831	164,860	-0,060278
2,882731	76,456518	165,012	-0,061548
2,876723	76,761413	165,162	-0,061416
2,870713	72,920417	165,328	-0,063083
2,864699	72,554769	165,478	-0,063242
2,858724	70,786155	165,658	-0,064009
2,852688	70,908788	165,809	-0,063956
2,846718	70,359753	165,960	-0,064194
2,840667	68,896034	166,137	-0,064830
2,834745	67,676456	166,289	-0,065359
2,828725	65,969722	166,465	-0,066100
2,822717	67,066667	166,616	-0,065624
2,816690	66,884406	166,768	-0,065703
2,810697	64,810898	166,919	-0,066603
2,804726	63,043410	167,070	-0,067370
2,798724	61,153289	167,232	-0,068190
2,792699	60,238605	167,382	-0,068587
2,786724	58,592625	167,533	-0,069301
2,780730	57,189660	167,703	-0,069910
2,774680	55,604434	167,853	-0,070598
2,768729	54,446735	168,027	-0,071101
2,762693	52,433981	168,178	-0,071974
2,756670	50,178211	168,330	-0,072953
2,750713	48,471477	168,510	-0,073694
2,744669	47,556794	168,661	-0,074091
2,738705	45,361778	168,821	-0,075043
2,732707	43,410903	168,972	-0,075890
2,726677	42,007939	169,124	-0,076499
2,720731	40,971747	169,289	-0,076949
2,714669	39,447275	169,440	-0,077610
2,708725	38,289576	169,590	-0,078113
2,702661	36,338701	169,758	-0,078959
2,696690	35,545525	169,908	-0,079304
2,690707	33,776912	170,083	-0,080071
2,684751	32,009424	170,234	-0,080838
2,678720	29,386881	170,385	-0,081977
2,672704	28,655584	170,559	-0,082294
2,666670	26,765463	170,709	-0,083114
2,660674	25,607764	170,880	-0,083617
2,654755	23,961784	171,031	-0,084331
2,648714	23,290116	171,182	-0,084623
2,642690	21,461874	171,360	-0,085416
2,636659	19,206104	171,511	-0,086395
2,630700	17,803139	171,689	-0,087004
2,624730	16,340546	171,840	-0,087639
2,618693	14,998335	172,021	-0,088221
2,612657	13,230847	172,173	-0,088988
2,606758	12,193530	172,325	-0,089438
2,600738	10,913198	172,506	-0,089994
2,594663	9,206464	172,656	-0,090735
2,588677	8,047640	172,821	-0,091238
2,582705	6,340906	172,972	-0,091979
2,576704	4,999820	173,124	-0,092561
2,570708	3,047820	173,279	-0,093408
2,564732	2,499910	173,429	-0,093646
2,558745	1,219578	173,579	-0,094201
2,552680	-1,280332	173,741	-0,095286
2,546749	-1,280332	173,892	-0,095286
2,540706	-2,499910	174,050	-0,095815
2,534686	-3,962504	174,200	-0,096450
2,528691	-6,219398	174,351	-0,097430
2,522721	-6,950695	174,516	-0,097747
2,516720	-7,804624	174,666	-0,098118
2,510730	-9,755499	174,836	-0,098964
2,504735	-10,426042	174,986	-0,099255
2,498680	-10,426042	175,136	-0,099255
2,492669	-9,632867	175,330	-0,098911
2,486746	-9,998515	175,481	-0,099070
2,480728	-9,450605	175,642	-0,098832
2,474682	-9,450605	175,794	-0,098832
2,468705	-9,389851	175,944	-0,098806
2,462684	-8,596675	176,115	-0,098461
2,456724	-8,718183	176,265	-0,098514
2,450694	-7,926132	176,431	-0,098170
2,444697	-8,170273	176,583	-0,098276
2,438694	-7,926132	176,735	-0,098170
2,432725	-7,681992	176,887	-0,098064
2,426710	-7,072203	177,038	-0,097800
2,420718	-7,316343	177,188	-0,097906
2,414695	-6,950695	177,369	-0,097747
2,408742	-6,524293	177,520	-0,097562
2,402730	-6,340906	177,688	-0,097482
2,396711	-5,731117	177,839	-0,097218
2,390718	-5,731117	177,989	-0,097218
2,384760	-5,670363	178,169	-0,097191
2,378722	-5,791871	178,320	-0,097244
2,372736	-4,999820	178,490	-0,096900
2,366765	-4,390031	178,641	-0,096636
2,360751	-4,024383	178,791	-0,096477
2,354697	-4,024383	178,952	-0,096477
2,348704	-4,450785	179,104	-0,096662
2,342724	-4,511539	179,280	-0,096688
2,336722	-4,145890	179,430	-0,096530
2,330715	-2,865558	179,582	-0,095974
2,324723	-3,475347	179,745	-0,096239
2,318732	-3,109699	179,897	-0,096080
2,312708	-3,596855	180,083	-0,096292
2,306674	-2,926312	180,233	-0,096000
2,300681	-3,170453	180,384	-0,096106
2,294670	-3,048945	180,550	-0,096054
2,288702	-2,683297	180,700	-0,095895
2,282712	-2,926312	180,877	-0,096000
2,276677	-2,011629	181,028	-0,095604
2,270712	-2,499910	181,179	-0,095815
2,264710	-1,341086	181,350	-0,095313
2,258693	-2,073508	181,501	-0,095630
2,252688	-2,073508	181,693	-0,095630
2,246733	-2,195015	181,844	-0,095683
2,240708	-1,768613	182,032	-0,095498
2,238698	-0,914684	182,083	-0,095127