File: Nanoindentation Datenauswertung/data/Drift-2, pressure off, chuck not activated
Drift test with MEMS displacement of 0,5 um, displacement data in [nm] and time increments of 30s
17.08.2022 16:24:45
eoh
0,046725	0,000000	22,440000	55,530000
-0,119150	1,000000	22,430000	55,515000
36,961022	2,000000	22,430000	55,530000
127,739281	3,000000	22,440000	55,530000
127,691388	4,000000	22,430000	55,530000
126,473021	5,000000	22,430000	55,515000
126,552454	6,000000	22,430000	55,475000
126,867851	7,000000	22,430000	55,515000
126,701976	8,000000	22,430000	55,450000
127,034895	9,000000	22,430000	55,490000
127,121337	10,000000	22,440000	55,495000
126,884205	11,000000	22,430000	55,475000
126,718329	12,000000	22,430000	55,490000
126,267429	13,000000	22,430000	55,460000
126,504560	14,000000	22,430000	55,460000
125,902970	15,000000	22,430000	55,460000
126,362048	16,000000	22,420000	55,460000
126,488206	17,000000	22,430000	55,450000
126,219535	18,000000	22,430000	55,435000
126,559463	19,000000	22,430000	55,460000
126,828134	20,000000	22,430000	55,460000
126,955461	21,000000	22,430000	55,435000
126,686790	22,000000	22,420000	55,435000
127,232310	23,000000	22,430000	55,420000
127,762644	24,000000	22,430000	55,450000
128,198359	25,000000	22,430000	55,435000
128,339704	26,000000	22,430000	55,405000
128,221722	27,000000	22,430000	55,395000
128,846675	28,000000	22,430000	55,435000
128,229899	29,000000	22,420000	55,405000
127,778998	30,000000	22,420000	55,395000
127,896980	31,000000	22,430000	55,405000
128,236908	32,000000	22,440000	55,400000
128,213545	33,000000	22,430000	55,405000
128,253261	34,000000	22,430000	55,380000
128,578004	35,000000	22,420000	55,395000
128,783596	36,000000	22,430000	55,380000
129,060444	37,000000	22,430000	55,380000
128,301155	38,000000	22,420000	55,365000
127,493972	39,000000	22,430000	55,380000
127,706573	40,000000	22,430000	55,365000
128,118926	41,000000	22,430000	55,365000
128,024307	42,000000	22,430000	55,365000
128,062855	43,000000	22,430000	55,355000
127,683211	44,000000	22,430000	55,365000
127,951882	45,000000	22,430000	55,310000
127,905157	46,000000	22,430000	55,355000
128,102572	47,000000	22,430000	55,355000
128,482216	48,000000	22,420000	55,340000
128,664446	49,000000	22,430000	55,340000
129,068621	50,000000	22,420000	55,325000
129,337293	51,000000	22,430000	55,325000
129,416726	52,000000	22,430000	55,310000
129,139877	53,000000	22,430000	55,340000
129,068621	54,000000	22,430000	55,310000
129,519522	55,000000	22,420000	55,325000
129,645681	56,000000	22,430000	55,300000
129,234496	57,000000	22,430000	55,300000
129,329116	58,000000	22,420000	55,310000
129,083807	59,000000	22,430000	55,310000
129,534708	60,000000	22,430000	55,300000
130,302174	61,000000	22,430000	55,300000
129,582601	62,000000	22,430000	55,300000
129,463451	63,000000	22,420000	55,300000
129,368832	64,000000	22,430000	55,300000
129,574424	65,000000	22,420000	55,300000
130,406138	66,000000	22,420000	55,285000
130,088405	67,000000	22,420000	55,300000
129,218143	68,000000	22,420000	55,270000
129,851273	69,000000	22,420000	55,310000
129,669043	70,000000	22,430000	55,285000
130,262457	71,000000	22,430000	55,285000
130,001962	72,000000	22,420000	55,285000
130,262457	73,000000	22,430000	55,285000
130,507766	74,000000	22,420000	55,260000
130,983198	75,000000	22,420000	55,270000
130,429501	76,000000	22,430000	55,285000
130,270634	77,000000	22,430000	55,260000
131,031091	78,000000	22,430000	55,245000
130,081396	79,000000	22,430000	55,260000
129,978600	80,000000	22,430000	55,260000
129,914352	81,000000	22,430000	55,230000
130,674809	82,000000	22,430000	55,245000
131,656044	83,000000	22,420000	55,245000
131,616328	84,000000	22,420000	55,205000
131,813743	85,000000	22,420000	55,220000
132,067229	86,000000	22,430000	55,230000
131,497178	87,000000	22,430000	55,245000
131,727301	88,000000	22,420000	55,260000
131,687584	89,000000	22,420000	55,230000
132,391971	90,000000	22,420000	55,220000
131,813743	91,000000	22,420000	55,230000
132,059052	92,000000	22,430000	55,220000
133,032110	93,000000	22,420000	55,220000
133,237702	94,000000	22,420000	55,190000
132,771615	95,000000	22,430000	55,220000
133,071826	96,000000	22,420000	55,220000
132,542660	97,000000	22,420000	55,220000
132,969030	98,000000	22,420000	55,220000
132,637279	99,000000	22,420000	55,205000
132,905951	100,000000	22,430000	55,190000
132,566023	101,000000	22,420000	55,175000
132,605740	102,000000	22,430000	55,190000
132,075406	103,000000	22,410000	55,175000
132,391971	104,000000	22,420000	55,205000
132,423510	105,000000	22,420000	55,165000
131,821920	106,000000	22,430000	55,165000
132,249458	107,000000	22,420000	55,175000
132,676996	108,000000	22,420000	55,165000
132,549669	109,000000	22,420000	55,175000
132,842872	110,000000	22,420000	55,175000
132,748252	111,000000	22,420000	55,150000
132,763438	112,000000	22,420000	55,175000
133,111543	113,000000	22,420000	55,175000
133,507541	114,000000	22,420000	55,190000
133,214339	115,000000	22,420000	55,175000
133,237702	116,000000	22,420000	55,165000
133,096357	117,000000	22,420000	55,165000
133,301949	118,000000	22,420000	55,150000
133,673417	119,000000	22,420000	55,150000
134,259822	120,000000	22,420000	55,150000
134,457237	121,000000	22,420000	55,150000
134,472423	122,000000	22,420000	55,135000
135,019111	123,000000	22,420000	55,150000
133,824107	124,000000	22,420000	55,135000
133,784390	125,000000	22,420000	55,150000
133,547258	126,000000	22,430000	55,150000
133,800744	127,000000	22,410000	55,150000
134,243468	128,000000	22,420000	55,135000
134,251645	129,000000	22,420000	55,125000
134,140672	130,000000	22,420000	55,110000
134,465414	131,000000	22,410000	55,135000
133,776213	132,000000	22,420000	55,150000
133,974796	133,000000	22,420000	55,110000
134,805342	134,000000	22,420000	55,135000
134,346264	135,000000	22,420000	55,125000
133,729488	136,000000	22,430000	55,110000
134,061238	137,000000	22,420000	55,125000
133,570621	138,000000	22,420000	55,125000
133,539081	139,000000	22,420000	55,135000
133,815930	140,000000	22,420000	55,125000
134,401166	141,000000	22,420000	55,125000
134,512139	142,000000	22,420000	55,125000
135,264419	143,000000	22,430000	55,150000
135,264419	144,000000	22,420000	55,095000
135,612524	145,000000	22,420000	55,125000
135,644064	146,000000	22,410000	55,135000
135,367216	147,000000	22,420000	55,125000
135,422118	148,000000	22,420000	55,125000
135,176809	149,000000	22,420000	55,125000
134,639466	150,000000	22,420000	55,095000
134,765625	151,000000	22,410000	55,110000
135,683781	152,000000	22,430000	55,125000
135,398755	153,000000	22,420000	55,110000
135,130084	154,000000	22,420000	55,135000
135,809939	155,000000	22,420000	55,125000
135,335676	156,000000	22,420000	55,110000
136,379990	157,000000	22,420000	55,135000
136,316911	158,000000	22,430000	55,150000
136,688378	159,000000	22,420000	55,135000
136,569228	160,000000	22,430000	55,125000
136,601936	161,000000	22,420000	55,085000
135,841479	162,000000	22,420000	55,135000
136,038894	163,000000	22,420000	55,135000
136,292380	164,000000	22,420000	55,135000
136,482786	165,000000	22,410000	55,125000
136,443070	166,000000	22,420000	55,150000
137,084377	167,000000	22,420000	55,135000
136,086788	168,000000	22,410000	55,135000
136,474609	169,000000	22,420000	55,150000
136,497972	170,000000	22,410000	55,150000
136,688378	171,000000	22,410000	55,110000
137,344871	172,000000	22,420000	55,125000
137,321509	173,000000	22,420000	55,150000
137,344871	174,000000	22,420000	55,125000
137,036483	175,000000	22,420000	55,135000
136,933687	176,000000	22,420000	55,125000
137,052837	177,000000	22,420000	55,150000
136,941864	178,000000	22,420000	55,135000
137,076200	179,000000	22,420000	55,150000
137,353048	180,000000	22,430000	55,150000
137,732693	181,000000	22,430000	55,150000
137,685967	182,000000	22,420000	55,135000
137,677790	183,000000	22,420000	55,135000
137,661437	184,000000	22,420000	55,125000
137,432482	185,000000	22,420000	55,150000
136,601936	186,000000	22,420000	55,150000
136,822714	187,000000	22,420000	55,150000
137,131102	188,000000	22,420000	55,165000
137,061014	189,000000	22,420000	55,150000
137,954639	190,000000	22,420000	55,150000
137,464021	191,000000	22,420000	55,135000
138,009541	192,000000	22,420000	55,150000
137,638074	193,000000	22,410000	55,165000
137,409119	194,000000	22,400000	55,145000
136,545866	195,000000	22,420000	55,165000
136,815705	196,000000	22,420000	55,165000
137,266606	197,000000	22,420000	55,175000
137,202359	198,000000	22,420000	55,190000
137,147456	199,000000	22,420000	55,205000
137,384588	200,000000	22,420000	55,190000
137,313332	201,000000	22,410000	55,175000
137,558640	202,000000	22,410000	55,175000
137,250252	203,000000	22,420000	55,190000
137,558640	204,000000	22,420000	55,175000
137,795772	205,000000	22,420000	55,205000
137,669613	206,000000	22,420000	55,190000
137,598357	207,000000	22,410000	55,205000
137,986179	208,000000	22,430000	55,205000
137,432482	209,000000	22,420000	55,205000
138,199948	210,000000	22,410000	55,205000
138,334283	211,000000	22,410000	55,205000
139,101749	212,000000	22,410000	55,230000
138,872795	213,000000	22,430000	55,205000
138,833078	214,000000	22,410000	55,220000
138,705751	215,000000	22,410000	55,230000
138,627486	216,000000	22,420000	55,220000
139,441677	217,000000	22,420000	55,230000
139,371589	218,000000	22,420000	55,245000
139,378598	219,000000	22,420000	55,245000
139,331872	220,000000	22,410000	55,245000
139,062033	221,000000	22,420000	55,245000
139,070210	222,000000	22,420000	55,245000
139,577181	223,000000	22,420000	55,245000
139,220899	224,000000	22,410000	55,230000
138,778175	225,000000	22,420000	55,270000
138,856441	226,000000	22,420000	55,245000
139,441677	227,000000	22,410000	55,230000
139,537464	228,000000	22,420000	55,260000
138,824901	229,000000	22,420000	55,245000
138,896157	230,000000	22,420000	55,285000
139,197537	231,000000	22,420000	55,260000
139,307342	232,000000	22,420000	55,260000
139,711517	233,000000	22,420000	55,270000
139,711517	234,000000	22,420000	55,285000
139,663623	235,000000	22,420000	55,230000
140,003551	236,000000	22,420000	55,270000
139,797959	237,000000	22,410000	55,270000
140,082984	238,000000	22,420000	55,300000
140,668221	239,000000	22,420000	55,270000
140,613319	240,000000	22,420000	55,285000
140,992963	241,000000	22,420000	55,285000
140,193957	242,000000	22,420000	55,285000
140,502346	243,000000	22,410000	55,285000
140,589956	244,000000	22,410000	55,310000
140,130878	245,000000	22,410000	55,300000
140,739477	246,000000	22,420000	55,325000
140,613319	247,000000	22,410000	55,310000
140,462629	248,000000	22,420000	55,300000
140,368010	249,000000	22,410000	55,310000
140,391373	250,000000	22,420000	55,300000
140,771017	251,000000	22,420000	55,310000
140,082984	252,000000	22,430000	55,325000
140,185781	253,000000	22,420000	55,325000
140,122701	254,000000	22,420000	55,355000
140,233674	255,000000	22,410000	55,325000
140,495337	256,000000	22,430000	55,325000
140,495337	257,000000	22,420000	55,355000
140,589956	258,000000	22,420000	55,380000
140,565425	259,000000	22,420000	55,340000
140,731300	260,000000	22,420000	55,340000
141,167016	261,000000	22,410000	55,325000
142,124888	262,000000	22,420000	55,355000
141,634270	263,000000	22,420000	55,325000
141,563014	264,000000	22,420000	55,365000
141,112113	265,000000	22,420000	55,355000
141,357422	266,000000	22,420000	55,365000
141,539651	267,000000	22,420000	55,365000
140,984786	268,000000	22,420000	55,365000
141,175193	269,000000	22,420000	55,365000
141,190378	270,000000	22,420000	55,365000
141,404147	271,000000	22,420000	55,380000
141,697350	272,000000	22,420000	55,380000
141,032680	273,000000	22,420000	55,380000
140,137887	274,000000	22,420000	55,380000
140,929884	275,000000	22,420000	55,395000
141,009317	276,000000	22,420000	55,395000
140,661212	277,000000	22,410000	55,380000
140,605142	278,000000	22,410000	55,395000
141,040857	279,000000	22,420000	55,380000
141,483581	280,000000	22,430000	55,395000
141,334059	281,000000	22,420000	55,365000
141,261635	282,000000	22,420000	55,395000
140,629673	283,000000	22,420000	55,380000
140,914698	284,000000	22,420000	55,435000
141,167016	285,000000	22,420000	55,435000
140,779194	286,000000	22,420000	55,420000
140,810734	287,000000	22,420000	55,420000
140,589956	288,000000	22,420000	55,405000
141,158839	289,000000	22,420000	55,420000
142,085171	290,000000	22,430000	55,420000
141,745243	291,000000	22,420000	55,420000
141,831685	292,000000	22,420000	55,460000
141,680996	293,000000	22,420000	55,475000
142,133065	294,000000	22,430000	55,450000
141,198555	295,000000	22,420000	55,435000
141,190378	296,000000	22,420000	55,475000
140,368010	297,000000	22,430000	55,460000
140,518700	298,000000	22,420000	55,460000
140,676398	299,000000	22,420000	55,460000
141,286166	300,000000	22,420000	55,460000
140,747654	301,000000	22,420000	55,475000
141,428678	302,000000	22,420000	55,490000
141,112113	303,000000	22,420000	55,475000
140,510523	304,000000	22,420000	55,490000
141,380785	305,000000	22,420000	55,505000
141,341068	306,000000	22,420000	55,460000
141,286166	307,000000	22,420000	55,490000
141,617916	308,000000	22,420000	55,490000
141,364431	309,000000	22,420000	55,505000
141,452041	310,000000	22,420000	55,505000
141,800146	311,000000	22,420000	55,505000
140,739477	312,000000	22,420000	55,475000
140,525708	313,000000	22,420000	55,515000
140,818911	314,000000	22,420000	55,515000
140,795548	315,000000	22,420000	55,505000
139,743057	316,000000	22,420000	55,530000
139,640261	317,000000	22,420000	55,515000
139,173006	318,000000	22,420000	55,530000
139,473217	319,000000	22,420000	55,545000
139,600544	320,000000	22,420000	55,530000
140,170595	321,000000	22,420000	55,530000
139,632084	322,000000	22,420000	55,505000
140,311939	323,000000	22,410000	55,515000
140,114524	324,000000	22,430000	55,545000
140,731300	325,000000	22,420000	55,545000
140,137887	326,000000	22,420000	55,545000
139,647269	327,000000	22,420000	55,545000
140,447443	328,000000	22,420000	55,545000
139,980188	329,000000	22,420000	55,585000
139,489571	330,000000	22,430000	55,570000
139,996542	331,000000	22,420000	55,570000
139,283979	332,000000	22,420000	55,555000
139,814313	333,000000	22,420000	55,570000
139,655446	334,000000	22,420000	55,585000
139,552650	335,000000	22,420000	55,585000
139,521111	336,000000	22,420000	55,585000
139,640261	337,000000	22,420000	55,585000
140,210311	338,000000	22,430000	55,585000
140,495337	339,000000	22,420000	55,570000
140,241851	340,000000	22,420000	55,585000
140,265214	341,000000	22,420000	55,585000
140,091161	342,000000	22,420000	55,585000
140,202134	343,000000	22,420000	55,625000
140,359833	344,000000	22,430000	55,610000
139,917109	345,000000	22,420000	55,625000
139,940472	346,000000	22,420000	55,625000
139,877392	347,000000	22,420000	55,640000
140,613319	348,000000	22,420000	55,610000
140,636681	349,000000	22,420000	55,640000
140,422912	350,000000	22,420000	55,625000
140,273391	351,000000	22,420000	55,665000
140,810734	352,000000	22,420000	55,640000
140,755831	353,000000	22,420000	55,665000
141,080573	354,000000	22,420000	55,640000
140,992963	355,000000	22,430000	55,650000
140,803725	356,000000	22,430000	55,640000
140,961423	357,000000	22,420000	55,650000
141,395970	358,000000	22,420000	55,680000
141,206732	359,000000	22,420000	55,650000
140,827088	360,000000	22,430000	55,650000
140,455620	361,000000	22,420000	55,640000
140,707938	362,000000	22,420000	55,665000
140,177604	363,000000	22,420000	55,705000
140,344647	364,000000	22,420000	55,665000
140,336470	365,000000	22,420000	55,690000
140,177604	366,000000	22,430000	55,680000
140,716115	367,000000	22,420000	55,690000
140,992963	368,000000	22,420000	55,705000
141,095759	369,000000	22,430000	55,690000
140,906521	370,000000	22,430000	55,690000
140,581779	371,000000	22,420000	55,720000
140,644858	372,000000	22,420000	55,735000
140,835265	373,000000	22,430000	55,720000
140,328293	374,000000	22,420000	55,690000
140,137887	375,000000	22,420000	55,720000
141,024503	376,000000	22,430000	55,735000
140,881990	377,000000	22,420000	55,735000
141,531474	378,000000	22,420000	55,720000
141,230095	379,000000	22,420000	55,735000
140,992963	380,000000	22,420000	55,705000
140,945070	381,000000	22,430000	55,735000
140,938061	382,000000	22,430000	55,750000
140,779194	383,000000	22,430000	55,735000
140,462629	384,000000	22,420000	55,750000
140,114524	385,000000	22,420000	55,750000
139,552650	386,000000	22,420000	55,750000
140,210311	387,000000	22,430000	55,750000
139,537464	388,000000	22,420000	55,760000
139,386775	389,000000	22,430000	55,800000
139,433500	390,000000	22,420000	55,735000
139,647269	391,000000	22,420000	55,760000
139,133289	392,000000	22,420000	55,760000
139,441677	393,000000	22,420000	55,775000
139,869215	394,000000	22,420000	55,760000
139,386775	395,000000	22,420000	55,760000
139,441677	396,000000	22,420000	55,785000
139,671800	397,000000	22,430000	55,750000
139,426491	398,000000	22,430000	55,775000
139,481394	399,000000	22,420000	55,800000
139,338881	400,000000	22,420000	55,775000
139,227908	401,000000	22,430000	55,800000
139,118103	402,000000	22,420000	55,800000
139,109926	403,000000	22,420000	55,785000
138,840087	404,000000	22,420000	55,775000
138,927697	405,000000	22,420000	55,815000
139,078387	406,000000	22,420000	55,815000
139,497748	407,000000	22,420000	55,785000
139,323695	408,000000	22,430000	55,825000
139,118103	409,000000	22,420000	55,840000
139,252439	410,000000	22,420000	55,800000
139,433500	411,000000	22,430000	55,815000
139,014139	412,000000	22,420000	55,815000
138,753645	413,000000	22,430000	55,825000
139,505925	414,000000	22,420000	55,825000
139,307342	415,000000	22,420000	55,840000
139,197537	416,000000	22,420000	55,840000
138,722105	417,000000	22,420000	55,855000
138,801538	418,000000	22,420000	55,840000
138,927697	419,000000	22,420000	55,840000
138,801538	420,000000	22,420000	55,870000
139,275802	421,000000	22,430000	55,870000
139,758242	422,000000	22,420000	55,870000
139,315518	423,000000	22,420000	55,870000
139,164829	424,000000	22,420000	55,855000
138,097152	425,000000	22,420000	55,840000
138,959237	426,000000	22,430000	55,855000
138,674211	427,000000	22,420000	55,870000
138,808547	428,000000	22,420000	55,885000
139,101749	429,000000	22,420000	55,885000
139,663623	430,000000	22,440000	55,885000
140,154241	431,000000	22,430000	55,870000
140,137887	432,000000	22,420000	55,870000
140,241851	433,000000	22,420000	55,895000
139,283979	434,000000	22,420000	55,895000
139,386775	435,000000	22,420000	55,895000
140,137887	436,000000	22,420000	55,895000
140,146064	437,000000	22,420000	55,910000
140,257037	438,000000	22,420000	55,910000
140,106347	439,000000	22,430000	55,895000
139,900755	440,000000	22,420000	55,910000
140,137887	441,000000	22,420000	55,935000
139,592367	442,000000	22,430000	55,935000
139,481394	443,000000	22,420000	55,935000
139,125112	444,000000	22,420000	55,950000
139,338881	445,000000	22,420000	55,950000
138,833078	446,000000	22,420000	55,925000
138,556229	447,000000	22,420000	55,965000
138,460442	448,000000	22,420000	55,965000
138,698742	449,000000	22,430000	55,965000
138,738459	450,000000	22,430000	55,935000
138,334283	451,000000	22,430000	55,950000
138,801538	452,000000	22,430000	55,925000
138,382177	453,000000	22,430000	55,965000
138,579592	454,000000	22,430000	55,950000
138,587769	455,000000	22,420000	55,935000
138,548052	456,000000	22,420000	55,935000
138,730282	457,000000	22,430000	55,975000
138,484973	458,000000	22,420000	55,965000
138,097152	459,000000	22,430000	55,965000
138,183594	460,000000	22,420000	55,950000
138,263027	461,000000	22,420000	55,950000
138,508336	462,000000	22,420000	55,950000
138,271204	463,000000	22,420000	56,020000
138,634495	464,000000	22,420000	55,990000
139,315518	465,000000	22,430000	55,990000
138,879803	466,000000	22,430000	55,965000
139,244262	467,000000	22,430000	55,990000
139,410138	468,000000	22,430000	55,990000
138,959237	469,000000	22,420000	55,975000
138,382177	470,000000	22,420000	55,990000
138,160231	471,000000	22,420000	56,005000
138,539876	472,000000	22,420000	56,005000
138,168408	473,000000	22,420000	56,020000
138,199948	474,000000	22,420000	56,005000
137,883383	475,000000	22,430000	55,990000
138,208125	476,000000	22,420000	56,005000
138,382177	477,000000	22,420000	55,990000
138,088975	478,000000	22,420000	56,020000
138,105329	479,000000	22,430000	56,020000
138,215133	480,000000	22,430000	56,005000
137,883383	481,000000	22,420000	56,020000
138,271204	482,000000	22,430000	56,030000
138,105329	483,000000	22,430000	56,005000
137,709330	484,000000	22,420000	56,005000
138,183594	485,000000	22,430000	56,045000
138,105329	486,000000	22,420000	56,045000
138,587769	487,000000	22,430000	56,060000
138,145045	488,000000	22,420000	56,045000
138,247841	489,000000	22,420000	56,030000
137,717507	490,000000	22,430000	56,045000
138,009541	491,000000	22,420000	56,030000
137,550464	492,000000	22,420000	56,045000
138,097152	493,000000	22,420000	56,030000
138,168408	494,000000	22,430000	56,020000
137,724516	495,000000	22,420000	56,030000
137,447667	496,000000	22,420000	56,060000
137,107740	497,000000	22,430000	56,060000
136,396344	498,000000	22,430000	56,070000
136,562220	499,000000	22,430000	56,060000
136,751458	500,000000	22,420000	56,070000
137,147456	501,000000	22,430000	56,045000
137,376411	502,000000	22,440000	56,085000
137,432482	503,000000	22,420000	56,070000
137,258429	504,000000	22,420000	56,085000
137,329686	505,000000	22,420000	56,100000
137,518924	506,000000	22,420000	56,085000
137,646251	507,000000	22,430000	56,100000
137,906745	508,000000	22,420000	56,070000
137,242075	509,000000	22,420000	56,100000
137,598357	510,000000	22,430000	56,125000
137,432482	511,000000	22,420000	56,060000
137,226890	512,000000	22,430000	56,125000
137,510747	513,000000	22,430000	56,070000
137,329686	514,000000	22,420000	56,125000
136,601936	515,000000	22,420000	56,110000
137,084377	516,000000	22,430000	56,140000
137,162642	517,000000	22,430000	56,140000
137,717507	518,000000	22,430000	56,110000
137,646251	519,000000	22,420000	56,110000
137,218713	520,000000	22,420000	56,110000
137,369402	521,000000	22,420000	56,110000
137,036483	522,000000	22,420000	56,140000
137,574994	523,000000	22,420000	56,125000
137,226890	524,000000	22,430000	56,110000
137,250252	525,000000	22,420000	56,125000
136,782998	526,000000	22,430000	56,125000
137,178996	527,000000	22,430000	56,125000
137,558640	528,000000	22,420000	56,140000
137,510747	529,000000	22,430000	56,140000
136,782998	530,000000	22,430000	56,140000
137,124094	531,000000	22,420000	56,110000
136,981581	532,000000	22,420000	56,170000
136,680201	533,000000	22,420000	56,140000
136,363636	534,000000	22,430000	56,155000
136,981581	535,000000	22,430000	56,140000
136,719918	536,000000	22,430000	56,140000
136,434893	537,000000	22,430000	56,155000
136,316911	538,000000	22,420000	56,155000
136,214115	539,000000	22,420000	56,155000
136,008523	540,000000	22,430000	56,180000
135,256243	541,000000	22,430000	56,180000
135,557622	542,000000	22,420000	56,170000
135,367216	543,000000	22,420000	56,155000
135,248066	544,000000	22,420000	56,170000
135,929089	545,000000	22,430000	56,195000
136,047071	546,000000	22,430000	56,180000
136,474609	547,000000	22,430000	56,195000
135,453658	548,000000	22,430000	56,195000
135,098544	549,000000	22,420000	56,195000
134,924492	550,000000	22,430000	56,180000
134,599750	551,000000	22,430000	56,180000
134,853235	552,000000	22,420000	56,180000
135,359039	553,000000	22,430000	56,195000
135,382401	554,000000	22,430000	56,180000
134,583396	555,000000	22,420000	56,180000
134,029699	556,000000	22,430000	56,195000
134,568210	557,000000	22,420000	56,210000
134,734085	558,000000	22,430000	56,195000
135,224703	559,000000	22,430000	56,180000
135,350862	560,000000	22,420000	56,195000
134,741094	561,000000	22,420000	56,195000
135,145270	562,000000	22,430000	56,195000
135,319322	563,000000	22,430000	56,180000
135,193163	564,000000	22,420000	56,220000
135,264419	565,000000	22,430000	56,195000
134,924492	566,000000	22,430000	56,220000
135,074013	567,000000	22,420000	56,210000
134,813519	568,000000	22,430000	56,195000
135,461835	569,000000	22,420000	56,210000
134,884775	570,000000	22,420000	56,195000
135,438472	571,000000	22,430000	56,195000
135,279605	572,000000	0,040000	0,030000
134,686192	573,000000	488,930000	0,000000
134,686192	574,000000	488,350000	0,000000
134,433874	575,000000	488,350000	0,000000
134,543679	576,000000	488,930000	0,000000
134,440883	577,000000	488,930000	0,000000
134,899961	578,000000	488,350000	0,000000
134,679183	579,000000	487,530000	0,000000
135,239889	580,000000	488,140000	0,000000
135,350862	581,000000	489,390000	0,000000
135,327499	582,000000	0,000000	0,000000
135,161623	583,000000	1,230000	163,915000
134,931500	584,000000	1,230000	163,915000
135,105553	585,000000	1,230000	163,915000
134,575219	586,000000	1,230000	163,915000
134,884775	587,000000	1,230000	163,915000
134,180388	588,000000	1,230000	163,915000
134,725908	589,000000	1,230000	163,915000
134,251645	590,000000	1,230000	163,915000
134,124318	591,000000	1,230000	163,915000
134,614935	592,000000	1,230000	163,915000
134,876598	593,000000	1,230000	163,915000
134,512139	594,000000	1,230000	163,915000
133,776213	595,000000	1,230000	163,915000
133,768036	596,000000	1,230000	163,915000
133,618515	597,000000	1,230000	163,915000
133,926903	598,000000	1,230000	163,915000
133,373206	599,000000	1,230000	163,915000
132,787969	600,000000	1,230000	163,915000
132,945668	601,000000	1,230000	163,915000
132,985384	602,000000	1,230000	163,915000
133,230693	603,000000	1,230000	163,915000
132,676996	604,000000	1,230000	163,915000
132,771615	605,000000	1,230000	163,915000
132,842872	606,000000	1,230000	163,915000
133,333489	607,000000	1,230000	163,915000
132,629102	608,000000	1,230000	163,915000
132,851049	609,000000	1,230000	163,915000
133,373206	610,000000	1,230000	163,915000
133,285595	611,000000	1,230000	163,915000
133,341666	612,000000	1,230000	163,915000
132,811332	613,000000	1,230000	163,915000
133,530904	614,000000	1,230000	163,915000
133,736496	615,000000	1,230000	163,915000
133,530904	616,000000	1,230000	163,915000
133,333489	617,000000	1,230000	163,915000
133,063649	618,000000	1,230000	163,915000
133,381383	619,000000	1,230000	163,915000
133,001738	620,000000	1,230000	163,915000
133,056641	621,000000	1,230000	163,915000
133,001738	622,000000	1,230000	163,915000
133,325312	623,000000	1,230000	163,915000
133,167614	624,000000	1,230000	163,915000
132,723722	625,000000	1,230000	163,915000
133,008747	626,000000	1,230000	163,915000
131,964433	627,000000	1,230000	163,915000
132,297352	628,000000	1,230000	163,915000
132,368608	629,000000	1,230000	163,915000
131,964433	630,000000	1,230000	163,915000
132,407156	631,000000	5,560000	0,115000
132,518129	632,000000	5,560000	0,115000
132,637279	633,000000	5,560000	0,115000
132,905951	634,000000	5,560000	0,115000
133,341666	635,000000	5,560000	0,115000
132,905951	636,000000	5,560000	0,115000
133,063649	637,000000	5,560000	0,115000
132,937491	638,000000	5,560000	0,115000
132,106945	639,000000	5,560000	0,115000
132,209741	640,000000	363,710000	156,715000
131,861637	641,000000	363,710000	156,715000
132,463227	642,000000	363,710000	156,715000
132,566023	643,000000	363,710000	156,715000
132,035689	644,000000	363,710000	156,715000
132,431687	645,000000	363,710000	156,715000
132,826518	646,000000	363,710000	156,715000
132,897774	647,000000	363,710000	156,715000
132,676996	648,000000	5,350000	8,745000
132,470236	649,000000	5,350000	8,745000
131,386205	650,000000	5,350000	8,745000
132,407156	651,000000	5,350000	8,745000
131,386205	652,000000	5,350000	8,745000
131,861637	653,000000	5,350000	8,745000
131,362842	654,000000	5,350000	8,745000
130,943481	655,000000	5,350000	8,745000
131,465638	656,000000	5,350000	8,745000
131,584788	657,000000	5,350000	8,745000
131,276400	658,000000	5,350000	8,745000
131,710947	659,000000	5,350000	8,745000
131,671230	660,000000	5,350000	8,745000
131,536894	661,000000	5,350000	8,745000
131,481992	662,000000	5,350000	8,745000
131,599974	663,000000	5,350000	8,745000
131,434098	664,000000	5,350000	8,745000
131,244860	665,000000	5,350000	8,745000
131,949247	666,000000	5,350000	8,745000
131,656044	667,000000	5,350000	8,745000
131,639690	668,000000	5,350000	8,745000
132,043866	669,000000	5,350000	8,745000
131,386205	670,000000	5,350000	8,745000
131,568434	671,000000	5,350000	8,745000
131,101179	672,000000	5,350000	8,745000
131,006560	673,000000	5,350000	8,745000
130,809145	674,000000	5,350000	8,745000
130,580190	675,000000	5,350000	8,745000
131,022914	676,000000	5,350000	8,745000
130,729712	677,000000	5,350000	8,745000
130,635093	678,000000	5,350000	8,745000
130,911941	679,000000	5,350000	8,745000
130,729712	680,000000	5,350000	8,745000
130,580190	681,000000	5,350000	8,745000
130,397961	682,000000	5,350000	8,745000
131,054454	683,000000	5,350000	8,745000
130,746066	684,000000	5,350000	8,745000
130,595376	685,000000	5,350000	8,745000
130,792791	686,000000	5,350000	8,745000
131,188790	687,000000	5,350000	8,745000
131,085994	688,000000	5,350000	8,745000
131,236683	689,000000	75,470000	20,560000
131,410736	690,000000	2,460000	288,240000
131,434098	691,000000	2,460000	288,240000
131,513532	692,000000	2,460000	288,240000
131,481992	693,000000	2,460000	288,240000
131,299763	694,000000	2,460000	288,240000
130,983198	695,000000	2,460000	288,240000
131,410736	696,000000	2,460000	288,240000
132,115122	697,000000	2,460000	288,240000
132,146662	698,000000	0,000000	3,170000
131,884999	699,000000	315,210000	19,745000
131,949247	700,000000	315,210000	19,745000
131,346488	701,000000	315,210000	19,745000
131,528717	702,000000	315,210000	19,745000
131,244860	703,000000	315,210000	19,745000
131,727301	704,000000	315,210000	19,745000
131,465638	705,000000	315,210000	19,745000
131,679407	706,000000	315,210000	19,745000
132,090591	707,000000	315,210000	19,745000
131,291586	708,000000	315,210000	19,745000
131,624505	709,000000	315,210000	19,745000
131,553248	710,000000	315,210000	19,745000
131,410736	711,000000	315,210000	19,745000
130,232085	712,000000	315,210000	19,745000
130,777605	713,000000	315,210000	19,745000
130,991374	714,000000	315,210000	19,745000
130,366421	715,000000	315,210000	19,745000
131,465638	716,000000	315,210000	19,745000
131,371019	717,000000	315,210000	19,745000
131,149073	718,000000	315,210000	19,745000
131,133887	719,000000	315,210000	19,745000
131,125710	720,000000	315,210000	19,745000
130,865216	721,000000	315,210000	19,745000
130,429501	722,000000	315,210000	19,745000
130,310351	723,000000	315,210000	19,745000
131,014737	724,000000	315,210000	19,745000
130,406138	725,000000	315,210000	19,745000
130,262457	726,000000	315,210000	19,745000
130,507766	727,000000	315,210000	19,745000
130,903764	728,000000	315,210000	19,745000
130,445855	729,000000	315,210000	19,745000
129,970423	730,000000	315,210000	19,745000
129,819733	731,000000	315,210000	19,745000
130,341890	732,000000	315,210000	19,745000
129,930706	733,000000	315,210000	19,745000
130,136298	734,000000	315,210000	19,745000
130,302174	735,000000	315,210000	19,745000
129,978600	736,000000	315,210000	19,745000
130,026493	737,000000	315,210000	19,745000
130,524120	738,000000	315,210000	19,745000
129,993786	739,000000	315,210000	19,745000
130,429501	740,000000	315,210000	19,745000
130,302174	741,000000	315,210000	19,745000
130,207555	742,000000	315,210000	19,745000
130,295165	743,000000	315,210000	19,745000
130,136298	744,000000	315,210000	19,745000
129,400372	745,000000	315,210000	19,745000
129,313930	746,000000	315,210000	19,745000
129,060444	747,000000	0,000000	0,000000
128,680800	748,000000	327,830000	181,855000
128,545296	749,000000	327,830000	181,855000
129,123523	750,000000	327,830000	181,855000
128,830321	751,000000	327,830000	181,855000
129,408549	752,000000	327,830000	181,855000
129,385186	753,000000	327,830000	181,855000
129,274213	754,000000	327,830000	181,855000
129,551062	755,000000	327,830000	181,855000
129,914352	756,000000	0,000000	227,955000
129,274213	757,000000	19,700000	1,230000
129,075630	758,000000	19,700000	1,230000
129,060444	759,000000	19,700000	1,230000
128,427314	760,000000	19,700000	1,230000
128,989188	761,000000	19,700000	1,230000
129,044090	762,000000	19,700000	1,230000
128,641083	763,000000	19,700000	1,230000
129,171417	764,000000	19,700000	1,230000
129,028904	765,000000	19,700000	1,230000
129,423735	766,000000	19,700000	1,230000
129,075630	767,000000	19,700000	1,230000
130,010139	768,000000	19,700000	1,230000
130,033502	769,000000	19,700000	1,230000
129,218143	770,000000	19,700000	1,230000
128,649260	771,000000	19,700000	1,230000
128,823312	772,000000	19,700000	1,230000
129,851273	773,000000	19,700000	1,230000
129,068621	774,000000	19,700000	1,230000
128,886392	775,000000	19,700000	1,230000
129,274213	776,000000	19,700000	1,230000
129,297576	777,000000	19,700000	1,230000
129,171417	778,000000	19,700000	1,230000
128,972834	779,000000	19,700000	1,230000
128,972834	780,000000	19,700000	1,230000
127,881794	781,000000	19,700000	1,230000
128,062855	782,000000	19,700000	1,230000
128,047669	783,000000	19,700000	1,230000
127,913334	784,000000	19,700000	1,230000
127,636485	785,000000	19,700000	1,230000
127,454256	786,000000	19,700000	1,230000
127,500981	787,000000	19,700000	1,230000
127,842077	788,000000	19,700000	1,230000
127,794184	789,000000	19,700000	1,230000
127,905157	790,000000	19,700000	1,230000
128,024307	791,000000	19,700000	1,230000
128,332695	792,000000	19,700000	1,230000
128,055846	793,000000	19,700000	1,230000
128,624729	794,000000	19,700000	1,230000
128,039492	795,000000	19,700000	1,230000
128,276624	796,000000	19,700000	1,230000
128,198359	797,000000	19,700000	1,230000
127,794184	798,000000	19,700000	1,230000
127,319920	799,000000	19,700000	1,230000
126,678613	800,000000	19,700000	1,230000
126,693799	801,000000	19,700000	1,230000
127,366645	802,000000	19,700000	1,230000
127,208947	803,000000	19,700000	1,230000
126,749869	804,000000	19,700000	1,230000
126,726506	805,000000	455,910000	315,945000
126,884205	806,000000	82,210000	0,000000
127,651671	807,000000	2,130000	9,850000
127,842077	808,000000	2,130000	9,850000
127,557052	809,000000	2,130000	9,850000
127,366645	810,000000	2,130000	9,850000
127,706573	811,000000	2,130000	9,850000
127,991599	812,000000	2,130000	9,850000
127,303566	813,000000	2,130000	9,850000
126,527923	814,000000	2,130000	9,850000
127,303566	815,000000	2,390000	11,215000
127,026718	816,000000	576,480000	213,720000
126,963638	817,000000	576,480000	213,720000
127,454256	818,000000	576,480000	213,720000
126,797763	819,000000	576,480000	213,720000
126,196172	820,000000	576,480000	213,720000
125,815360	821,000000	576,480000	213,720000
125,617944	822,000000	576,480000	213,720000
125,443892	823,000000	576,480000	213,720000
126,322331	824,000000	576,480000	213,720000
125,626121	825,000000	576,480000	213,720000
125,815360	826,000000	576,480000	213,720000
125,642475	827,000000	576,480000	213,720000
126,473021	828,000000	576,480000	213,720000
126,393587	829,000000	576,480000	213,720000
126,085199	830,000000	576,480000	213,720000
125,515148	831,000000	576,480000	213,720000
125,609767	832,000000	576,480000	213,720000
126,116739	833,000000	576,480000	213,720000
126,196172	834,000000	576,480000	213,720000
125,871430	835,000000	576,480000	213,720000
125,808351	836,000000	576,480000	213,720000
125,737094	837,000000	576,480000	213,720000
125,301379	838,000000	576,480000	213,720000
125,443892	839,000000	576,480000	213,720000
125,674015	840,000000	576,480000	213,720000
126,242898	841,000000	576,480000	213,720000
125,966049	842,000000	576,480000	213,720000
125,269840	843,000000	576,480000	213,720000
125,586405	844,000000	576,480000	213,720000
124,882018	845,000000	576,480000	213,720000
125,072424	846,000000	576,480000	213,720000
126,061836	847,000000	576,480000	213,720000
126,519746	848,000000	576,480000	213,720000
126,338685	849,000000	576,480000	213,720000
126,148279	850,000000	576,480000	213,720000
126,504560	851,000000	576,480000	213,720000
126,867851	852,000000	576,480000	213,720000
126,481198	853,000000	576,480000	213,720000
126,686790	854,000000	576,480000	213,720000
126,259252	855,000000	576,480000	213,720000
126,536100	856,000000	576,480000	213,720000
126,900559	857,000000	576,480000	213,720000
126,045483	858,000000	576,480000	213,720000
126,242898	859,000000	576,480000	213,720000
125,974226	860,000000	576,480000	213,720000
126,022120	861,000000	576,480000	213,720000
126,433304	862,000000	576,480000	213,720000
125,642475	863,000000	576,480000	213,720000
125,674015	864,000000	75,470000	20,560000
125,642475	865,000000	0,000000	227,955000
125,563042	866,000000	0,000000	227,955000
124,898372	867,000000	0,000000	227,955000
125,064248	868,000000	0,000000	227,955000
125,064248	869,000000	0,000000	227,955000
124,565453	870,000000	0,000000	227,955000
124,787399	871,000000	0,000000	227,955000
125,808351	872,000000	0,000000	227,955000
125,783820	873,000000	576,480000	213,720000
125,934510	874,000000	576,480000	213,720000
126,282614	875,000000	576,480000	213,720000
125,681024	876,000000	576,480000	213,720000
125,452069	877,000000	576,480000	213,720000
125,531502	878,000000	576,480000	213,720000
125,546688	879,000000	576,480000	213,720000
125,815360	880,000000	576,480000	213,720000
125,158867	881,000000	576,480000	213,720000
125,855076	882,000000	576,480000	213,720000
125,230123	883,000000	576,480000	213,720000
125,112141	884,000000	576,480000	213,720000
125,072424	885,000000	576,480000	213,720000
125,278017	886,000000	576,480000	213,720000
124,747682	887,000000	576,480000	213,720000
125,230123	888,000000	576,480000	213,720000
125,332919	889,000000	576,480000	213,720000
125,072424	890,000000	576,480000	213,720000
124,668249	891,000000	576,480000	213,720000
124,699789	892,000000	576,480000	213,720000
124,699789	893,000000	576,480000	213,720000
125,523325	894,000000	576,480000	213,720000
124,351684	895,000000	576,480000	213,720000
124,818939	896,000000	576,480000	213,720000
124,486020	897,000000	576,480000	213,720000
124,581807	898,000000	576,480000	213,720000
123,892606	899,000000	576,480000	213,720000
124,059650	900,000000	576,480000	213,720000
124,296782	901,000000	576,480000	213,720000
124,185809	902,000000	576,480000	213,720000
124,565453	903,000000	576,480000	213,720000
124,431117	904,000000	576,480000	213,720000
123,711545	905,000000	576,480000	213,720000
124,074836	906,000000	576,480000	213,720000
123,426520	907,000000	576,480000	213,720000
123,852890	908,000000	576,480000	213,720000
123,814341	909,000000	576,480000	213,720000
123,315547	910,000000	576,480000	213,720000
122,982627	911,000000	576,480000	213,720000
122,413745	912,000000	576,480000	213,720000
122,437108	913,000000	576,480000	213,720000
122,611160	914,000000	576,480000	213,720000
122,824929	915,000000	576,480000	213,720000
122,944079	916,000000	576,480000	213,720000
122,745496	917,000000	576,480000	213,720000
121,709358	918,000000	576,480000	213,720000
122,302772	919,000000	576,480000	213,720000
122,073817	920,000000	576,480000	213,720000
122,990804	921,000000	19,700000	1,230000
123,244290	922,000000	5,550000	0,115000
123,608749	923,000000	5,550000	0,115000
123,623935	924,000000	5,550000	0,115000
123,252467	925,000000	5,550000	0,115000
123,473245	926,000000	5,550000	0,115000
124,351684	927,000000	5,550000	0,115000
123,473245	928,000000	5,550000	0,115000
123,363440	929,000000	641,180000	1,320000
123,584218	930,000000	88,460000	158,050000
123,227936	931,000000	88,460000	158,050000
123,196397	932,000000	2,640000	2,775000
122,959265	933,000000	2,640000	2,775000
123,267653	934,000000	2,640000	2,775000
122,833106	935,000000	2,640000	2,775000
122,634523	936,000000	2,640000	2,775000
122,516541	937,000000	2,640000	2,775000
121,709358	938,000000	2,640000	2,775000
122,025923	939,000000	2,640000	2,775000
122,508364	940,000000	2,640000	2,775000
122,001392	941,000000	2,640000	2,775000
122,271232	942,000000	2,640000	2,775000
121,969853	943,000000	2,640000	2,775000
122,705779	944,000000	2,640000	2,775000
122,730310	945,000000	2,640000	2,775000
122,888008	946,000000	2,640000	2,775000
122,524718	947,000000	2,640000	2,775000
121,851871	948,000000	2,640000	2,775000
122,738487	949,000000	2,640000	2,775000
122,389214	950,000000	2,640000	2,775000
123,086592	951,000000	2,640000	2,775000
122,927725	952,000000	2,640000	2,775000
122,602983	953,000000	2,640000	2,775000
121,906773	954,000000	2,640000	2,775000
120,751486	955,000000	2,640000	2,775000
121,068051	956,000000	2,640000	2,775000
121,195378	957,000000	2,640000	2,775000
121,170847	958,000000	2,640000	2,775000
120,950069	959,000000	2,640000	2,775000
121,107768	960,000000	2,640000	2,775000
121,107768	961,000000	2,640000	2,775000
120,925538	962,000000	2,640000	2,775000
121,638102	963,000000	2,640000	2,775000
120,973432	964,000000	2,640000	2,775000
121,780615	965,000000	2,640000	2,775000
121,321537	966,000000	2,640000	2,775000
121,250280	966,500000	2,640000	2,775000