File: Nanoindentation Datenauswertung/data/EM-PDMS-50-10-50-0,7um
Quasi static measurement routine
Tip parameters (shape,radius, material...)
12.08.2022

Piezo position[nm]	MEMS displ.[nm]	Time[ms]	Cap [pf]	Temp [°C]	Rh [%]
eoh
2,050070	-0,195552	0,181	-0,106400	22,350000	47,360000
2,052220	0,325121	0,332	-0,106188	22,350000	47,360000
2,054317	0,260337	0,482	-0,106214	22,350000	47,360000
2,056381	-0,389905	0,634	-0,106479	22,350000	47,360000
2,058503	0,129568	0,785	-0,106268	22,350000	47,360000
2,060565	0,194353	0,937	-0,106241	22,350000	47,360000
2,062747	-0,064784	1,087	-0,106347	22,350000	47,360000
2,064704	-0,650242	1,238	-0,106585	22,350000	47,360000
2,066915	0,325121	1,388	-0,106188	22,350000	47,360000
2,068990	-0,129568	1,540	-0,106373	22,340000	47,335000
2,071050	0,000000	1,691	-0,106320	22,340000	47,335000
2,073173	0,129568	1,841	-0,106268	22,340000	47,335000
2,075334	0,000000	1,999	-0,106320	22,340000	47,335000
2,077408	0,129568	2,153	-0,106268	22,340000	47,335000
2,079492	-0,779810	2,309	-0,106638	22,340000	47,335000
2,081594	0,194353	2,460	-0,106241	22,340000	47,335000
2,083715	-0,325121	2,610	-0,106453	22,340000	47,335000
2,085726	-0,260337	2,760	-0,106426	22,340000	47,335000
2,087855	-0,585458	2,910	-0,106559	22,340000	47,335000
2,090020	-0,520673	3,060	-0,106532	22,340000	47,335000
2,092086	0,129568	3,210	-0,106268	22,340000	47,335000
2,094195	0,194353	3,362	-0,106241	22,340000	47,335000
2,096328	-0,064784	3,514	-0,106347	22,340000	47,335000
2,098352	-0,325121	3,666	-0,106453	22,340000	47,335000
2,100513	0,129568	3,817	-0,106268	22,340000	47,335000
2,102594	0,389905	3,969	-0,106162	22,340000	47,335000
2,104670	0,129568	4,119	-0,106268	22,340000	47,335000
2,106819	0,000000	4,269	-0,106320	22,340000	47,335000
2,108919	-0,389905	4,419	-0,106479	22,340000	47,335000
2,111018	-0,455889	4,570	-0,106506	22,340000	47,335000
2,113054	-0,260337	4,721	-0,106426	22,340000	47,335000
2,115206	-0,389905	4,872	-0,106479	22,340000	47,335000
2,117313	-0,650242	5,023	-0,106585	22,340000	47,335000
2,119362	0,194353	5,176	-0,106241	22,340000	47,335000
2,121463	0,064784	5,326	-0,106294	22,340000	47,335000
2,123583	-0,715026	5,476	-0,106611	22,350000	47,335000
2,125664	-0,129568	5,628	-0,106373	22,350000	47,335000
2,127819	0,194353	5,779	-0,106241	22,350000	47,335000
2,129927	-0,779810	5,930	-0,106638	22,350000	47,335000
2,131971	0,129568	6,080	-0,106268	22,350000	47,335000
2,134116	-0,650242	6,231	-0,106585	22,350000	47,335000
2,136204	0,000000	6,381	-0,106320	22,350000	47,335000
2,138324	0,194353	6,531	-0,106241	22,350000	47,335000
2,140397	0,325121	6,681	-0,106188	22,350000	47,335000
2,142469	0,129568	6,831	-0,106268	22,350000	47,335000
2,144562	0,129568	6,981	-0,106268	22,350000	47,335000
2,146663	0,064784	7,132	-0,106294	22,350000	47,335000
2,148788	-0,064784	7,282	-0,106347	22,350000	47,335000
2,150910	-0,064784	7,433	-0,106347	22,350000	47,335000
2,153018	0,520673	7,583	-0,106108	22,350000	47,335000
2,155039	-0,325121	7,734	-0,106453	22,350000	47,335000
2,157217	0,064784	7,885	-0,106294	22,350000	47,335000
2,159276	0,000000	8,036	-0,106320	22,350000	47,335000
2,161398	-0,260337	8,188	-0,106426	22,350000	47,335000
2,163461	0,064784	8,339	-0,106294	22,350000	47,335000
2,165591	-0,325121	8,490	-0,106453	22,350000	47,335000
2,167690	-0,455889	8,640	-0,106506	22,350000	47,335000
2,169790	0,194353	8,790	-0,106241	22,350000	47,335000
2,171872	-0,064784	8,941	-0,106347	22,350000	47,335000
2,174002	0,129568	9,091	-0,106268	22,350000	47,335000
2,176106	0,064784	9,243	-0,106294	22,350000	47,335000
2,178170	-0,260337	9,394	-0,106426	22,350000	47,335000
2,180300	0,194353	9,544	-0,106241	22,350000	47,350000
2,182434	0,389905	9,695	-0,106162	22,350000	47,350000
2,184457	-0,325121	9,846	-0,106453	22,350000	47,350000
2,186543	0,000000	9,999	-0,106320	22,350000	47,350000
2,188699	0,129568	10,150	-0,106268	22,350000	47,350000
2,190777	-0,064784	10,301	-0,106347	22,350000	47,350000
2,192869	0,129568	10,453	-0,106268	22,350000	47,350000
2,195017	-0,975363	10,605	-0,106717	22,350000	47,350000
2,197076	-0,520673	10,757	-0,106532	22,350000	47,350000
2,199164	0,064784	10,907	-0,106294	22,350000	47,350000
2,201310	-0,715026	11,058	-0,106611	22,350000	47,350000
2,203380	-0,195552	11,211	-0,106400	22,350000	47,350000
2,205517	-0,260337	11,361	-0,106426	22,350000	47,350000
2,207590	0,000000	11,511	-0,106320	22,350000	47,350000
2,209755	0,064784	11,662	-0,106294	22,350000	47,350000
2,211772	0,064784	11,812	-0,106294	22,350000	47,350000
2,213863	0,000000	11,962	-0,106320	22,350000	47,350000
2,215974	0,129568	12,112	-0,106268	22,350000	47,350000
2,218049	0,454689	12,263	-0,106135	22,350000	47,350000
2,220144	0,194353	12,413	-0,106241	22,350000	47,350000
2,222269	-0,389905	12,565	-0,106479	22,350000	47,350000
2,224378	-0,195552	12,717	-0,106400	22,350000	47,350000
2,226512	-3,770683	12,868	-0,107855	22,350000	47,350000
2,228554	-3,055657	13,020	-0,107564	22,350000	47,350000
2,230664	-2,275847	13,171	-0,107247	22,350000	47,350000
2,232808	-1,625605	13,329	-0,106982	22,350000	47,350000
2,234876	-1,104931	13,479	-0,106770	22,340000	47,350000
2,236987	-1,300484	13,629	-0,106850	22,340000	47,350000
2,239071	-0,260337	13,781	-0,106426	22,340000	47,350000
2,241157	0,325121	13,931	-0,106188	22,340000	47,350000
2,243260	0,260337	14,083	-0,106214	22,340000	47,350000
2,245460	1,169716	14,234	-0,105844	22,340000	47,350000
2,247488	1,625605	14,384	-0,105659	22,340000	47,350000
2,249552	2,534983	14,536	-0,105289	22,340000	47,350000
2,251658	2,145078	14,689	-0,105447	22,340000	47,350000
2,253816	3,576330	14,839	-0,104865	22,340000	47,350000
2,255886	4,290157	14,989	-0,104574	22,340000	47,350000
2,258005	4,810830	15,139	-0,104362	22,340000	47,350000
2,260026	5,200735	15,290	-0,104204	22,340000	47,350000
2,262187	5,591840	15,442	-0,104044	22,340000	47,320000
2,264236	6,176098	15,594	-0,103807	22,340000	47,320000
2,266355	6,891124	15,746	-0,103516	22,340000	47,320000
2,268462	7,736918	15,896	-0,103171	22,340000	47,320000
2,270620	8,126824	16,046	-0,103013	22,340000	47,320000
2,272751	8,711081	16,196	-0,102775	22,340000	47,320000
2,274778	9,621660	16,348	-0,102404	22,340000	47,320000
2,276863	10,467454	16,498	-0,102060	22,340000	47,320000
2,278978	10,661807	16,648	-0,101981	22,340000	47,320000
2,281135	11,572386	16,798	-0,101610	22,340000	47,320000
2,283142	13,262774	16,948	-0,100922	22,340000	47,320000
2,285269	13,587895	17,099	-0,100790	22,340000	47,320000
2,287415	14,628042	17,249	-0,100367	22,340000	47,320000
2,289494	15,148716	17,401	-0,100155	22,340000	47,320000
2,291607	15,603405	17,552	-0,099970	22,340000	47,335000
2,293703	16,643552	17,703	-0,099546	22,340000	47,335000
2,295768	17,814468	17,858	-0,099070	22,340000	47,335000
2,297873	17,879252	18,009	-0,099043	22,340000	47,335000
2,299990	19,438872	18,159	-0,098409	22,340000	47,335000
2,302110	20,024330	18,313	-0,098170	22,340000	47,335000
2,304186	19,438872	18,464	-0,098409	22,340000	47,335000
2,306259	20,739356	18,620	-0,097879	22,340000	47,335000
2,308434	21,194046	18,771	-0,097694	22,340000	47,335000
2,310490	22,235392	18,922	-0,097271	22,340000	47,335000
2,312568	22,819650	19,072	-0,097033	22,340000	47,335000
2,314740	23,469892	19,222	-0,096768	22,340000	47,335000
2,316773	24,055350	19,378	-0,096530	22,340000	47,335000
2,318848	25,160281	19,529	-0,096080	22,350000	47,360000
2,320972	25,355833	19,681	-0,096000	22,350000	47,360000
2,323095	26,331196	19,832	-0,095604	22,350000	47,360000
2,325175	27,240575	19,983	-0,095233	22,350000	47,360000
2,327275	27,371343	20,135	-0,095180	22,350000	47,360000
2,329410	28,476275	20,287	-0,094730	22,350000	47,360000
2,331470	29,191301	20,438	-0,094439	22,350000	47,360000
2,333603	30,621353	20,594	-0,093857	22,350000	47,360000
2,335656	30,101879	20,746	-0,094069	22,350000	47,360000
2,337814	31,271595	20,898	-0,093593	22,350000	47,360000
2,339953	31,921837	21,049	-0,093328	22,350000	47,360000
2,342027	33,287105	21,201	-0,092772	22,350000	47,360000
2,344077	33,157536	21,351	-0,092825	22,350000	47,360000
2,346196	33,937346	21,501	-0,092508	22,340000	47,320000
2,348289	34,327252	21,653	-0,092349	22,340000	47,320000
2,350408	35,302614	21,804	-0,091952	22,340000	47,320000
2,352536	34,587588	21,954	-0,092243	22,340000	47,320000
2,354594	35,823288	22,106	-0,091740	22,340000	47,320000
2,356669	36,863435	22,257	-0,091317	22,340000	47,320000
2,358750	37,318124	22,409	-0,091132	22,340000	47,320000
2,360823	37,382908	22,560	-0,091105	22,340000	47,320000
2,362985	38,553824	22,711	-0,090629	22,340000	47,320000
2,365100	38,618608	22,864	-0,090603	22,340000	47,320000
2,367115	39,593971	23,014	-0,090206	22,340000	47,320000
2,369329	38,423056	23,166	-0,090682	22,340000	47,320000
2,371382	39,268850	23,318	-0,090338	22,340000	47,320000
2,373481	39,333634	23,469	-0,090312	22,340000	47,335000
2,375590	40,698902	23,619	-0,089756	22,340000	47,335000
2,377688	40,634118	23,789	-0,089782	22,340000	47,335000
2,379792	40,763686	23,940	-0,089729	22,340000	47,335000
2,381890	41,088807	24,090	-0,089597	22,340000	47,335000
2,383988	41,349144	24,241	-0,089491	22,340000	47,335000
2,386054	41,869817	24,391	-0,089279	22,340000	47,335000
2,388223	42,649628	24,547	-0,088962	22,340000	47,335000
2,390314	42,779196	24,699	-0,088909	22,340000	47,335000
2,392377	44,079680	24,850	-0,088380	22,340000	47,335000
2,394535	44,665137	25,002	-0,088142	22,340000	47,335000
2,396539	44,469585	25,153	-0,088221	22,340000	47,335000
2,398687	46,030405	25,303	-0,087586	22,340000	47,335000
2,400779	45,900837	25,453	-0,087639	22,340000	47,350000
2,402896	46,290742	25,604	-0,087480	22,340000	47,350000
2,404989	47,070552	25,754	-0,087163	22,340000	47,350000
2,407095	47,981131	25,904	-0,086792	22,340000	47,350000
2,409139	48,565389	26,054	-0,086554	22,340000	47,350000
2,411290	47,916347	26,206	-0,086818	22,340000	47,350000
2,413356	49,346399	26,364	-0,086236	22,340000	47,350000
2,415468	49,671520	26,515	-0,086104	22,340000	47,350000
2,417579	50,906020	26,665	-0,085602	22,340000	47,350000
2,419664	51,361909	26,815	-0,085416	22,340000	47,350000
2,421763	52,012151	26,988	-0,085151	22,340000	47,350000
2,423859	53,246650	27,138	-0,084649	22,340000	47,350000
2,426002	53,637755	27,294	-0,084490	22,340000	47,350000
2,428072	53,767324	27,444	-0,084437	22,340000	47,320000
2,430185	54,547134	27,594	-0,084120	22,340000	47,320000
2,432316	56,367092	27,746	-0,083379	22,340000	47,320000
2,434388	57,473223	27,897	-0,082929	22,340000	47,320000
2,436498	57,342454	28,048	-0,082982	22,340000	47,320000
2,438572	58,772507	28,198	-0,082400	22,340000	47,320000
2,440650	58,968059	28,349	-0,082320	22,340000	47,320000
2,442817	59,812654	28,510	-0,081977	22,340000	47,320000
2,444856	60,462895	28,666	-0,081712	22,340000	47,320000
2,447002	62,284053	28,817	-0,080971	22,340000	47,320000
2,449075	62,869510	28,983	-0,080732	22,340000	47,320000
2,451148	63,843673	29,133	-0,080336	22,340000	47,320000
2,453298	64,883820	29,294	-0,079913	22,340000	47,320000
2,455411	65,664830	29,449	-0,079595	22,340000	47,360000
2,457441	66,444641	29,600	-0,079277	22,340000	47,360000
2,459587	66,704977	29,752	-0,079171	22,340000	47,360000
2,461683	68,265798	29,902	-0,078536	22,340000	47,360000
2,463769	68,330582	30,052	-0,078510	22,340000	47,360000
2,465878	69,956187	30,203	-0,077848	22,340000	47,360000
2,468024	70,671213	30,354	-0,077557	22,340000	47,360000
2,470065	71,840928	30,504	-0,077081	22,340000	47,360000
2,472159	72,361602	30,654	-0,076869	22,340000	47,360000
2,474301	72,751507	30,804	-0,076710	22,340000	47,360000
2,476392	73,660886	30,954	-0,076340	22,340000	47,360000
2,478519	75,286490	31,104	-0,075679	22,340000	47,360000
2,480570	75,871948	31,255	-0,075440	22,340000	47,360000
2,482689	76,782526	31,407	-0,075070	22,340000	47,360000
2,484756	77,107647	31,557	-0,074938	22,340000	47,360000
2,486858	77,887458	31,709	-0,074620	22,340000	47,360000
2,488997	79,317510	31,861	-0,074038	22,340000	47,360000
2,491057	80,032536	32,013	-0,073747	22,340000	47,360000
2,493185	80,813546	32,197	-0,073429	22,340000	47,360000
2,495241	82,373167	32,348	-0,072794	22,340000	47,360000
2,497392	82,698288	32,499	-0,072662	22,340000	47,360000
2,499443	82,958624	32,650	-0,072556	22,340000	47,360000
2,501570	84,713798	32,801	-0,071842	22,340000	47,360000
2,503729	85,818729	32,953	-0,071392	22,340000	47,360000
2,505760	86,664523	33,104	-0,071048	22,340000	47,360000
2,507918	86,729307	33,516	-0,071021	22,340000	47,360000
2,509910	87,509118	33,668	-0,070704	22,340000	47,360000
2,512065	88,615249	33,850	-0,070254	22,340000	47,360000
2,514134	89,330275	34,001	-0,069963	22,340000	47,360000
2,516272	91,020664	34,153	-0,069275	22,340000	47,360000
2,518391	91,540137	34,304	-0,069063	22,340000	47,360000
2,520480	91,865258	34,455	-0,068931	22,340000	47,360000
2,522534	92,970190	34,615	-0,068481	22,340000	47,360000
2,524667	94,205889	34,765	-0,067979	22,340000	47,360000
2,526768	94,985699	34,915	-0,067661	22,340000	47,360000
2,528876	95,635941	35,066	-0,067396	22,340000	47,360000
2,530985	96,742072	35,216	-0,066946	22,340000	47,360000
2,533003	97,457098	35,368	-0,066655	22,340000	47,360000
2,535138	98,626814	35,524	-0,066179	22,350000	47,335000
2,537293	99,732945	35,681	-0,065729	22,350000	47,335000
2,539421	100,512755	35,841	-0,065412	22,350000	47,335000
2,541475	101,747255	35,991	-0,064909	22,350000	47,335000
2,543606	102,593049	36,166	-0,064565	22,350000	47,335000
2,545680	103,047739	36,316	-0,064380	22,350000	47,335000
2,547811	104,283438	36,467	-0,063877	22,350000	47,335000
2,549919	105,063249	36,617	-0,063560	22,350000	47,335000
2,552013	105,844259	36,768	-0,063242	22,350000	47,335000
2,554085	107,144742	36,918	-0,062712	22,350000	47,335000
2,556201	108,379242	37,069	-0,062210	22,350000	47,335000
2,558274	109,614942	37,219	-0,061707	22,350000	47,335000
2,560376	109,160252	37,370	-0,061892	22,350000	47,335000
2,562541	110,719873	37,522	-0,061257	22,350000	47,335000
2,564569	111,955572	37,674	-0,060754	22,350000	47,335000
2,566732	113,190072	37,828	-0,060252	22,350000	47,335000
2,568766	113,905098	37,979	-0,059961	22,350000	47,335000
2,570843	114,425772	38,131	-0,059749	22,350000	47,335000
2,573012	116,051376	38,282	-0,059087	22,350000	47,335000
2,575044	116,051376	38,433	-0,059087	22,350000	47,335000
2,577214	117,221092	38,586	-0,058611	22,350000	47,335000
2,579300	118,327223	38,736	-0,058161	22,350000	47,335000
2,581408	118,651144	38,898	-0,058029	22,350000	47,335000
2,583495	119,822059	39,051	-0,057553	22,350000	47,335000
2,585592	120,797422	39,201	-0,057156	22,350000	47,335000
2,587709	121,902353	39,366	-0,056706	22,350000	47,335000
2,589780	123,853079	39,517	-0,055912	22,340000	47,335000
2,591849	124,568105	39,669	-0,055621	22,340000	47,335000
2,593928	125,088778	39,820	-0,055409	22,340000	47,335000
2,596114	125,478684	39,972	-0,055250	22,340000	47,335000
2,598141	126,454046	40,123	-0,054854	22,340000	47,335000
2,600265	127,948883	40,274	-0,054245	22,340000	47,335000
2,602383	129,249367	40,424	-0,053716	22,340000	47,335000
2,604509	129,509703	40,590	-0,053610	22,340000	47,335000
2,606569	130,614635	40,740	-0,053160	22,340000	47,335000
2,608662	131,329661	40,891	-0,052869	22,340000	47,335000
2,610836	132,434592	41,042	-0,052419	22,340000	47,335000
2,612889	133,735076	41,192	-0,051890	22,340000	47,335000
2,614991	134,841207	41,352	-0,051440	22,340000	47,335000
2,617109	135,360680	41,503	-0,051229	22,340000	47,335000
2,619132	135,750585	41,653	-0,051070	22,340000	47,335000
2,621280	136,530396	41,804	-0,050752	22,340000	47,335000
2,623385	138,286769	41,955	-0,050038	22,340000	47,335000
2,625446	138,871027	42,105	-0,049800	22,340000	47,335000
2,627576	138,610690	42,255	-0,049906	22,340000	47,335000
2,629652	140,431847	42,406	-0,049165	22,340000	47,335000
2,631715	141,991468	42,570	-0,048530	22,340000	47,335000
2,633813	142,187020	42,721	-0,048450	22,340000	47,335000
2,635924	143,357935	42,871	-0,047974	22,340000	47,335000
2,638052	144,722004	43,026	-0,047418	22,340000	47,335000
2,640189	144,917556	43,177	-0,047339	22,340000	47,335000
2,642271	146,282824	43,347	-0,046783	22,340000	47,335000
2,644394	147,322971	43,497	-0,046360	22,340000	47,335000
2,646493	148,363118	43,649	-0,045937	22,340000	47,335000
2,648559	149,663602	43,801	-0,045407	22,340000	47,335000
2,650655	150,119491	43,952	-0,045222	22,340000	47,335000
2,652822	150,378628	44,110	-0,045116	22,340000	47,335000
2,654899	151,939448	44,262	-0,044481	22,340000	47,335000
2,656948	152,914811	44,412	-0,044084	22,340000	47,335000
2,659049	153,109164	44,562	-0,044005	22,340000	47,335000
2,661212	154,995105	44,713	-0,043237	22,340000	47,335000
2,663265	155,580563	44,866	-0,042999	22,340000	47,335000
2,665413	156,360373	45,018	-0,042682	22,340000	47,335000
2,667501	157,270952	45,169	-0,042311	22,340000	47,335000
2,669554	157,855210	45,320	-0,042073	22,340000	47,335000
2,671647	159,090909	45,472	-0,041570	22,350000	47,335000
2,673802	159,286462	45,623	-0,041491	22,350000	47,335000
2,675874	160,066272	45,779	-0,041173	22,350000	47,335000
2,677951	161,625893	45,934	-0,040539	22,350000	47,335000
2,680060	161,821445	46,086	-0,040459	22,350000	47,335000
2,682200	163,382265	46,237	-0,039824	22,350000	47,335000
2,684263	163,641402	46,389	-0,039718	22,350000	47,335000
2,686347	164,551981	46,549	-0,039348	22,350000	47,335000
2,688480	165,656912	46,699	-0,038898	22,350000	47,335000
2,690514	166,697059	46,849	-0,038475	22,350000	47,335000
2,692683	168,388648	47,008	-0,037786	22,350000	47,335000
2,694759	169,102474	47,158	-0,037496	22,350000	47,335000
2,696847	169,298027	47,309	-0,037416	22,350000	47,335000
2,698922	170,468942	47,460	-0,036939	22,340000	47,350000
2,701008	171,703442	47,610	-0,036437	22,340000	47,350000
2,703164	172,678805	47,762	-0,036040	22,340000	47,350000
2,705257	173,133494	47,914	-0,035855	22,340000	47,350000
2,707410	173,459815	48,064	-0,035722	22,340000	47,350000
2,709464	175,409340	48,216	-0,034929	22,340000	47,350000
2,711598	175,930014	48,367	-0,034717	22,340000	47,350000
2,713683	176,839393	48,527	-0,034347	22,340000	47,350000
2,715726	177,749971	48,678	-0,033976	22,340000	47,350000
2,717865	179,310792	48,829	-0,033341	22,340000	47,350000
2,719969	179,505144	48,991	-0,033262	22,340000	47,350000
2,722114	180,870412	49,144	-0,032706	22,340000	47,350000
2,724231	181,780991	49,294	-0,032335	22,340000	47,350000
2,726215	182,756354	49,446	-0,031938	22,340000	47,335000
2,728329	183,471380	49,603	-0,031647	22,340000	47,335000
2,730445	183,926069	49,762	-0,031462	22,340000	47,335000
2,732574	185,486890	49,912	-0,030827	22,340000	47,335000
2,734604	185,551674	50,065	-0,030801	22,340000	47,335000
2,736758	187,047710	50,216	-0,030192	22,340000	47,335000
2,738849	186,981726	50,381	-0,030219	22,340000	47,335000
2,740982	188,477762	50,541	-0,029610	22,340000	47,335000
2,743035	189,712262	50,693	-0,029107	22,340000	47,335000
2,745166	190,753609	50,844	-0,028684	22,340000	47,335000
2,747254	191,858540	50,995	-0,028234	22,340000	47,335000
2,749325	191,988108	51,145	-0,028181	22,340000	47,335000
2,750027	192,443998	51,295	-0,027996	22,340000	47,335000
2,750069	192,703135	51,446	-0,027890	22,340000	47,335000
2,750039	191,468635	51,598	-0,028393	22,340000	47,335000
2,750005	191,793756	51,752	-0,028260	22,340000	47,335000
2,750045	191,403851	51,902	-0,028419	22,340000	47,335000
2,750058	191,337867	52,072	-0,028446	22,340000	47,335000
2,750021	191,013945	52,222	-0,028578	22,340000	47,335000
2,750061	191,143514	52,373	-0,028525	22,340000	47,335000
2,750047	190,947961	52,531	-0,028604	22,340000	47,335000
2,750030	190,622841	52,682	-0,028737	22,340000	47,335000
2,750051	189,712262	52,833	-0,029107	22,340000	47,335000
2,750076	189,582693	52,984	-0,029160	22,340000	47,335000
2,750056	189,647478	53,139	-0,029134	22,340000	47,335000
2,750050	189,972599	53,290	-0,029001	22,340000	47,335000
2,750005	189,712262	53,442	-0,029107	22,340000	47,350000
2,750039	190,103367	53,592	-0,028948	22,340000	47,350000
2,750048	188,932452	53,742	-0,029425	22,340000	47,350000
2,750013	189,517909	53,892	-0,029187	22,340000	47,350000
2,750058	189,778246	54,044	-0,029081	22,340000	47,350000
2,750002	189,907814	54,205	-0,029028	22,340000	47,350000
2,750088	189,257573	54,355	-0,029292	22,340000	47,350000
2,750041	189,388341	54,509	-0,029239	22,340000	47,350000
2,750055	189,062020	54,659	-0,029372	22,340000	47,350000
2,750043	189,322357	54,809	-0,029266	22,340000	47,350000
2,750004	189,128004	54,962	-0,029345	22,340000	47,350000
2,749996	188,607331	55,113	-0,029557	22,340000	47,350000
2,750021	188,542546	55,263	-0,029583	22,340000	47,350000
2,750101	187,957089	55,447	-0,029822	22,350000	47,350000
2,750021	188,021873	55,619	-0,029795	22,350000	47,350000
2,750099	189,128004	55,771	-0,029345	22,350000	47,350000
2,750090	188,738099	55,921	-0,029504	22,350000	47,350000
2,750058	188,217426	56,072	-0,029716	22,350000	47,350000
2,750047	188,021873	56,222	-0,029795	22,350000	47,350000
2,750050	188,087857	56,372	-0,029769	22,350000	47,350000
2,750100	187,957089	56,535	-0,029822	22,350000	47,350000
2,750080	188,217426	56,685	-0,029716	22,350000	47,350000
2,750050	188,217426	56,838	-0,029716	22,350000	47,350000
2,750046	187,567184	57,000	-0,029980	22,350000	47,350000
2,750069	187,112494	57,150	-0,030166	22,350000	47,350000
2,750051	187,827520	57,307	-0,029875	22,350000	47,350000
2,750064	186,981726	57,458	-0,030219	22,350000	47,350000
2,750007	187,372831	57,609	-0,030060	22,350000	47,350000
2,750053	187,827520	57,778	-0,029875	22,350000	47,350000
2,750033	187,697952	57,928	-0,029927	22,350000	47,350000
2,750067	187,306847	58,092	-0,030086	22,350000	47,350000
2,750088	186,462252	58,250	-0,030430	22,350000	47,350000
2,750089	187,697952	58,401	-0,029927	22,350000	47,350000
2,750054	187,567184	58,552	-0,029980	22,350000	47,350000
2,750018	187,372831	58,702	-0,030060	22,350000	47,350000
2,750032	187,372831	58,852	-0,030060	22,350000	47,350000
2,750061	186,656605	59,008	-0,030351	22,350000	47,350000
2,750064	187,827520	59,160	-0,029875	22,350000	47,350000
2,749994	187,437615	59,321	-0,030033	22,350000	47,350000
2,750033	187,242063	59,472	-0,030113	22,350000	47,335000
2,750030	186,852158	59,622	-0,030271	22,350000	47,335000
2,750046	187,112494	59,776	-0,030166	22,350000	47,335000
2,750071	186,722589	59,928	-0,030324	22,350000	47,335000
2,750041	187,112494	60,079	-0,030166	22,350000	47,335000
2,750166	186,916942	60,230	-0,030245	22,350000	47,335000
2,750055	186,656605	60,381	-0,030351	22,350000	47,335000
2,750024	186,462252	60,551	-0,030430	22,350000	47,335000
2,750073	186,462252	60,702	-0,030430	22,350000	47,335000
2,750048	186,201916	60,853	-0,030536	22,350000	47,335000
2,750044	186,332684	61,020	-0,030483	22,350000	47,335000
2,750078	186,462252	61,170	-0,030430	22,350000	47,335000
2,750014	186,722589	61,320	-0,030324	22,350000	47,335000
2,750095	187,112494	61,471	-0,030166	22,340000	47,350000
2,747984	185,096984	61,622	-0,030986	22,340000	47,350000
2,745841	183,992053	61,773	-0,031436	22,340000	47,350000
2,743789	182,106112	61,924	-0,032203	22,340000	47,350000
2,741631	181,455870	62,075	-0,032468	22,340000	47,350000
2,739555	180,545291	62,226	-0,032838	22,340000	47,350000
2,737443	180,090602	62,385	-0,033023	22,340000	47,350000
2,735312	177,879540	62,538	-0,033923	22,340000	47,350000
2,733238	177,424850	62,689	-0,034108	22,340000	47,350000
2,731150	175,669677	62,839	-0,034823	22,340000	47,350000
2,729046	174,954651	62,989	-0,035114	22,340000	47,350000
2,726904	173,264262	63,145	-0,035802	22,340000	47,350000
2,724881	172,353684	63,302	-0,036172	22,340000	47,350000
2,722719	172,028563	63,455	-0,036305	22,340000	47,350000
2,720604	170,468942	63,605	-0,036939	22,340000	47,350000
2,718540	168,972906	63,765	-0,037548	22,340000	47,350000
2,716492	168,647785	63,916	-0,037681	22,340000	47,350000
2,714335	167,088164	64,066	-0,038315	22,340000	47,350000
2,712275	166,373138	64,216	-0,038606	22,340000	47,350000
2,710176	164,357628	64,382	-0,039427	22,340000	47,350000
2,708035	164,162076	64,533	-0,039506	22,340000	47,350000
2,705963	162,276134	64,684	-0,040274	22,340000	47,350000
2,703845	161,951014	64,834	-0,040406	22,340000	47,350000
2,701801	160,585746	64,985	-0,040962	22,340000	47,350000
2,699654	159,090909	65,137	-0,041570	22,340000	47,350000
2,697553	159,155693	65,288	-0,041544	22,340000	47,350000
2,695500	157,725641	65,458	-0,042126	22,340000	47,350000
2,693360	156,230805	65,610	-0,042734	22,340000	47,350000
2,691281	155,839700	65,778	-0,042894	22,340000	47,350000
2,689227	154,995105	65,929	-0,043237	22,340000	47,350000
2,687054	153,499069	66,080	-0,043846	22,340000	47,350000
2,684948	153,175148	66,249	-0,043978	22,340000	47,350000
2,682912	151,743896	66,399	-0,044561	22,340000	47,350000
2,680791	150,313844	66,553	-0,045143	22,340000	47,350000
2,678627	149,793170	66,703	-0,045354	22,340000	47,350000
2,676599	148,298334	66,854	-0,045963	22,340000	47,350000
2,674467	146,543161	67,006	-0,046677	22,340000	47,350000
2,672370	145,828135	67,157	-0,046968	22,340000	47,350000
2,670285	145,373445	67,326	-0,047153	22,340000	47,350000
2,668138	144,398082	67,477	-0,047550	22,340000	47,350000
2,666026	142,902046	67,627	-0,048159	22,340000	47,350000
2,663957	142,772478	67,778	-0,048212	22,340000	47,350000
2,661878	140,106726	67,929	-0,049297	22,340000	47,350000
2,659792	139,521268	68,079	-0,049535	22,340000	47,350000
2,657692	138,220785	68,233	-0,050064	22,340000	47,350000
2,655586	137,766095	68,386	-0,050250	22,340000	47,350000
2,653474	137,115853	68,537	-0,050514	22,340000	47,350000
2,651329	134,904791	68,688	-0,051414	22,340000	47,350000
2,649293	134,124981	68,839	-0,051731	22,340000	47,350000
2,647174	134,060197	69,003	-0,051758	22,340000	47,350000
2,645092	132,499376	69,155	-0,052393	22,340000	47,350000
2,642947	131,525213	69,316	-0,052790	22,340000	47,350000
2,640882	130,093961	69,467	-0,053372	22,350000	47,335000
2,638784	129,119798	69,618	-0,053769	22,350000	47,335000
2,636692	128,728693	69,773	-0,053928	22,350000	47,335000
2,634638	127,623762	69,926	-0,054377	22,350000	47,335000
2,632464	126,713183	70,077	-0,054748	22,350000	47,335000
2,630393	125,347915	70,229	-0,055304	22,350000	47,335000
2,628347	124,503321	70,380	-0,055647	22,350000	47,335000
2,626199	123,463174	70,531	-0,056071	22,350000	47,335000
2,624066	122,357043	70,682	-0,056521	22,350000	47,335000
2,621903	121,577232	70,832	-0,056838	22,350000	47,335000
2,619849	120,862206	70,983	-0,057129	22,350000	47,335000
2,617741	118,521576	71,134	-0,058082	22,350000	47,335000
2,615680	118,586360	71,286	-0,058056	22,350000	47,335000
2,613590	117,610997	71,436	-0,058453	22,340000	47,335000
2,611433	117,287076	71,587	-0,058584	22,340000	47,335000
2,609441	115,205582	71,764	-0,059432	22,340000	47,335000
2,607272	114,490556	71,915	-0,059723	22,340000	47,335000
2,605199	113,450409	72,066	-0,060146	22,340000	47,335000
2,603109	112,149925	72,222	-0,060675	22,340000	47,335000
2,601001	111,565667	72,372	-0,060913	22,340000	47,335000
2,598842	110,655089	72,529	-0,061284	22,340000	47,335000
2,596791	109,160252	72,681	-0,061892	22,340000	47,335000
2,594702	108,314458	72,837	-0,062236	22,340000	47,335000
2,592574	107,924553	72,989	-0,062395	22,340000	47,335000
2,590542	106,559285	73,139	-0,062951	22,340000	47,335000
2,588394	104,673343	73,302	-0,063718	22,340000	47,335000
2,586263	103,762765	73,454	-0,064089	22,340000	47,320000
2,584195	104,478991	73,612	-0,063797	22,340000	47,320000
2,582073	102,203144	73,764	-0,064724	22,340000	47,320000
2,579950	102,073576	73,917	-0,064776	22,340000	47,320000
2,577877	99,732945	74,070	-0,065729	22,340000	47,320000
2,575759	99,732945	74,232	-0,065729	22,340000	47,320000
2,573655	99,212272	74,383	-0,065941	22,340000	47,320000
2,571567	97,067193	74,535	-0,066814	22,340000	47,320000
2,569468	96,481736	74,686	-0,067052	22,340000	47,320000
2,567351	94,726562	74,839	-0,067767	22,340000	47,320000
2,565249	94,076321	74,992	-0,068031	22,340000	47,320000
2,563177	93,815984	75,145	-0,068137	22,340000	47,320000
2,561065	91,930043	75,296	-0,068905	22,340000	47,320000
2,558987	90,695543	75,447	-0,069407	22,350000	47,320000
2,556886	90,630759	75,598	-0,069434	22,350000	47,320000
2,554760	88,940370	75,767	-0,070122	22,350000	47,320000
2,552717	88,419696	75,919	-0,070333	22,350000	47,320000
2,550613	86,989644	76,069	-0,070916	22,350000	47,320000
2,548447	86,729307	76,237	-0,071021	22,350000	47,320000
2,546350	85,169687	76,389	-0,071656	22,350000	47,320000
2,544242	84,194324	76,540	-0,072053	22,350000	47,320000
2,542199	82,893840	76,690	-0,072583	22,350000	47,320000
2,540103	81,463788	76,842	-0,073165	22,350000	47,320000
2,537935	80,943115	77,005	-0,073376	22,350000	47,320000
2,535897	80,617994	77,156	-0,073509	22,350000	47,320000
2,533763	78,537700	77,334	-0,074355	22,350000	47,320000
2,531697	78,017026	77,485	-0,074567	22,350000	47,320000
2,529585	77,562337	77,642	-0,074752	22,350000	47,320000
2,527477	76,132285	77,793	-0,075334	22,350000	47,320000
2,525337	74,702232	77,943	-0,075917	22,350000	47,320000
2,523285	74,377111	78,094	-0,076049	22,350000	47,320000
2,521190	73,076628	78,253	-0,076578	22,350000	47,320000
2,519045	72,491170	78,405	-0,076816	22,350000	47,320000
2,516958	71,321455	78,568	-0,077292	22,350000	47,320000
2,514815	70,800781	78,727	-0,077504	22,350000	47,320000
2,512716	69,110392	78,879	-0,078192	22,350000	47,320000
2,510600	68,850056	79,031	-0,078298	22,350000	47,320000
2,508567	68,395366	79,182	-0,078483	22,350000	47,320000
2,506486	66,444641	79,341	-0,079277	22,350000	47,320000
2,504362	66,054735	79,492	-0,079436	22,340000	47,335000
2,502247	65,469278	79,646	-0,079674	22,340000	47,335000
2,500214	63,453768	79,802	-0,080495	22,340000	47,335000
2,498075	62,478405	79,952	-0,080892	22,340000	47,335000
2,496038	62,219268	80,104	-0,080997	22,340000	47,335000
2,493855	60,333327	80,258	-0,081765	22,340000	47,335000
2,491742	59,878638	80,417	-0,081950	22,340000	47,335000
2,489633	58,968059	80,580	-0,082320	22,340000	47,335000
2,487582	57,863128	80,732	-0,082770	22,340000	47,335000
2,485499	56,627428	80,882	-0,083273	22,340000	47,335000
2,483378	55,392928	81,032	-0,083775	22,340000	47,335000
2,481254	54,092445	81,186	-0,084305	22,340000	47,335000
2,479168	54,482350	81,359	-0,084146	22,340000	47,335000
2,477133	53,961677	81,510	-0,084358	22,340000	47,320000
2,474982	52,337272	81,660	-0,085019	22,340000	47,320000
2,472900	51,166356	81,818	-0,085496	22,340000	47,320000
2,470804	49,801088	81,969	-0,086051	22,340000	47,320000
2,468683	49,996641	82,128	-0,085972	22,340000	47,320000
2,466561	48,110699	82,279	-0,086739	22,340000	47,320000
2,464472	47,200121	82,430	-0,087110	22,340000	47,320000
2,462453	46,420311	82,593	-0,087427	22,340000	47,320000
2,460300	44,860690	82,744	-0,088062	22,340000	47,320000
2,458211	44,860690	82,895	-0,088062	22,340000	47,320000
2,456070	43,235085	83,047	-0,088724	22,340000	47,320000
2,454013	42,194938	83,197	-0,089147	22,340000	47,320000
2,451860	41,544696	83,360	-0,089412	22,340000	47,320000
2,449829	40,634118	83,510	-0,089782	22,350000	47,360000
2,447712	39,853108	83,661	-0,090100	22,350000	47,360000
2,445619	39,268850	83,827	-0,090338	22,350000	47,360000
2,443534	38,163919	83,979	-0,090788	22,350000	47,360000
2,441365	36,928219	84,136	-0,091291	22,350000	47,360000
2,439251	36,017641	84,287	-0,091661	22,350000	47,360000
2,437189	35,433383	84,439	-0,091899	22,350000	47,360000
2,435079	34,522804	84,590	-0,092270	22,350000	47,360000
2,432992	32,897199	84,741	-0,092931	22,350000	47,360000
2,430892	32,572078	84,891	-0,093063	22,350000	47,360000
2,428760	31,662700	85,042	-0,093434	22,350000	47,360000
2,426643	30,491784	85,192	-0,093910	22,350000	47,360000
2,424608	30,491784	85,343	-0,093910	22,350000	47,360000
2,422436	29,776758	85,494	-0,094201	22,350000	47,360000
2,420348	28,411490	85,646	-0,094757	22,350000	47,360000
2,418271	27,826033	85,810	-0,094995	22,350000	47,360000
2,416142	27,306559	85,961	-0,095207	22,350000	47,360000
2,414068	26,525549	86,112	-0,095524	22,350000	47,360000
2,412064	26,525549	86,276	-0,095524	22,350000	47,360000
2,409891	24,250902	86,427	-0,096450	22,350000	47,360000
2,407776	24,445255	86,593	-0,096371	22,350000	47,360000
2,405707	23,275539	86,743	-0,096847	22,350000	47,360000
2,403616	23,015203	86,893	-0,096953	22,350000	47,360000
2,401498	21,910271	87,043	-0,097403	22,350000	47,360000
2,399399	21,779503	87,193	-0,097456	22,350000	47,360000
2,397252	21,389598	87,344	-0,097615	22,350000	47,360000
2,395198	19,894762	87,495	-0,098223	22,340000	47,310000
2,393066	19,438872	87,645	-0,098409	22,340000	47,310000
2,391000	19,634425	87,795	-0,098329	22,340000	47,310000
2,388830	18,529494	87,947	-0,098779	22,340000	47,310000
2,386788	17,683699	88,105	-0,099123	22,340000	47,310000
2,384716	17,358578	88,284	-0,099255	22,340000	47,310000
2,382523	16,968673	88,435	-0,099414	22,340000	47,310000
2,380514	15,668189	88,586	-0,099943	22,340000	47,310000
2,378380	15,148716	88,736	-0,100155	22,340000	47,310000
2,376301	14,692827	88,887	-0,100340	22,340000	47,310000
2,374158	13,652680	89,053	-0,100764	22,340000	47,310000
2,372078	13,913016	89,203	-0,100658	22,340000	47,310000
2,369987	13,067222	89,358	-0,101002	22,340000	47,310000
2,367887	13,262774	89,508	-0,100922	22,340000	47,320000
2,365732	11,703154	89,658	-0,101557	22,340000	47,320000
2,363681	11,572386	89,840	-0,101610	22,340000	47,320000
2,361626	10,922144	89,992	-0,101875	22,340000	47,320000
2,359519	10,271902	90,144	-0,102140	22,340000	47,320000
2,357383	10,986928	90,295	-0,101849	22,340000	47,320000
2,355247	9,361323	90,455	-0,102510	22,340000	47,320000
2,353161	8,971418	90,609	-0,102669	22,340000	47,320000
2,351068	8,516729	90,760	-0,102854	22,340000	47,320000
2,349023	8,516729	90,916	-0,102854	22,340000	47,320000
2,346835	8,581513	91,069	-0,102828	22,340000	47,320000
2,344799	8,387160	91,219	-0,102907	22,340000	47,320000
2,342730	7,736918	91,373	-0,103171	22,340000	47,320000
2,340607	8,062039	91,523	-0,103039	22,340000	47,335000
2,338485	7,021892	91,675	-0,103462	22,340000	47,335000
2,336360	6,891124	91,828	-0,103516	22,340000	47,335000
2,334300	6,305666	91,983	-0,103754	22,340000	47,335000
2,332192	6,631987	92,158	-0,103621	22,340000	47,335000
2,330059	5,396288	92,309	-0,104124	22,340000	47,335000
2,327976	5,135951	92,459	-0,104230	22,340000	47,335000
2,325903	4,681262	92,635	-0,104415	22,340000	47,335000
2,323775	4,810830	92,785	-0,104362	22,340000	47,335000
2,321671	4,031020	92,949	-0,104680	22,340000	47,335000
2,319571	3,835467	93,099	-0,104759	22,340000	47,335000
2,317461	3,510346	93,253	-0,104892	22,340000	47,335000
2,315379	2,275847	93,403	-0,105394	22,340000	47,335000
2,313236	2,015510	93,577	-0,105500	22,340000	47,335000
2,311190	1,559621	93,729	-0,105686	22,340000	47,335000
2,309111	0,650242	93,879	-0,106056	22,340000	47,335000
2,307011	1,300484	94,030	-0,105791	22,340000	47,335000
2,304885	0,975363	94,207	-0,105923	22,340000	47,335000
2,302779	0,584258	94,358	-0,106083	22,340000	47,335000
2,300692	0,454689	94,509	-0,106135	22,340000	47,335000
2,298571	-0,195552	94,696	-0,106400	22,340000	47,335000
2,296473	-0,779810	94,846	-0,106638	22,340000	47,335000
2,294357	-1,690389	95,001	-0,107008	22,340000	47,335000
2,292265	-2,015510	95,153	-0,107141	22,340000	47,335000
2,290153	-2,471399	95,304	-0,107326	22,340000	47,335000
2,288097	-3,251209	95,471	-0,107644	22,340000	47,295000
2,285995	-3,251209	95,622	-0,107644	22,340000	47,295000
2,283930	-3,835467	95,788	-0,107881	22,340000	47,295000
2,281805	-4,160588	95,940	-0,108014	22,340000	47,295000
2,279706	-4,291356	96,100	-0,108067	22,340000	47,295000
2,277608	-5,135951	96,251	-0,108411	22,340000	47,295000
2,275506	-5,656624	96,402	-0,108623	22,340000	47,295000
2,273419	-6,046529	96,576	-0,108781	22,340000	47,295000
2,271288	-6,176098	96,728	-0,108834	22,340000	47,295000
2,269190	-6,306866	96,882	-0,108887	22,340000	47,295000
2,267112	-7,607350	97,032	-0,109417	22,340000	47,295000
2,264964	-7,866487	97,184	-0,109522	22,340000	47,295000
2,262895	-8,322376	97,340	-0,109708	22,340000	47,295000
2,260839	-8,582713	97,492	-0,109813	22,340000	47,335000
2,258623	-8,777065	97,644	-0,109893	22,340000	47,335000
2,256605	-10,598223	97,800	-0,110634	22,340000	47,335000
2,254497	-10,142333	97,950	-0,110448	22,340000	47,335000
2,252391	-10,532239	98,100	-0,110607	22,340000	47,335000
2,250268	-11,052912	98,266	-0,110819	22,340000	47,335000
2,248166	-11,247265	98,416	-0,110898	22,340000	47,335000
2,246108	-11,703154	98,583	-0,111083	22,340000	47,335000
2,243968	-11,767938	98,735	-0,111110	22,340000	47,335000
2,241863	-11,832722	98,885	-0,111136	22,340000	47,335000
2,239712	-12,418180	99,042	-0,111375	22,340000	47,335000
2,237633	-13,003638	99,194	-0,111613	22,340000	47,335000
2,235555	-12,612533	99,361	-0,111454	22,340000	47,335000
2,233458	-13,393543	99,512	-0,111771	22,340000	47,350000
2,231398	-13,197990	99,663	-0,111692	22,340000	47,350000
2,229253	-13,653879	99,831	-0,111877	22,340000	47,350000
2,227213	-13,653879	99,989	-0,111877	22,340000	47,350000
2,225109	-13,977801	100,146	-0,112009	22,340000	47,350000
2,223043	-13,848232	100,296	-0,111957	22,340000	47,350000
2,220898	-13,393543	100,446	-0,111771	22,340000	47,350000
2,218802	-14,628042	100,599	-0,112274	22,340000	47,350000
2,216741	-14,694026	100,750	-0,112301	22,340000	47,350000
2,214547	-15,148716	100,901	-0,112486	22,340000	47,350000
2,212504	-15,538621	101,073	-0,112645	22,340000	47,350000
2,210435	-15,409053	101,225	-0,112592	22,340000	47,350000
2,208252	-15,603405	101,386	-0,112671	22,340000	47,350000
2,206224	-15,538621	101,548	-0,112645	22,340000	47,350000
2,204099	-15,928526	101,704	-0,112803	22,340000	47,350000
2,201967	-16,709536	101,854	-0,113121	22,340000	47,350000
2,199883	-16,449200	102,020	-0,113015	22,340000	47,350000
2,197763	-16,839105	102,173	-0,113174	22,340000	47,350000
2,195695	-17,293794	102,325	-0,113359	22,340000	47,350000
2,193576	-17,293794	102,480	-0,113359	22,340000	47,350000
2,191455	-16,968673	102,639	-0,113227	22,340000	47,350000
2,189324	-17,814468	102,790	-0,113571	22,340000	47,350000
2,187288	-17,749683	102,951	-0,113544	22,340000	47,350000
2,185271	-17,749683	103,102	-0,113544	22,340000	47,350000
2,183109	-17,359778	103,254	-0,113386	22,340000	47,350000
2,180982	-18,139588	103,404	-0,113703	22,340000	47,350000
2,178883	-18,204373	103,554	-0,113729	22,340000	47,350000
2,176793	-18,008820	103,705	-0,113650	22,340000	47,350000
2,174690	-18,464709	103,870	-0,113835	22,340000	47,350000
2,172556	0,194353	104,024	-0,106241	22,340000	47,350000
2,170514	-0,129568	104,180	-0,106373	22,340000	47,350000
2,168403	0,194353	104,330	-0,106241	22,340000	47,350000
2,166295	-0,195552	104,481	-0,106400	22,340000	47,350000
2,164154	0,454689	104,652	-0,106135	22,340000	47,350000
2,162096	0,194353	104,803	-0,106241	22,340000	47,350000
2,159954	-0,715026	104,953	-0,106611	22,340000	47,350000
2,157881	-0,585458	105,105	-0,106559	22,340000	47,350000
2,155782	0,389905	105,258	-0,106162	22,340000	47,350000
2,153678	-0,389905	105,410	-0,106479	22,340000	47,350000
2,151592	-0,650242	105,560	-0,106585	22,350000	47,310000
2,149437	-0,520673	105,712	-0,106532	22,350000	47,310000
2,147385	-0,064784	105,881	-0,106347	22,350000	47,310000
2,145280	0,129568	106,031	-0,106268	22,350000	47,310000
2,143220	-0,064784	106,205	-0,106347	22,350000	47,310000
2,141109	-0,260337	106,355	-0,106426	22,350000	47,310000
2,138950	-0,195552	106,505	-0,106400	22,350000	47,310000
2,136828	0,454689	106,678	-0,106135	22,350000	47,310000
2,134801	-0,389905	106,829	-0,106479	22,350000	47,310000
2,132672	0,129568	106,989	-0,106268	22,350000	47,310000
2,130580	-0,195552	107,140	-0,106400	22,350000	47,310000
2,128499	0,194353	107,299	-0,106241	22,350000	47,310000
2,126368	0,194353	107,450	-0,106241	22,340000	47,350000
2,124238	-0,129568	107,603	-0,106373	22,340000	47,350000
2,122152	-0,260337	107,757	-0,106426	22,340000	47,350000
2,120106	0,000000	107,908	-0,106320	22,340000	47,350000
2,117952	0,000000	108,058	-0,106320	22,340000	47,350000
2,115862	0,064784	108,230	-0,106294	22,340000	47,350000
2,113858	0,064784	108,380	-0,106294	22,340000	47,350000
2,111688	-0,389905	108,550	-0,106479	22,340000	47,350000
2,109559	-0,325121	108,702	-0,106453	22,340000	47,350000
2,107511	-0,520673	108,854	-0,106532	22,340000	47,350000
2,105405	-0,455889	109,011	-0,106506	22,340000	47,350000
2,103303	0,325121	109,163	-0,106188	22,340000	47,350000
2,101229	-0,129568	109,314	-0,106373	22,340000	47,350000
2,099047	0,129568	109,490	-0,106268	22,340000	47,350000
2,097025	-0,195552	109,641	-0,106400	22,340000	47,350000
2,094884	-0,129568	109,807	-0,106373	22,340000	47,350000
2,092802	0,129568	109,959	-0,106268	22,340000	47,350000
2,090662	0,260337	110,110	-0,106214	22,340000	47,350000
2,088552	0,000000	110,263	-0,106320	22,340000	47,350000
2,086446	0,129568	110,415	-0,106268	22,340000	47,350000
2,084385	0,260337	110,592	-0,106214	22,340000	47,350000
2,082304	-0,260337	110,743	-0,106426	22,340000	47,350000
2,080192	0,389905	110,894	-0,106162	22,340000	47,350000
2,078044	-0,455889	111,057	-0,106506	22,340000	47,350000
2,076024	0,260337	111,208	-0,106214	22,340000	47,350000
2,073881	-0,260337	111,358	-0,106426	22,340000	47,350000
2,071787	-0,195552	111,510	-0,106400	22,340000	47,350000
2,069706	0,064784	111,662	-0,106294	22,340000	47,350000
2,067533	-0,455889	111,813	-0,106506	22,340000	47,350000
2,065537	-0,195552	111,963	-0,106400	22,340000	47,350000
2,063383	0,129568	112,114	-0,106268	22,340000	47,350000
2,061286	-0,064784	112,265	-0,106347	22,340000	47,350000
2,059206	-0,260337	112,415	-0,106426	22,340000	47,350000
2,057112	-0,064784	112,584	-0,106347	22,340000	47,350000
2,055009	-0,064784	112,735	-0,106347	22,340000	47,350000
2,052932	0,194353	112,888	-0,106241	22,340000	47,350000
2,050773	-0,129568	113,050	-0,106373	22,340000	47,350000
2,050077	-0,129568	113,101	-0,106373	22,340000	47,350000