File: Nanoindentation Datenauswertung/data/EM-SA-50-10-50-0,5um
Quasi static measurement routine
Tip parameters (shape,radius, material...)
17.08.2022

Piezo position[nm]	MEMS displ.[nm]	Time[ms]	Cap [pf]	Temp [°C]	Rh [%]
eoh
2,184118	-0,127327	0,214	-0,106926	22,400000	55,130000
2,185584	-0,387821	0,365	-0,107035	22,400000	55,130000
2,187043	-0,276848	0,516	-0,106988	22,400000	55,130000
2,188564	-0,348105	0,666	-0,107018	22,400000	55,130000
2,190057	-0,087610	0,817	-0,106909	22,410000	55,135000
2,191579	-0,119150	0,967	-0,106922	22,410000	55,135000
2,193074	-0,285025	1,118	-0,106992	22,410000	55,135000
2,194631	-0,261663	1,268	-0,106982	22,410000	55,135000
2,196033	-0,332919	1,418	-0,107012	22,410000	55,135000
2,197587	-0,174052	1,569	-0,106945	22,410000	55,135000
2,199080	-0,372636	1,720	-0,107028	22,410000	55,135000
2,200556	-0,293202	1,871	-0,106995	22,410000	55,135000
2,202038	-0,435715	2,022	-0,107055	22,410000	55,135000
2,203534	-0,079433	2,174	-0,106906	22,410000	55,135000
2,205101	-0,356282	2,324	-0,107021	22,410000	55,135000
2,206605	-0,324742	2,476	-0,107008	22,410000	55,135000
2,208078	-0,689201	2,626	-0,107161	22,410000	55,135000
2,209565	-0,285025	2,776	-0,106992	22,400000	55,145000
2,211056	-0,443892	2,927	-0,107058	22,400000	55,145000
2,212578	-0,316565	3,078	-0,107005	22,400000	55,145000
2,214058	-0,515148	3,229	-0,107088	22,400000	55,145000
2,215543	-0,372636	3,381	-0,107028	22,400000	55,145000
2,217073	-0,356282	3,531	-0,107021	22,400000	55,145000
2,218570	-0,150690	3,683	-0,106936	22,400000	55,145000
2,220049	-0,230123	3,834	-0,106969	22,400000	55,145000
2,221609	-0,459078	3,986	-0,107064	22,400000	55,145000
2,223057	-0,182229	4,136	-0,106949	22,400000	55,145000
2,224554	0,023363	4,287	-0,106863	22,400000	55,145000
2,226142	-0,467255	4,438	-0,107068	22,400000	55,145000
2,227611	-0,380813	4,588	-0,107032	22,400000	55,145000
2,229089	-0,404175	4,740	-0,107042	22,400000	55,145000
2,230543	-0,372636	4,890	-0,107028	22,400000	55,145000
2,232075	-0,404175	5,040	-0,107042	22,400000	55,145000
2,233550	-0,285025	5,192	-0,106992	22,400000	55,145000
2,235108	-0,308388	5,343	-0,107001	22,400000	55,145000
2,236592	-0,269840	5,493	-0,106985	22,400000	55,145000
2,238119	-0,230123	5,643	-0,106969	22,400000	55,145000
2,239547	-0,213769	5,793	-0,106962	22,400000	55,145000
2,241030	-0,452069	5,943	-0,107062	22,400000	55,145000
2,242589	-0,135504	6,096	-0,106929	22,400000	55,145000
2,244032	-0,261663	6,246	-0,106982	22,400000	55,145000
2,245585	-0,316565	6,396	-0,107005	22,400000	55,145000
2,247070	-0,135504	6,547	-0,106929	22,400000	55,145000
2,248531	-0,356282	6,697	-0,107021	22,410000	55,135000
2,250020	-0,387821	6,848	-0,107035	22,410000	55,135000
2,251561	-0,356282	6,998	-0,107021	22,410000	55,135000
2,253093	-0,285025	7,149	-0,106992	22,410000	55,135000
2,254577	-0,530334	7,299	-0,107094	22,410000	55,135000
2,256097	-0,150690	7,451	-0,106936	22,410000	55,135000
2,257563	-0,586405	7,602	-0,107118	22,410000	55,135000
2,259084	-0,348105	7,752	-0,107018	22,410000	55,135000
2,260534	-0,387821	7,904	-0,107035	22,410000	55,135000
2,262081	-0,475432	8,055	-0,107071	22,410000	55,135000
2,263538	-0,364459	8,206	-0,107025	22,410000	55,135000
2,265031	-0,182229	8,356	-0,106949	22,410000	55,135000
2,266591	-0,285025	8,508	-0,106992	22,410000	55,135000
2,268041	-0,332919	8,658	-0,107012	22,410000	55,135000
2,269578	-0,174052	8,808	-0,106945	22,410000	55,135000
2,271056	-0,127327	8,958	-0,106926	22,410000	55,135000
2,272620	-0,230123	9,110	-0,106969	22,410000	55,135000
2,274087	-0,356282	9,263	-0,107021	22,410000	55,135000
2,275561	-0,276848	9,415	-0,106988	22,410000	55,135000
2,277068	-0,158867	9,565	-0,106939	22,410000	55,135000
2,278594	-0,206760	9,717	-0,106959	22,410000	55,135000
2,280050	-0,506971	9,867	-0,107084	22,410000	55,135000
2,281473	-0,206760	10,017	-0,106959	22,410000	55,135000
2,283062	-0,301379	10,169	-0,106999	22,410000	55,135000
2,284527	-0,261663	10,320	-0,106982	22,410000	55,135000
2,286034	-0,435715	10,470	-0,107055	22,410000	55,135000
2,287618	-0,427538	10,621	-0,107051	22,410000	55,135000
2,289039	-0,380813	10,774	-0,107032	22,410000	55,135000
2,290605	-0,372636	10,925	-0,107028	22,410000	55,135000
2,292087	-0,095787	11,075	-0,106913	22,410000	55,135000
2,293612	-0,071256	11,225	-0,106902	22,410000	55,135000
2,295052	-0,293202	11,376	-0,106995	22,410000	55,135000
2,296536	-0,261663	11,527	-0,106982	22,410000	55,135000
2,298049	-0,372636	11,678	-0,107028	22,410000	55,135000
2,299581	-0,119150	11,828	-0,106922	22,410000	55,135000
2,301041	-0,110973	11,980	-0,106919	22,410000	55,135000
2,302578	-0,308388	12,131	-0,107001	22,410000	55,135000
2,304094	-0,316565	12,281	-0,107005	22,410000	55,135000
2,305578	-0,475432	12,433	-0,107071	22,410000	55,135000
2,307064	-0,459078	12,583	-0,107064	22,410000	55,135000
2,308569	-0,308388	12,734	-0,107001	22,400000	55,105000
2,310093	-0,427538	12,885	-0,107051	22,400000	55,105000
2,311576	-0,412352	13,036	-0,107045	22,400000	55,105000
2,313061	-0,119150	13,186	-0,106922	22,400000	55,105000
2,314561	-0,253486	13,337	-0,106979	22,400000	55,105000
2,316013	-0,158867	13,487	-0,106939	22,400000	55,105000
2,317552	-0,308388	13,639	-0,107001	22,400000	55,105000
2,319044	-0,253486	13,790	-0,106979	22,400000	55,105000
2,320638	-0,601591	13,941	-0,107124	22,400000	55,105000
2,322038	-0,135504	14,092	-0,106929	22,400000	55,105000
2,323622	-0,364459	14,244	-0,107025	22,400000	55,105000
2,325091	-0,056071	14,395	-0,106896	22,400000	55,105000
2,326617	-0,293202	14,546	-0,106995	22,400000	55,105000
2,328060	-0,293202	14,696	-0,106995	22,400000	55,105000
2,329582	-0,063079	14,848	-0,106899	22,400000	55,105000
2,331061	-0,308388	14,999	-0,107001	22,400000	55,105000
2,332560	-0,364459	15,149	-0,107025	22,400000	55,105000
2,334082	-0,530334	15,300	-0,107094	22,400000	55,105000
2,335620	-0,213769	15,450	-0,106962	22,400000	55,105000
2,337071	-0,427538	15,600	-0,107051	22,400000	55,105000
2,338576	-0,459078	15,751	-0,107064	22,400000	55,105000
2,340047	-0,427538	15,902	-0,107051	22,400000	55,105000
2,341648	-0,380813	16,052	-0,107032	22,400000	55,105000
2,343074	-0,301379	16,204	-0,106999	22,400000	55,105000
2,344575	-0,198583	16,356	-0,106956	22,400000	55,105000
2,346056	-0,387821	16,507	-0,107035	22,400000	55,105000
2,347542	-0,324742	16,657	-0,107008	22,400000	55,105000
2,349083	-0,483609	16,808	-0,107075	22,400000	55,130000
2,350554	-0,293202	16,960	-0,106995	22,400000	55,130000
2,352060	-0,657661	17,111	-0,107147	22,400000	55,130000
2,353570	-0,332919	17,263	-0,107012	22,400000	55,130000
2,355046	-0,672847	17,414	-0,107154	22,400000	55,130000
2,356570	-0,356282	17,567	-0,107021	22,400000	55,130000
2,358064	-0,395998	17,717	-0,107038	22,400000	55,130000
2,359611	-0,380813	17,867	-0,107032	22,400000	55,130000
2,361095	-0,293202	18,017	-0,106995	22,400000	55,130000
2,362556	-0,364459	18,167	-0,107025	22,400000	55,130000
2,364119	-0,443892	18,319	-0,107058	22,400000	55,130000
2,365538	-0,649484	18,471	-0,107144	22,400000	55,130000
2,367037	-0,452069	18,621	-0,107062	22,400000	55,130000
2,368558	-0,387821	18,772	-0,107035	22,400000	55,145000
2,370046	-0,475432	18,923	-0,107071	22,400000	55,145000
2,371607	-0,498794	19,073	-0,107081	22,400000	55,145000
2,373096	-0,182229	19,225	-0,106949	22,400000	55,145000
2,374545	-0,467255	19,375	-0,107068	22,400000	55,145000
2,376019	-0,380813	19,525	-0,107032	22,400000	55,145000
2,377564	-0,380813	19,676	-0,107032	22,400000	55,145000
2,378993	-0,515148	19,827	-0,107088	22,400000	55,145000
2,380592	-0,364459	19,977	-0,107025	22,400000	55,145000
2,382072	-0,261663	20,127	-0,106982	22,400000	55,145000
2,383541	-0,712564	20,277	-0,107170	22,400000	55,145000
2,385071	-0,341096	20,428	-0,107015	22,400000	55,145000
2,386536	-0,387821	20,580	-0,107035	22,400000	55,145000
2,388100	-0,586405	20,732	-0,107118	22,400000	55,145000
2,389569	-0,190406	20,884	-0,106952	22,400000	55,145000
2,391084	-0,127327	21,036	-0,106926	22,400000	55,145000
2,392517	-0,498794	21,187	-0,107081	22,400000	55,145000
2,394042	-0,230123	21,337	-0,106969	22,400000	55,145000
2,395583	-0,364459	21,489	-0,107025	22,400000	55,145000
2,397029	-0,395998	21,639	-0,107038	22,400000	55,145000
2,398590	-0,182229	21,789	-0,106949	22,400000	55,145000
2,400046	-0,578228	21,940	-0,107114	22,400000	55,145000
2,401596	-0,404175	22,091	-0,107042	22,400000	55,145000
2,403079	-0,427538	22,244	-0,107051	22,400000	55,145000
2,404559	-0,427538	22,395	-0,107051	22,400000	55,145000
2,406036	-0,269840	22,548	-0,106985	22,400000	55,145000
2,407555	-0,459078	22,699	-0,107064	22,400000	55,130000
2,409052	-0,364459	22,853	-0,107025	22,400000	55,130000
2,410550	-0,213769	23,004	-0,106962	22,400000	55,130000
2,412084	-0,561874	23,154	-0,107107	22,400000	55,130000
2,413533	-0,387821	23,306	-0,107035	22,400000	55,130000
2,415081	-0,443892	23,457	-0,107058	22,400000	55,130000
2,416535	-0,498794	23,608	-0,107081	22,400000	55,130000
2,418145	-0,095787	23,758	-0,106913	22,400000	55,130000
2,419513	-0,775643	23,908	-0,107197	22,400000	55,130000
2,421043	-0,395998	24,059	-0,107038	22,400000	55,130000
2,422507	-0,506971	24,210	-0,107084	22,400000	55,130000
2,424093	-0,395998	24,360	-0,107038	22,400000	55,130000
2,425577	-0,269840	24,510	-0,106985	22,400000	55,130000
2,427035	-0,395998	24,664	-0,107038	22,400000	55,130000
2,428583	-0,435715	24,814	-0,107055	22,410000	55,150000
2,430067	-0,341096	24,965	-0,107015	22,410000	55,150000
2,431517	-0,578228	25,116	-0,107114	22,410000	55,150000
2,433062	-0,102796	25,272	-0,106916	22,410000	55,150000
2,434548	-0,387821	25,424	-0,107035	22,410000	55,150000
2,436031	-0,341096	25,575	-0,107015	22,410000	55,150000
2,437528	-0,419361	25,726	-0,107048	22,410000	55,150000
2,439104	-0,593414	25,877	-0,107121	22,410000	55,150000
2,440584	-0,198583	26,028	-0,106956	22,410000	55,150000
2,442099	-0,578228	26,179	-0,107114	22,410000	55,150000
2,443606	-0,230123	26,330	-0,106969	22,410000	55,150000
2,445066	-0,452069	26,480	-0,107062	22,410000	55,150000
2,446566	-0,626121	26,631	-0,107134	22,410000	55,150000
2,448084	-0,404175	26,782	-0,107042	22,410000	55,135000
2,449575	-0,459078	26,934	-0,107064	22,410000	55,135000
2,451072	-0,546688	27,084	-0,107101	22,410000	55,135000
2,452553	-0,404175	27,235	-0,107042	22,410000	55,135000
2,454019	-0,697378	27,386	-0,107164	22,410000	55,135000
2,455511	-0,570051	27,537	-0,107111	22,410000	55,135000
2,457059	-0,515148	27,687	-0,107088	22,410000	55,135000
2,458616	-0,372636	27,837	-0,107028	22,410000	55,135000
2,460057	-0,855076	27,987	-0,107230	22,410000	55,135000
2,461595	-0,332919	28,139	-0,107012	22,410000	55,135000
2,463082	-0,167044	28,290	-0,106942	22,410000	55,135000
2,464551	-0,522157	28,440	-0,107091	22,410000	55,135000
2,466071	-0,459078	28,591	-0,107064	22,410000	55,135000
2,467547	-0,293202	28,742	-0,106995	22,410000	55,125000
2,469107	-0,554865	28,893	-0,107104	22,410000	55,125000
2,470589	-0,538511	29,043	-0,107098	22,410000	55,125000
2,472036	-0,775643	29,193	-0,107197	22,410000	55,125000
2,473580	-0,308388	29,343	-0,107001	22,410000	55,125000
2,475109	-0,617944	29,494	-0,107131	22,410000	55,125000
2,476592	-0,490618	29,644	-0,107078	22,410000	55,125000
2,478093	-0,546688	29,794	-0,107101	22,410000	55,125000
2,479576	-0,372636	29,944	-0,107028	22,410000	55,125000
2,481078	-0,490618	30,096	-0,107078	22,410000	55,125000
2,482571	-0,506971	30,248	-0,107084	22,410000	55,125000
2,484053	-0,538511	30,398	-0,107098	22,410000	55,125000
2,485527	-0,657661	30,550	-0,107147	22,410000	55,125000
2,487055	-0,586405	30,702	-0,107118	22,400000	55,120000
2,488538	-0,522157	30,854	-0,107091	22,400000	55,120000
2,490036	-0,633130	31,004	-0,107137	22,400000	55,120000
2,491579	-0,617944	31,155	-0,107131	22,400000	55,120000
2,493003	-0,198583	31,306	-0,106956	22,400000	55,120000
2,494523	-0,586405	31,458	-0,107118	22,400000	55,120000
2,496036	-0,578228	31,609	-0,107114	22,400000	55,120000
2,497497	-0,372636	31,760	-0,107028	22,400000	55,120000
2,499062	-0,617944	31,910	-0,107131	22,400000	55,120000
2,500606	-0,752280	32,061	-0,107187	22,400000	55,120000
2,502050	-0,689201	32,211	-0,107161	22,400000	55,120000
2,503524	-0,570051	32,361	-0,107111	22,400000	55,120000
2,505059	-0,720741	32,511	-0,107174	22,400000	55,120000
2,506556	-0,957872	32,661	-0,107273	22,400000	55,120000
2,508112	-0,459078	32,812	-0,107064	22,400000	55,120000
2,509581	-0,704387	32,963	-0,107167	22,400000	55,120000
2,511040	-0,609767	33,115	-0,107127	22,400000	55,120000
2,512573	-0,744103	33,266	-0,107184	22,400000	55,120000
2,514098	-0,515148	33,416	-0,107088	22,400000	55,120000
2,515565	-0,419361	33,566	-0,107048	22,400000	55,120000
2,517078	-0,681024	33,718	-0,107157	22,400000	55,120000
2,518585	-0,672847	33,870	-0,107154	22,400000	55,120000
2,520076	-0,744103	34,020	-0,107184	22,400000	55,120000
2,521586	-0,689201	34,170	-0,107161	22,400000	55,120000
2,523054	-0,435715	34,320	-0,107055	22,400000	55,120000
2,524587	-0,435715	34,471	-0,107055	22,400000	55,120000
2,526038	-0,791997	34,623	-0,107204	22,400000	55,120000
2,527523	-0,839890	34,774	-0,107224	22,410000	55,125000
2,529087	-0,712564	34,925	-0,107170	22,410000	55,125000
2,530556	-0,894793	35,075	-0,107247	22,410000	55,125000
2,532111	-0,846899	35,228	-0,107227	22,410000	55,125000
2,533530	-0,800174	35,379	-0,107207	22,410000	55,125000
2,535013	-0,871430	35,529	-0,107237	22,410000	55,125000
2,536612	-0,894793	35,680	-0,107247	22,410000	55,125000
2,538065	-1,234721	35,830	-0,107389	22,410000	55,125000
2,539519	-0,871430	35,982	-0,107237	22,410000	55,125000
2,541065	-0,855076	36,134	-0,107230	22,410000	55,125000
2,542565	-1,068845	36,285	-0,107319	22,410000	55,125000
2,544072	-1,393587	36,436	-0,107455	22,410000	55,125000
2,545578	-1,234721	36,586	-0,107389	22,410000	55,125000
2,547090	-1,282614	36,736	-0,107409	22,410000	55,125000
2,548557	-1,259252	36,909	-0,107399	22,410000	55,125000
2,550040	-1,448490	37,061	-0,107478	22,410000	55,125000
2,551523	-1,504560	37,214	-0,107501	22,410000	55,125000
2,553090	-2,025549	37,365	-0,107719	22,410000	55,125000
2,554579	-1,662259	37,515	-0,107567	22,410000	55,125000
2,556053	-15,146064	37,687	-0,113204	22,410000	55,125000
2,557555	-13,539876	37,838	-0,112532	22,410000	55,125000
2,559031	-12,336694	37,988	-0,112029	22,410000	55,125000
2,560545	-10,801762	38,139	-0,111388	22,410000	55,125000
2,562037	-9,804174	38,290	-0,110971	22,410000	55,125000
2,563551	-8,483011	38,441	-0,110418	22,410000	55,125000
2,565043	-6,821920	38,592	-0,109724	22,410000	55,125000
2,566555	-5,507766	38,744	-0,109175	22,410000	55,110000
2,568040	-3,838498	38,895	-0,108477	22,410000	55,110000
2,569557	-2,658680	39,046	-0,107984	22,410000	55,110000
2,571047	-1,116739	39,197	-0,107339	22,410000	55,110000
2,572569	-0,039717	39,348	-0,106889	22,410000	55,110000
2,574062	1,748701	39,500	-0,106142	22,410000	55,110000
2,575550	3,212377	39,651	-0,105530	22,410000	55,110000
2,577037	4,803379	39,802	-0,104865	22,410000	55,110000
2,578542	5,428332	39,952	-0,104604	22,410000	55,110000
2,580042	7,097600	40,102	-0,103906	22,410000	55,110000
2,581499	8,632532	40,253	-0,103264	22,410000	55,110000
2,583084	10,064668	40,406	-0,102666	22,410000	55,110000
2,584537	11,204770	40,556	-0,102189	22,410000	55,110000
2,586010	12,739702	40,706	-0,101547	22,400000	55,130000
2,587542	14,140298	40,858	-0,100962	22,400000	55,130000
2,589060	15,413567	41,009	-0,100430	22,400000	55,130000
2,590523	17,258055	41,160	-0,099659	22,400000	55,130000
2,592027	18,151680	41,310	-0,099285	22,400000	55,130000
2,593600	19,877019	41,460	-0,098564	22,400000	55,130000
2,595106	21,776409	41,611	-0,097770	22,400000	55,130000
2,596494	22,408371	41,766	-0,097506	22,400000	55,130000
2,598033	24,347479	41,917	-0,096695	22,400000	55,130000
2,599558	25,313528	42,067	-0,096292	22,400000	55,130000
2,601072	27,014335	42,217	-0,095581	22,400000	55,130000
2,602576	28,090190	42,367	-0,095131	22,400000	55,130000
2,604010	29,206928	42,518	-0,094664	22,400000	55,130000
2,605511	31,406530	42,671	-0,093745	22,400000	55,130000
2,607033	32,442668	42,821	-0,093312	22,400000	55,130000
2,608521	33,795370	42,972	-0,092746	22,400000	55,130000
2,610136	34,816322	43,123	-0,092319	22,400000	55,130000
2,611578	36,699359	43,273	-0,091532	22,400000	55,130000
2,613034	37,665408	43,423	-0,091128	22,400000	55,130000
2,614542	38,835881	43,573	-0,090639	22,400000	55,130000
2,616084	40,783166	43,724	-0,089825	22,400000	55,130000
2,617539	41,906914	43,875	-0,089355	22,400000	55,130000
2,619038	43,726871	44,025	-0,088595	22,400000	55,130000
2,620574	45,150830	44,178	-0,088000	22,400000	55,130000
2,622088	46,599320	44,329	-0,087394	22,400000	55,130000
2,623549	47,683351	44,479	-0,086941	22,400000	55,130000
2,625027	49,083947	44,629	-0,086355	22,400000	55,130000
2,626529	50,421464	44,786	-0,085796	22,400000	55,105000
2,628038	52,241421	44,936	-0,085036	22,400000	55,105000
2,629545	53,531044	45,087	-0,084497	22,400000	55,105000
2,631032	54,583536	45,239	-0,084057	22,400000	55,105000
2,632562	55,967778	45,391	-0,083478	22,400000	55,105000
2,634018	58,064584	45,542	-0,082602	22,400000	55,105000
2,635602	59,315659	45,695	-0,082079	22,400000	55,105000
2,637056	60,755972	45,846	-0,081477	22,400000	55,105000
2,638545	62,077134	45,996	-0,080924	22,400000	55,105000
2,640036	63,350404	46,147	-0,080392	22,400000	55,105000
2,641530	64,387709	46,298	-0,079958	22,400000	55,105000
2,643013	65,851385	46,448	-0,079347	22,400000	55,105000
2,644628	67,442387	46,598	-0,078682	22,400000	55,105000
2,646051	68,929426	46,749	-0,078060	22,400000	55,130000
2,647515	70,116253	46,899	-0,077564	22,400000	55,130000
2,649058	71,778512	47,051	-0,076869	22,400000	55,130000
2,650582	73,170931	47,202	-0,076287	22,400000	55,130000
2,652006	74,563350	47,353	-0,075705	22,400000	55,130000
2,653586	76,209255	47,504	-0,075017	22,400000	55,130000
2,655048	77,404259	47,655	-0,074518	22,400000	55,130000
2,656555	78,622626	47,806	-0,074008	22,400000	55,130000
2,658020	80,062939	47,956	-0,073406	22,400000	55,130000
2,659478	81,297660	48,107	-0,072890	22,400000	55,130000
2,661035	83,140980	48,257	-0,072120	22,400000	55,130000
2,662519	84,075490	48,408	-0,071729	22,400000	55,130000
2,664030	85,958526	48,560	-0,070942	22,400000	55,130000
2,665513	87,185070	48,712	-0,070429	22,400000	55,130000
2,667014	87,920997	48,881	-0,070122	22,400000	55,130000
2,668585	90,175501	49,031	-0,069179	22,400000	55,130000
2,669999	91,560911	49,181	-0,068600	22,400000	55,130000
2,671539	93,158923	49,332	-0,067932	22,400000	55,130000
2,673010	94,947340	49,482	-0,067185	22,400000	55,130000
2,674573	95,666913	49,633	-0,066884	22,400000	55,130000
2,676091	97,486870	49,785	-0,066123	22,400000	55,130000
2,677540	98,358300	49,938	-0,065759	22,400000	55,130000
2,679060	99,671286	50,089	-0,065210	22,400000	55,130000
2,680523	101,134962	50,240	-0,064598	22,400000	55,130000
2,682005	102,954919	50,392	-0,063837	22,400000	55,130000
2,683513	104,514382	50,544	-0,063186	22,400000	55,130000
2,684024	104,743337	50,695	-0,063090	22,400000	55,090000
2,684061	104,965283	50,845	-0,062997	22,400000	55,090000
2,683980	104,902204	50,995	-0,063023	22,400000	55,090000
2,684022	104,759691	51,146	-0,063083	22,400000	55,090000
2,684090	104,482842	51,296	-0,063199	22,400000	55,090000
2,684043	104,609001	51,446	-0,063146	22,400000	55,090000
2,684043	104,609001	51,598	-0,063146	22,400000	55,090000
2,684005	104,363692	51,748	-0,063249	22,400000	55,090000
2,684042	104,562276	51,899	-0,063166	22,400000	55,090000
2,684075	104,656895	52,049	-0,063126	22,400000	55,090000
2,684001	104,237534	52,200	-0,063301	22,400000	55,090000
2,684049	104,585638	52,351	-0,063156	22,400000	55,090000
2,684048	104,103198	52,501	-0,063357	22,400000	55,090000
2,684021	104,292436	52,651	-0,063278	22,400000	55,090000
2,683965	104,498028	52,801	-0,063192	22,400000	55,090000
2,684045	104,443126	52,953	-0,063215	22,400000	55,090000
2,684029	104,371869	53,104	-0,063245	22,400000	55,090000
2,684005	104,269073	53,254	-0,063288	22,400000	55,090000
2,684028	104,545922	53,404	-0,063172	22,400000	55,090000
2,684011	104,585638	53,555	-0,063156	22,400000	55,090000
2,684047	104,221180	53,706	-0,063308	22,400000	55,090000
2,684032	104,363692	53,856	-0,063249	22,400000	55,090000
2,684026	104,284259	54,006	-0,063282	22,400000	55,090000
2,684090	104,403409	54,175	-0,063232	22,400000	55,090000
2,684056	104,269073	54,326	-0,063288	22,400000	55,090000
2,683987	104,355515	54,476	-0,063252	22,400000	55,090000
2,684054	104,237534	54,627	-0,063301	22,400000	55,090000
2,684054	104,213003	54,778	-0,063312	22,390000	55,090000
2,683968	104,023765	54,929	-0,063391	22,390000	55,090000
2,684044	104,315799	55,079	-0,063269	22,390000	55,090000
2,683954	104,070490	55,230	-0,063371	22,390000	55,090000
2,683999	103,675660	55,383	-0,063536	22,390000	55,090000
2,683993	104,078667	55,534	-0,063368	22,390000	55,090000
2,684025	104,371869	55,686	-0,063245	22,390000	55,090000
2,684044	104,292436	55,836	-0,063278	22,390000	55,090000
2,684056	104,395232	55,986	-0,063235	22,390000	55,090000
2,684044	104,554099	56,136	-0,063169	22,390000	55,090000
2,684075	104,380046	56,286	-0,063242	22,390000	55,090000
2,684015	104,221180	56,437	-0,063308	22,390000	55,090000
2,684022	104,221180	56,588	-0,063308	22,390000	55,090000
2,684044	104,269073	56,738	-0,063288	22,400000	55,145000
2,683985	104,340330	56,888	-0,063258	22,400000	55,145000
2,684092	104,632364	57,038	-0,063136	22,400000	55,145000
2,684064	104,315799	57,189	-0,063269	22,400000	55,145000
2,684048	104,277250	57,340	-0,063285	22,400000	55,145000
2,684087	103,801819	57,490	-0,063483	22,400000	55,145000
2,684011	103,952508	57,640	-0,063420	22,400000	55,145000
2,684064	103,960685	57,790	-0,063417	22,400000	55,145000
2,684060	104,300613	57,942	-0,063275	22,400000	55,145000
2,684060	104,110207	58,094	-0,063354	22,400000	55,145000
2,684060	103,755093	58,251	-0,063503	22,400000	55,145000
2,684035	104,063481	58,403	-0,063374	22,400000	55,145000
2,684025	104,030773	58,554	-0,063388	22,400000	55,145000
2,684053	104,181463	58,704	-0,063325	22,400000	55,145000
2,684048	103,644120	58,855	-0,063549	22,400000	55,145000
2,684035	103,770279	59,005	-0,063497	22,400000	55,145000
2,684048	103,785465	59,155	-0,063490	22,400000	55,145000
2,684016	104,149923	59,306	-0,063338	22,400000	55,145000
2,684039	103,793642	59,456	-0,063487	22,400000	55,145000
2,684091	104,110207	59,606	-0,063354	22,400000	55,145000
2,684062	104,315799	59,756	-0,063269	22,400000	55,145000
2,684032	104,450135	59,907	-0,063212	22,400000	55,145000
2,684023	103,975871	60,057	-0,063411	22,400000	55,145000
2,684026	103,936154	60,208	-0,063427	22,400000	55,145000
2,684051	103,793642	60,358	-0,063487	22,400000	55,145000
2,684046	104,229357	60,509	-0,063305	22,400000	55,145000
2,684009	104,070490	60,661	-0,063371	22,400000	55,145000
2,682524	102,900017	60,839	-0,063860	22,410000	55,110000
2,681035	100,937547	60,989	-0,064681	22,410000	55,110000
2,679544	99,528774	61,140	-0,065270	22,410000	55,110000
2,678005	98,326761	61,292	-0,065772	22,410000	55,110000
2,676588	96,648148	61,442	-0,066474	22,410000	55,110000
2,675063	95,058313	61,595	-0,067138	22,410000	55,110000
2,673571	93,997645	61,747	-0,067582	22,410000	55,110000
2,672026	92,502430	61,898	-0,068207	22,410000	55,110000
2,670524	91,338965	62,048	-0,068693	22,410000	55,110000
2,669059	89,550548	62,198	-0,069440	22,410000	55,110000
2,667547	88,554127	62,348	-0,069857	22,410000	55,110000
2,665946	86,772718	62,498	-0,070602	22,410000	55,110000
2,664564	85,325396	62,648	-0,071207	22,410000	55,110000
2,663005	83,908446	62,800	-0,071799	22,410000	55,110000
2,661540	82,365337	62,951	-0,072444	22,410000	55,110000
2,660026	81,100245	63,103	-0,072973	22,410000	55,110000
2,658547	80,016214	63,260	-0,073426	22,410000	55,110000
2,656999	78,242982	63,412	-0,074167	22,410000	55,110000
2,655544	76,976721	63,563	-0,074696	22,410000	55,110000
2,654078	75,307454	63,714	-0,075394	22,410000	55,110000
2,652553	73,471142	63,864	-0,076162	22,410000	55,110000
2,651021	71,912848	64,014	-0,076813	22,410000	55,110000
2,649539	70,598694	64,164	-0,077362	22,410000	55,110000
2,648057	69,554379	64,314	-0,077799	22,410000	55,110000
2,646533	68,050987	64,464	-0,078427	22,410000	55,110000
2,645021	66,547595	64,614	-0,079056	22,410000	55,110000
2,643550	65,123636	64,764	-0,079651	22,410000	55,125000
2,641999	63,469554	64,916	-0,080342	22,410000	55,125000
2,640564	62,266373	65,067	-0,080845	22,410000	55,125000
2,639085	60,114664	65,218	-0,081745	22,410000	55,125000
2,637563	59,339021	65,369	-0,082069	22,410000	55,125000
2,636016	58,001505	65,520	-0,082628	22,410000	55,125000
2,634556	56,498112	65,679	-0,083256	22,410000	55,125000
2,633068	54,986543	65,829	-0,083888	22,410000	55,125000
2,631572	53,428248	65,979	-0,084540	22,410000	55,125000
2,630022	52,486730	66,130	-0,084933	22,410000	55,125000
2,628544	50,958807	66,283	-0,085572	22,410000	55,125000
2,627015	49,344442	66,433	-0,086247	22,410000	55,125000
2,625575	48,545436	66,593	-0,086581	22,410000	55,125000
2,624034	46,924062	66,744	-0,087258	22,410000	55,135000
2,622508	45,444032	66,894	-0,087877	22,410000	55,135000
2,621070	43,632252	67,045	-0,088634	22,410000	55,135000
2,619554	42,540044	67,195	-0,089091	22,410000	55,135000
2,618056	41,076368	67,346	-0,089703	22,410000	55,135000
2,616536	39,326499	67,498	-0,090434	22,410000	55,135000
2,615060	38,132663	67,649	-0,090933	22,410000	55,135000
2,613588	36,359431	67,800	-0,091674	22,410000	55,135000
2,612068	35,021914	67,950	-0,092233	22,410000	55,135000
2,610604	33,589778	68,104	-0,092832	22,410000	55,135000
2,609062	32,323518	68,255	-0,093361	22,410000	55,135000
2,607565	31,121505	68,405	-0,093864	22,410000	55,135000
2,606176	29,159035	68,557	-0,094684	22,410000	55,135000
2,604593	27,481590	68,708	-0,095385	22,400000	55,120000
2,603031	26,262055	68,860	-0,095895	22,400000	55,120000
2,601526	24,783194	69,010	-0,096513	22,400000	55,120000
2,600040	23,912932	69,161	-0,096877	22,400000	55,120000
2,598531	22,099983	69,313	-0,097635	22,400000	55,120000
2,597046	20,874608	69,463	-0,098147	22,400000	55,120000
2,595575	19,164455	69,615	-0,098862	22,400000	55,120000
2,594027	17,969451	69,765	-0,099361	22,400000	55,120000
2,592522	16,916959	69,916	-0,099801	22,400000	55,120000
2,591029	15,429921	70,068	-0,100423	22,400000	55,120000
2,589565	13,847096	70,218	-0,101084	22,400000	55,120000
2,588061	12,018961	70,368	-0,101849	22,400000	55,120000
2,586568	10,745692	70,518	-0,102381	22,400000	55,120000
2,585075	9,178052	70,668	-0,103036	22,400000	55,120000
2,583481	7,928146	70,819	-0,103559	22,400000	55,120000
2,582024	6,100011	70,970	-0,104323	22,400000	55,120000
2,580565	5,254280	71,120	-0,104676	22,400000	55,120000
2,579005	3,734534	71,270	-0,105312	22,400000	55,120000
2,577523	2,342115	71,421	-0,105894	22,400000	55,120000
2,576095	0,759289	71,572	-0,106555	22,400000	55,120000
2,574562	-0,387821	71,722	-0,107035	22,400000	55,120000
2,573062	-2,382999	71,873	-0,107869	22,400000	55,120000
2,571551	-3,299987	72,025	-0,108252	22,400000	55,120000
2,570064	-5,254280	72,175	-0,109069	22,400000	55,120000
2,568596	-6,046277	72,325	-0,109400	22,400000	55,120000
2,567070	-7,826518	72,481	-0,110144	22,400000	55,120000
2,565553	-9,432706	72,633	-0,110815	22,400000	55,120000
2,564069	-10,524914	72,785	-0,111272	22,400000	55,120000
2,562610	-12,471030	72,935	-0,112085	22,400000	55,120000
2,561058	-14,005962	73,086	-0,112727	22,400000	55,120000
2,559549	-14,393784	73,237	-0,112889	22,400000	55,120000
2,558059	-16,554837	73,388	-0,113792	22,400000	55,120000
2,556617	-17,464816	73,538	-0,114173	22,400000	55,120000
2,555055	-19,561622	73,689	-0,115049	22,400000	55,120000
2,553526	-20,067425	73,841	-0,115261	22,400000	55,120000
2,552031	-22,117505	73,993	-0,116118	22,400000	55,120000
2,550568	-23,415305	74,146	-0,116660	22,400000	55,120000
2,549051	-24,910521	74,297	-0,117285	22,400000	55,120000
2,547529	-26,382373	74,453	-0,117900	22,400000	55,120000
2,546050	-27,774793	74,604	-0,118482	22,400000	55,120000
2,544544	-29,080770	74,756	-0,119028	22,400000	55,120000
2,543076	-30,473189	74,906	-0,119610	22,400000	55,120000
2,541558	-31,976581	75,061	-0,120239	22,400000	55,120000
2,539988	-33,614309	75,213	-0,120923	22,400000	55,120000
2,538578	-34,366589	75,365	-0,121238	22,400000	55,120000
2,537075	-36,383962	75,515	-0,122081	22,400000	55,120000
2,535533	-37,800912	75,666	-0,122673	22,400000	55,120000
2,534034	-39,176977	75,816	-0,123249	22,400000	55,120000
2,532536	-39,968974	75,967	-0,123580	22,400000	55,120000
2,531025	-42,034240	76,121	-0,124443	22,400000	55,120000
2,529592	-43,015475	76,271	-0,124853	22,400000	55,120000
2,528075	-44,344815	76,421	-0,125409	22,400000	55,120000
2,526508	-46,267569	76,572	-0,126212	22,400000	55,120000
2,525020	-47,082928	76,722	-0,126553	22,400000	55,130000
2,523568	-48,918072	76,872	-0,127320	22,400000	55,130000
2,522085	-50,121253	77,023	-0,127823	22,400000	55,130000
2,520593	-51,917847	77,174	-0,128574	22,400000	55,130000
2,519095	-53,041595	77,324	-0,129044	22,400000	55,130000
2,517558	-54,671146	77,475	-0,129725	22,400000	55,130000
2,516059	-55,849796	77,625	-0,130218	22,400000	55,130000
2,514597	-57,448976	77,777	-0,130886	22,400000	55,130000
2,513079	-58,556370	77,929	-0,131349	22,400000	55,130000
2,511555	-60,305071	78,080	-0,132080	22,400000	55,130000
2,509996	-61,697490	78,230	-0,132662	22,400000	55,130000
2,508528	-63,154157	78,380	-0,133271	22,400000	55,130000
2,507097	-65,037193	78,547	-0,134058	22,400000	55,130000
2,505544	-65,938995	78,700	-0,134435	22,400000	55,105000
2,504070	-67,838386	78,851	-0,135229	22,400000	55,105000
2,502568	-68,804435	79,003	-0,135633	22,400000	55,105000
2,501047	-70,314836	79,154	-0,136264	22,400000	55,105000
2,499526	-71,438584	79,304	-0,136734	22,400000	55,105000
2,498087	-72,926791	79,455	-0,137356	22,400000	55,105000
2,496567	-74,967526	79,606	-0,138209	22,400000	55,105000
2,495038	-75,885681	79,758	-0,138593	22,400000	55,105000
2,493542	-77,238384	79,908	-0,139158	22,400000	55,105000
2,492054	-79,027970	80,060	-0,139906	22,400000	55,105000
2,490589	-80,554725	80,211	-0,140544	22,400000	55,105000
2,489100	-81,544137	80,362	-0,140958	22,400000	55,105000
2,487569	-83,213405	80,515	-0,141656	22,400000	55,105000
2,486042	-85,017008	80,665	-0,142410	22,400000	55,105000
2,484546	-85,706209	80,816	-0,142698	22,410000	55,125000
2,483085	-87,786661	80,966	-0,143567	22,410000	55,125000
2,481579	-88,436145	81,117	-0,143839	22,410000	55,125000
2,480081	-90,208209	81,269	-0,144580	22,410000	55,125000
2,478597	-91,482646	81,421	-0,145112	22,410000	55,125000
2,477044	-92,684659	81,572	-0,145615	22,410000	55,125000
2,475551	-94,323555	81,725	-0,146300	22,410000	55,125000
2,474045	-95,596825	81,877	-0,146832	22,410000	55,125000
2,472540	-97,377065	82,029	-0,147576	22,410000	55,125000
2,471028	-98,976245	82,181	-0,148245	22,410000	55,125000
2,469574	-99,823144	82,333	-0,148599	22,410000	55,125000
2,468082	-101,729544	82,486	-0,149396	22,410000	55,125000
2,466599	-102,631345	82,636	-0,149772	22,410000	55,125000
2,465031	-104,451303	82,788	-0,150533	22,400000	55,105000
2,463578	-105,733917	82,938	-0,151069	22,400000	55,105000
2,462071	-107,355291	83,089	-0,151747	22,400000	55,105000
2,460549	-108,455676	83,240	-0,152207	22,400000	55,105000
2,459046	-109,713760	83,393	-0,152733	22,400000	55,105000
2,457545	-111,273223	83,544	-0,153385	22,400000	55,105000
2,456045	-113,030101	83,707	-0,154119	22,400000	55,105000
2,454553	-113,852469	83,858	-0,154463	22,400000	55,105000
2,453044	-115,561453	84,008	-0,155177	22,400000	55,105000
2,451562	-117,334685	84,158	-0,155918	22,400000	55,105000
2,450082	-118,702574	84,308	-0,156490	22,400000	55,105000
2,448565	-120,071630	84,459	-0,157062	22,400000	55,105000
2,447044	-121,796968	84,610	-0,157784	22,400000	55,105000
2,445584	-122,849460	84,760	-0,158224	22,400000	55,105000
2,444039	-124,155437	84,910	-0,158770	22,400000	55,105000
2,442578	-125,642475	85,061	-0,159391	22,400000	55,105000
2,441059	-127,099142	85,212	-0,160000	22,400000	55,105000
2,439574	-128,586180	85,363	-0,160622	22,400000	55,105000
2,438070	-129,069789	85,514	-0,160824	22,400000	55,105000
2,436547	-131,403727	85,667	-0,161799	22,400000	55,105000
2,435061	-132,313706	85,817	-0,162180	22,400000	55,105000
2,433597	-133,848637	85,968	-0,162821	22,400000	55,105000
2,432026	-135,090367	86,118	-0,163340	22,400000	55,105000
2,430561	-136,523671	86,268	-0,163939	22,400000	55,105000
2,429030	-138,264195	86,418	-0,164667	22,400000	55,105000
2,427548	-139,616898	86,569	-0,165232	22,400000	55,105000
2,426063	-141,207900	86,720	-0,165897	22,400000	55,120000
2,424549	-142,837451	86,870	-0,166579	22,400000	55,120000
2,423073	-143,565201	87,021	-0,166883	22,400000	55,120000
2,421567	-145,156203	87,171	-0,167548	22,400000	55,120000
2,420088	-146,185332	87,323	-0,167978	22,400000	55,120000
2,418568	-148,558986	87,476	-0,168970	22,400000	55,120000
2,417059	-149,722451	87,626	-0,169457	22,400000	55,120000
2,415574	-151,257383	87,793	-0,170098	22,400000	55,120000
2,414025	-152,657979	87,944	-0,170684	22,400000	55,120000
2,412571	-153,947602	88,097	-0,171223	22,400000	55,120000
2,411033	-155,616870	88,247	-0,171920	22,400000	55,120000
2,409535	-156,582919	88,397	-0,172324	22,400000	55,120000
2,408043	-157,848011	88,550	-0,172853	22,400000	55,120000
2,406585	-159,707685	88,702	-0,173630	22,400000	55,120000
2,405069	-161,235609	88,856	-0,174269	22,400000	55,120000
2,403545	-162,644382	89,007	-0,174858	22,400000	55,120000
2,402063	-163,766961	89,158	-0,175327	22,400000	55,120000
2,400571	-165,175735	89,314	-0,175916	22,400000	55,120000
2,399051	-166,672118	89,468	-0,176542	22,400000	55,120000
2,397579	-168,459368	89,619	-0,177289	22,400000	55,120000
2,396111	-169,622832	89,769	-0,177775	22,400000	55,120000
2,394513	-171,111038	89,919	-0,178397	22,400000	55,120000
2,393084	-172,021017	90,070	-0,178777	22,400000	55,120000
2,391600	-173,357366	90,221	-0,179336	22,400000	55,120000
2,390047	-174,979908	90,371	-0,180014	22,400000	55,120000
2,388558	-176,040576	90,523	-0,180458	22,400000	55,120000
2,387020	-177,489066	90,673	-0,181063	22,400000	55,120000
2,385570	-178,682902	90,823	-0,181562	22,400000	55,130000
2,384070	-180,669903	90,974	-0,182393	22,400000	55,130000
2,382539	-181,919810	91,124	-0,182915	22,400000	55,130000
2,381096	-182,995664	91,274	-0,183365	22,400000	55,130000
2,379522	-185,006028	91,427	-0,184205	22,400000	55,130000
2,378039	-186,018802	91,577	-0,184628	22,400000	55,130000
2,376495	-187,498832	91,728	-0,185247	22,400000	55,130000
2,374999	-189,390046	91,879	-0,186038	22,400000	55,130000
2,373542	-190,838535	92,030	-0,186643	22,400000	55,130000
2,372086	-192,198247	92,182	-0,187211	22,400000	55,130000
2,370507	-193,235552	92,333	-0,187645	22,400000	55,130000
2,369057	-194,351123	92,504	-0,188111	22,400000	55,130000
2,367541	-195,957312	92,654	-0,188783	22,400000	55,130000
2,366069	-197,318191	92,804	-0,189352	22,400000	55,105000
2,364548	-199,043529	92,963	-0,190073	22,400000	55,105000
2,363090	-200,119384	93,113	-0,190522	22,400000	55,105000
2,361539	-201,393821	93,264	-0,191055	22,400000	55,105000
2,360013	-203,316574	93,414	-0,191859	22,400000	55,105000
2,358586	-204,218376	93,565	-0,192236	22,400000	55,105000
2,357015	-205,801202	93,721	-0,192897	22,400000	55,105000
2,355552	-207,249692	93,872	-0,193503	22,400000	55,105000
2,354054	-209,124551	94,023	-0,194287	22,400000	55,105000
2,352578	-210,438706	94,175	-0,194836	22,400000	55,105000
2,351129	-211,340507	94,327	-0,195213	22,400000	55,105000
2,349571	-213,026129	94,478	-0,195917	22,400000	55,105000
2,348101	-214,315752	94,628	-0,196457	22,400000	55,105000
2,346582	-215,439500	94,778	-0,196926	22,400000	55,105000
2,345056	-217,077228	94,929	-0,197611	22,400000	55,105000
2,343575	-218,366851	95,080	-0,198150	22,400000	55,105000
2,342043	-220,163446	95,230	-0,198901	22,400000	55,105000
2,340533	-221,398166	95,380	-0,199417	22,400000	55,105000
2,339065	-222,916745	95,531	-0,200052	22,400000	55,105000
2,337544	-224,096563	95,681	-0,200545	22,400000	55,105000
2,336088	-225,172417	95,833	-0,200995	22,400000	55,105000
2,334497	-226,738889	95,983	-0,201649	22,400000	55,105000
2,333084	-227,988795	96,152	-0,202172	22,400000	55,105000
2,331571	-229,477002	96,303	-0,202794	22,400000	55,105000
2,330065	-231,257242	96,454	-0,203538	22,400000	55,105000
2,328504	-232,095965	96,609	-0,203889	22,400000	55,105000
2,327031	-233,924099	96,759	-0,204653	22,400000	55,120000
2,325623	-235,371421	96,909	-0,205258	22,400000	55,120000
2,324057	-236,939061	97,060	-0,205913	22,400000	55,120000
2,322575	-237,856048	97,227	-0,206296	22,400000	55,120000
2,321075	-239,660820	97,377	-0,207051	22,400000	55,120000
2,319509	-240,610515	97,528	-0,207448	22,400000	55,120000
2,318074	-241,987749	97,683	-0,208023	22,400000	55,120000
2,316559	-243,609123	97,833	-0,208701	22,400000	55,120000
2,315097	-245,144055	97,984	-0,209343	22,400000	55,120000
2,313589	-246,378775	98,135	-0,209859	22,400000	55,120000
2,312053	-248,041034	98,285	-0,210554	22,400000	55,120000
2,310612	-249,622692	98,435	-0,211215	22,400000	55,120000
2,309097	-250,786156	98,586	-0,211701	22,400000	55,120000
2,307548	-252,052417	98,738	-0,212230	22,400000	55,120000
2,306050	-253,041829	98,893	-0,212644	22,400000	55,120000
2,304591	-255,083732	99,046	-0,213498	22,400000	55,120000
2,303076	-256,048613	99,197	-0,213901	22,400000	55,120000
2,301579	-257,528643	99,348	-0,214520	22,400000	55,120000
2,300104	-258,730656	99,499	-0,215022	22,400000	55,120000
2,298553	-260,455994	99,650	-0,215743	22,400000	55,120000
2,297068	-261,311070	99,810	-0,216101	22,400000	55,120000
2,295580	-262,917259	99,960	-0,216772	22,400000	55,120000
2,294083	-264,175342	100,110	-0,217298	22,400000	55,120000
2,292533	-265,924043	100,261	-0,218029	22,400000	55,120000
2,291080	-267,293100	100,413	-0,218601	22,400000	55,120000
2,289567	-268,234618	100,563	-0,218995	22,400000	55,120000
2,288092	-269,857160	100,714	-0,219673	22,410000	55,135000
2,286614	-270,593086	100,865	-0,219980	22,410000	55,135000
2,285074	-272,587096	101,015	-0,220814	22,410000	55,135000
2,283549	-273,583517	101,167	-0,221230	22,410000	55,135000
2,282031	-274,897671	101,320	-0,221780	22,410000	55,135000
2,280600	-275,776110	101,471	-0,222147	22,410000	55,135000
2,279044	-277,263149	101,621	-0,222769	22,410000	55,135000
2,277570	-277,856562	101,783	-0,223017	22,410000	55,135000
2,276045	-279,233796	101,935	-0,223592	22,410000	55,135000
2,274591	-279,368131	102,086	-0,223648	22,410000	55,135000
2,273037	-279,170716	102,237	-0,223566	22,410000	55,135000
2,271557	-0,276848	102,387	-0,106988	22,410000	55,135000
2,270071	-0,490618	102,538	-0,107078	22,410000	55,135000
2,268581	-0,285025	102,690	-0,106992	22,410000	55,110000
2,267083	-0,293202	102,840	-0,106995	22,410000	55,110000
2,265539	-0,269840	102,992	-0,106985	22,410000	55,110000
2,264062	-0,238300	103,143	-0,106972	22,410000	55,110000
2,262548	-0,341096	103,294	-0,107015	22,410000	55,110000
2,261058	-0,641307	103,445	-0,107141	22,410000	55,110000
2,259594	-0,095787	103,595	-0,106913	22,410000	55,110000
2,258055	-0,198583	103,753	-0,106956	22,410000	55,110000
2,256522	-0,032708	103,904	-0,106886	22,410000	55,110000
2,255033	-0,452069	104,055	-0,107062	22,410000	55,110000
2,253571	-0,024531	104,213	-0,106883	22,410000	55,110000
2,252072	-0,316565	104,363	-0,107005	22,410000	55,110000
2,250559	-0,546688	104,513	-0,107101	22,410000	55,110000
2,249031	-0,135504	104,664	-0,106929	22,410000	55,110000
2,247576	-0,419361	104,815	-0,107048	22,410000	55,110000
2,246065	-0,276848	104,970	-0,106988	22,410000	55,110000
2,244551	-0,348105	105,120	-0,107018	22,410000	55,110000
2,243074	-0,119150	105,280	-0,106922	22,410000	55,110000
2,241652	-0,087610	105,430	-0,106909	22,410000	55,110000
2,240087	-0,174052	105,580	-0,106945	22,410000	55,110000
2,238556	-0,538511	105,735	-0,107098	22,410000	55,110000
2,237090	-0,135504	105,887	-0,106929	22,410000	55,110000
2,235550	-0,261663	106,037	-0,106982	22,410000	55,110000
2,234087	-0,427538	106,188	-0,107051	22,410000	55,110000
2,232621	-0,395998	106,338	-0,107038	22,410000	55,110000
2,231022	-0,483609	106,490	-0,107075	22,410000	55,110000
2,229571	0,007009	106,640	-0,106870	22,410000	55,110000
2,228043	-0,301379	106,790	-0,106999	22,410000	55,125000
2,226575	-0,190406	106,940	-0,106952	22,410000	55,125000
2,225053	-0,490618	107,090	-0,107078	22,410000	55,125000
2,223566	-0,316565	107,242	-0,107005	22,410000	55,125000
2,222091	-0,601591	107,393	-0,107124	22,410000	55,125000
2,220521	-0,071256	107,544	-0,106902	22,410000	55,125000
2,219106	-0,364459	107,694	-0,107025	22,410000	55,125000
2,217558	-0,150690	107,844	-0,106936	22,410000	55,125000
2,216065	-0,261663	107,995	-0,106982	22,410000	55,125000
2,214561	-0,158867	108,145	-0,106939	22,410000	55,125000
2,213089	-0,150690	108,295	-0,106936	22,410000	55,125000
2,211531	-0,554865	108,447	-0,107104	22,410000	55,125000
2,210043	-0,230123	108,613	-0,106969	22,410000	55,125000
2,208601	-0,293202	108,763	-0,106995	22,410000	55,135000
2,207065	-0,308388	108,916	-0,107001	22,410000	55,135000
2,205573	-0,127327	109,068	-0,106926	22,410000	55,135000
2,204057	-0,269840	109,219	-0,106985	22,410000	55,135000
2,202559	-0,230123	109,380	-0,106969	22,410000	55,135000
2,201065	-0,324742	109,530	-0,107008	22,410000	55,135000
2,199598	-0,372636	109,681	-0,107028	22,410000	55,135000
2,198045	-0,293202	109,832	-0,106995	22,410000	55,135000
2,196574	-0,174052	109,984	-0,106945	22,410000	55,135000
2,195070	-0,174052	110,137	-0,106945	22,410000	55,135000
2,193576	-0,238300	110,287	-0,106972	22,410000	55,135000
2,192049	-0,372636	110,437	-0,107028	22,410000	55,135000
2,190529	-0,412352	110,590	-0,107045	22,410000	55,135000
2,189120	-0,285025	110,741	-0,106992	22,410000	55,135000
2,187598	-0,348105	110,891	-0,107018	22,410000	55,135000
2,186089	-0,412352	111,041	-0,107045	22,410000	55,135000
2,184599	-0,356282	111,191	-0,107021	22,410000	55,135000
2,184076	-0,308388	111,241	-0,107001	22,410000	55,135000