File: Nanoindentation Datenauswertung/data/partial unload on sapphire
Quasi static measurement routine
Tip parameters (shape,radius, material...)
27.06.2022

Piezo position[nm]	MEMS displ.[nm]	Time[ms]	Cap [pf]
eoh
4,101637	0,000000	0,00	-0,092852
4,104483	0,060754	0,22	-0,092825
4,107498	0,121508	0,41	-0,092799
4,110504	-0,060754	0,58	-0,092878
4,113508	0,121508	0,74	-0,092799
4,116519	0,000000	0,89	-0,092852
4,119529	-0,060754	1,05	-0,092878
4,122508	0,243016	1,21	-0,092746
4,125528	0,182262	1,36	-0,092772
4,128555	0,426402	1,53	-0,092667
4,131512	0,487156	1,73	-0,092640
4,134547	0,243016	1,92	-0,092746
4,137504	-0,427527	2,09	-0,093037
4,140448	0,000000	2,25	-0,092852
4,143485	0,121508	2,40	-0,092799
4,146484	0,121508	2,55	-0,092799
4,149480	-0,122633	2,71	-0,092905
4,152525	-0,122633	2,86	-0,092905
4,155567	0,000000	3,02	-0,092852
4,158464	-0,122633	3,17	-0,092905
4,161504	0,000000	3,33	-0,092852
4,164461	-0,060754	3,49	-0,092878
4,167492	-1,098070	3,64	-0,093328
4,170493	-0,793176	3,81	-0,093196
4,173485	-0,914684	3,96	-0,093249
4,176552	-0,975437	4,12	-0,093275
4,179493	-0,671668	4,29	-0,093143
4,182530	-0,853930	4,45	-0,093222
4,185493	-1,037316	4,62	-0,093302
4,188475	-1,341086	4,77	-0,093434
4,191465	-1,341086	4,94	-0,093434
4,194489	-0,427527	5,09	-0,093037
4,197493	0,060754	5,25	-0,092825
4,200470	2,072383	5,44	-0,091952
4,203437	5,670363	5,61	-0,090391
4,206435	8,535921	5,81	-0,089147
4,209438	11,462234	6,00	-0,087877
4,212498	14,693440	6,17	-0,086475
4,215481	16,949210	6,35	-0,085496
4,218487	20,424557	6,52	-0,083987
4,221491	22,314678	6,70	-0,083167
4,224492	26,155674	6,87	-0,081500
4,227506	29,691775	7,04	-0,079965
4,230453	31,521142	7,20	-0,079171
4,233474	34,874982	7,37	-0,077716
4,236444	37,130751	7,53	-0,076737
4,239476	40,057064	7,70	-0,075467
4,242471	44,447095	7,88	-0,073562
4,245456	46,824372	8,03	-0,072530
4,248486	50,360473	8,20	-0,070995
4,251505	52,373227	8,37	-0,070122
4,254492	55,786695	8,52	-0,068640
4,257462	58,714133	8,69	-0,067370
4,260482	61,214043	8,85	-0,066285
4,263524	65,542195	9,03	-0,064406
4,266428	68,225491	9,18	-0,063242
4,268511	71,761593	9,34	-0,061707
4,268463	71,517452	9,52	-0,061813
4,268476	71,273311	9,69	-0,061919
4,268506	71,578206	9,87	-0,061787
4,268536	71,761593	10,02	-0,061707
4,268467	71,578206	10,17	-0,061787
4,268482	71,456698	10,34	-0,061839
4,268486	71,335190	10,50	-0,061892
4,268505	71,517452	10,67	-0,061813
4,268530	71,335190	10,84	-0,061892
4,268448	71,395944	11,00	-0,061866
4,268487	71,091050	11,17	-0,061998
4,268464	71,638960	11,33	-0,061760
4,268441	71,029171	11,49	-0,062025
4,268454	70,481261	11,64	-0,062263
4,268429	71,273311	11,81	-0,061919
4,268455	70,237120	11,98	-0,062369
4,268467	71,335190	12,15	-0,061892
4,268457	71,212558	12,33	-0,061945
4,268508	71,091050	12,49	-0,061998
4,268437	71,273311	12,68	-0,061919
4,268427	71,761593	12,87	-0,061707
4,268499	71,395944	13,08	-0,061866
4,268434	70,968417	13,25	-0,062051
4,268458	70,907663	13,44	-0,062078
4,268475	71,395944	13,61	-0,061866
4,268454	71,212558	13,77	-0,061945
4,268475	71,273311	13,93	-0,061919
4,268414	71,273311	14,08	-0,061919
4,268429	71,335190	14,24	-0,061892
4,268494	71,029171	14,39	-0,062025
4,268478	71,456698	14,54	-0,061839
4,268466	71,395944	14,71	-0,061866
4,268447	71,335190	14,86	-0,061892
4,265454	69,505823	15,03	-0,062686
4,262534	65,969722	15,23	-0,064221
4,259514	63,104164	15,40	-0,065464
4,256479	60,909148	15,59	-0,066417
4,253504	57,799449	15,78	-0,067767
4,250428	53,775067	15,97	-0,069513
4,247450	51,337036	16,15	-0,070571
4,244434	48,714493	16,31	-0,071709
4,241471	44,629356	16,48	-0,073482
4,238476	42,068692	16,65	-0,074594
4,235423	39,691415	16,81	-0,075625
4,232463	36,398329	16,98	-0,077055
4,229487	32,740720	17,16	-0,078642
4,226432	30,850599	17,32	-0,079462
4,228450	28,411443	17,49	-0,080521
4,231455	33,045615	17,64	-0,078510
4,234444	36,155314	17,80	-0,077160
4,237427	38,958993	17,95	-0,075943
4,240504	41,154009	18,11	-0,074991
4,243470	43,837306	18,27	-0,073826
4,246464	48,104704	18,42	-0,071974
4,249458	49,873317	18,57	-0,071207
4,252461	53,958453	18,74	-0,069434
4,255482	56,274977	18,89	-0,068428
4,258467	59,506183	19,05	-0,067026
4,261521	63,164918	19,20	-0,065438
4,264480	65,115792	19,37	-0,064591
4,267472	67,737210	19,53	-0,063454
4,270470	71,883101	19,69	-0,061654
4,273479	74,504518	19,85	-0,060517
4,276424	77,066307	20,01	-0,059405
4,279514	79,625846	20,16	-0,058294
4,282478	82,979686	20,33	-0,056838
4,285506	86,150139	20,50	-0,055462
4,288482	90,356783	20,68	-0,053637
4,291450	92,551798	20,83	-0,052684
4,294499	96,392794	21,01	-0,051017
4,297513	98,953458	21,16	-0,049906
4,300419	101,880895	21,32	-0,048635
4,303463	105,538504	21,52	-0,047048
4,306463	108,587450	21,69	-0,045725
4,309423	110,843219	21,85	-0,044746
4,312478	113,220496	22,01	-0,043714
4,315477	116,879230	22,17	-0,042126
4,318473	119,195754	22,35	-0,041121
4,321493	123,341644	22,51	-0,039321
4,324440	125,415152	22,70	-0,038421
4,327438	128,767866	22,86	-0,036966
4,330481	131,756057	23,05	-0,035669
4,333464	133,890319	23,20	-0,034743
4,336479	138,096963	23,36	-0,032917
4,339506	139,865576	23,53	-0,032150
4,342518	144,193728	23,69	-0,030271
4,345428	147,303427	23,89	-0,028922
4,348472	150,168986	24,04	-0,027678
4,351490	153,217931	24,22	-0,026355
4,354491	156,083489	24,37	-0,025111
4,357462	159,375450	24,55	-0,023683
4,360456	162,667411	24,71	-0,022254
4,363494	165,228075	24,88	-0,021143
4,366371	168,521160	25,05	-0,019713
4,369472	170,593543	25,22	-0,018814
4,372389	174,922820	25,38	-0,016935
4,375483	176,812941	25,54	-0,016115
4,378464	181,202972	25,71	-0,014209
4,381449	182,788198	25,89	-0,013521
4,384420	186,872210	26,06	-0,011749
4,387476	190,591698	26,23	-0,010135
4,390447	192,847467	26,39	-0,009156
4,393448	195,470010	26,56	-0,008018
4,396430	198,274815	26,72	-0,006800
4,399463	201,201127	26,88	-0,005530
4,402449	203,761791	27,07	-0,004419
4,405435	207,907681	27,22	-0,002620
4,408447	211,870185	27,41	-0,000900
4,411429	213,943692	27,57	0,000000
4,414489	215,650427	27,73	0,000741
4,417450	219,309161	27,89	0,002329
4,420448	221,930579	28,06	0,003466
4,423420	225,771574	28,24	0,005133
4,426466	228,881273	28,41	0,006483
4,429451	230,588008	28,57	0,007224
4,432428	234,794652	28,74	0,009049
4,435449	236,928913	28,90	0,009976
4,435452	239,246562	29,06	0,010981
4,435421	238,941667	29,21	0,010849
4,435495	238,636773	29,39	0,010717
4,435439	239,063175	29,55	0,010902
4,435446	238,758281	29,70	0,010770
4,435431	238,819034	29,87	0,010796
4,435448	238,819034	30,02	0,010796
4,435421	238,636773	30,18	0,010717
4,435469	238,514140	30,36	0,010664
4,435451	238,392632	30,53	0,010611
4,435474	238,758281	30,69	0,010770
4,435375	238,697527	30,85	0,010743
4,435445	239,489577	31,02	0,011087
4,435417	238,941667	31,17	0,010849
4,435444	238,514140	31,32	0,010664
4,435441	238,697527	31,51	0,010743
4,435464	238,576019	31,67	0,010690
4,435423	238,453386	31,89	0,010637
4,435447	238,331878	32,05	0,010584
4,435493	238,819034	32,22	0,010796
4,435473	238,697527	32,39	0,010743
4,435414	238,636773	32,61	0,010717
4,435454	237,538702	32,80	0,010240
4,435455	238,392632	33,04	0,010611
4,435469	238,453386	33,24	0,010637
4,435429	238,576019	33,42	0,010690
4,435486	238,697527	33,57	0,010743
4,435448	238,819034	33,72	0,010796
4,435382	238,453386	33,88	0,010637
4,435464	238,819034	34,03	0,010796
4,435453	238,453386	34,18	0,010637
4,435441	238,941667	34,34	0,010849
4,435427	238,636773	34,49	0,010717
4,433432	238,576019	34,65	0,010690
4,430387	235,953476	34,85	0,009552
4,427441	231,441937	35,08	0,007594
4,424436	229,369555	35,27	0,006695
4,421467	225,650067	35,46	0,005081
4,418466	222,174719	35,66	0,003572
4,415416	219,917825	35,84	0,002593
4,412442	215,773059	36,01	0,000794
4,409419	213,821060	36,19	-0,000053
4,406457	211,383029	36,38	-0,001111
4,403398	208,455591	36,54	-0,002382
4,400483	204,919490	36,73	-0,003917
4,397458	201,627529	36,90	-0,005345
4,394400	198,274815	37,06	-0,006800
4,391475	196,688463	37,21	-0,007489
4,388486	192,481819	37,37	-0,009314
4,385445	188,763456	37,54	-0,010928
4,382486	186,629194	37,70	-0,011854
4,379472	182,788198	37,86	-0,013521
4,376430	179,860761	38,05	-0,014792
4,373422	177,544238	38,20	-0,015797
4,370451	173,947383	38,37	-0,017358
4,367485	170,959191	38,53	-0,018655
4,364425	167,423090	38,71	-0,020190
4,361418	164,314516	38,86	-0,021539
4,358474	160,960676	39,03	-0,022995
4,355488	158,583399	39,19	-0,024026
4,352429	156,021610	39,35	-0,025138
4,352457	152,546263	39,52	-0,026646
4,355467	155,777470	39,67	-0,025244
4,358466	158,643028	39,82	-0,024000
4,361422	162,667411	39,97	-0,022254
4,364478	164,740918	40,16	-0,021354
4,367500	168,337774	40,31	-0,019793
4,370473	171,021070	40,47	-0,018628
4,373485	174,739433	40,62	-0,017015
4,376424	176,568800	40,78	-0,016221
4,379455	180,836199	40,95	-0,014369
4,382510	183,397987	41,09	-0,013257
4,385464	186,568440	41,26	-0,011881
4,388464	190,226049	41,43	-0,010293
4,391477	193,152362	41,58	-0,009023
4,394440	195,530764	41,73	-0,007991
4,397495	198,640463	41,90	-0,006642
4,400426	201,444142	42,06	-0,005425
4,403413	204,309701	42,21	-0,004181
4,406457	208,212576	42,38	-0,002487
4,409469	211,687923	42,55	-0,000979
4,412410	211,992818	42,70	-0,000847
4,415426	215,650427	42,87	0,000741
4,418507	220,161965	43,05	0,002699
4,421424	223,210910	43,21	0,004022
4,424483	226,502871	43,39	0,005451
4,427525	229,063535	43,57	0,006562
4,430448	231,990972	43,73	0,007833
4,433425	234,612390	43,89	0,008970
4,436504	237,904351	44,07	0,010399
4,439466	241,502331	44,24	0,011960
4,442455	244,855046	44,41	0,013416
4,445424	246,928553	44,57	0,014315
4,448466	250,343147	44,73	0,015797
4,451471	253,330213	44,90	0,017094
4,454478	256,866314	45,10	0,018628
4,457457	258,512295	45,25	0,019343
4,460423	262,171029	45,41	0,020931
4,463457	265,218849	45,58	0,022253
4,466462	269,243232	45,75	0,024000
4,469413	271,011845	45,91	0,024768
4,472428	274,608700	46,08	0,026329
4,475457	277,413504	46,24	0,027546
4,478454	280,644711	46,40	0,028948
4,481492	284,120059	46,56	0,030457
4,484424	285,826793	46,73	0,031197
4,487433	290,400211	46,88	0,033182
4,490384	292,472593	47,05	0,034082
4,493403	295,703800	47,20	0,035484
4,496468	298,935007	47,37	0,036886
4,499480	300,521358	47,54	0,037575
4,502404	304,849510	47,70	0,039453
4,505417	307,166034	47,88	0,040458
4,508437	311,008155	48,05	0,042126
4,511456	313,203170	48,22	0,043079
4,514449	316,007975	48,38	0,044296
4,517439	318,690146	48,54	0,045460
4,520442	322,165494	48,70	0,046968
4,523413	326,127997	48,86	0,048688
4,526410	328,323013	49,02	0,049641
4,529424	331,798360	49,19	0,051149
4,532395	334,847305	49,34	0,052472
4,535427	337,957004	49,52	0,053822
4,538464	340,029387	49,68	0,054721
4,541360	344,236031	49,86	0,056547
4,544420	347,224222	50,01	0,057844
4,547456	350,272042	50,20	0,059167
4,550382	353,381741	50,36	0,060516
4,553408	355,760144	50,52	0,061548
4,556418	359,174737	50,70	0,063030
4,559394	360,820718	50,86	0,063745
4,562383	365,027362	51,03	0,065570
4,565388	366,673342	51,18	0,066285
4,568408	371,002619	51,35	0,068164
4,571419	373,745545	51,52	0,069354
4,574386	377,525787	51,69	0,070995
4,577421	380,391345	51,85	0,072238
4,580420	382,404099	52,01	0,073112
4,583424	385,756813	52,16	0,074567
4,586401	389,232161	52,34	0,076075
4,589426	391,548684	52,49	0,077081
4,592393	395,207418	52,67	0,078668
4,595412	397,951469	52,82	0,079859
4,598432	400,023852	53,00	0,080759
4,601432	404,597269	53,15	0,082744
4,602387	406,487390	53,32	0,083564
4,602370	406,243250	53,47	0,083458
4,602404	406,548144	53,64	0,083590
4,602369	406,364757	53,81	0,083511
4,602391	406,730406	53,97	0,083669
4,602346	406,487390	54,13	0,083564
4,602323	406,548144	54,29	0,083590
4,602347	406,730406	54,45	0,083669
4,602334	406,548144	54,61	0,083590
4,602430	406,425511	54,76	0,083537
4,602390	406,243250	54,93	0,083458
4,602357	406,425511	55,09	0,083537
4,602367	406,487390	55,24	0,083564
4,602419	406,487390	55,41	0,083564
4,602415	406,243250	55,58	0,083458
4,602398	405,999109	55,73	0,083352
4,602350	406,243250	55,88	0,083458
4,602405	406,182496	56,06	0,083432
4,602371	406,669652	56,23	0,083643
4,602395	406,548144	56,40	0,083590
4,602370	406,548144	56,55	0,083590
4,602387	406,121742	56,73	0,083405
4,602361	406,182496	56,90	0,083432
4,602335	406,182496	57,09	0,083432
4,602392	405,694214	57,29	0,083220
4,602351	406,487390	57,48	0,083564
4,602368	405,815722	57,64	0,083272
4,602410	405,999109	57,80	0,083352
4,602395	406,608898	57,98	0,083617
4,602407	406,487390	58,14	0,083564
4,602369	406,364757	58,31	0,083511
4,602390	406,425511	58,47	0,083537
4,602382	405,328566	58,62	0,083061
4,601376	406,182496	58,79	0,083432
4,598323	404,048234	58,97	0,082505
4,595354	399,718957	59,16	0,080626
4,592363	396,976031	59,36	0,079436
4,589414	393,987840	59,54	0,078139
4,586345	391,244915	59,71	0,076949
4,583371	387,342040	59,89	0,075255
4,580354	384,415728	60,06	0,073985
4,577368	382,159958	60,22	0,073006
4,574409	378,379716	60,40	0,071365
4,571394	376,063193	60,56	0,070360
4,568397	373,136881	60,73	0,069090
4,565431	369,234006	60,89	0,067396
4,562406	365,881291	61,05	0,065941
4,559410	363,563643	61,20	0,064935
4,556368	360,332436	61,37	0,063533
4,553391	357,406124	61,52	0,062263
4,550301	354,479812	61,69	0,060993
4,547350	351,613128	61,87	0,059749
4,544412	347,894765	62,04	0,058135
4,541365	345,150715	62,21	0,056944
4,538430	341,858754	62,37	0,055515
4,535393	339,663738	62,52	0,054562
4,532422	335,091446	62,68	0,052578
4,529382	333,505094	62,83	0,051890
4,526439	330,639536	62,99	0,050646
4,523383	326,921173	63,17	0,049032
4,520385	324,482017	63,32	0,047974
4,517407	321,433072	63,50	0,046650
4,514371	318,811654	63,65	0,045513
4,511457	315,397060	63,81	0,044031
4,508378	312,165854	63,99	0,042628
4,505483	308,386737	64,15	0,040988
4,502415	305,093651	64,33	0,039559
4,499380	303,142776	64,49	0,038712
4,496380	299,118394	64,67	0,036966
4,493418	297,411659	64,82	0,036225
4,490497	292,716734	65,00	0,034188
4,487439	290,400211	65,17	0,033182
4,484454	287,107125	65,32	0,031753
4,481408	285,339637	65,48	0,030986
4,478422	280,705465	65,64	0,028975
4,478413	279,059485	65,80	0,028260
4,481397	280,949606	65,95	0,029081
4,484440	284,241566	66,12	0,030509
4,487493	286,924863	66,27	0,031674
4,490399	290,887367	66,45	0,033394
4,493405	292,900121	66,61	0,034267
4,496477	295,887187	66,77	0,035563
4,499407	300,703620	66,93	0,037654
4,502465	302,898636	67,10	0,038606
4,505361	305,337792	67,25	0,039665
4,508387	308,568998	67,43	0,041067
4,511463	311,495311	67,59	0,042337
4,514406	314,239361	67,75	0,043528
4,517454	317,836217	67,90	0,045089
4,520398	320,701775	68,06	0,046333
4,523418	323,872228	68,21	0,047709
4,526499	326,737786	68,39	0,048953
4,529466	331,188571	68,55	0,050884
4,532445	332,957184	68,71	0,051652
4,535405	335,517848	68,88	0,052763
4,538403	339,480352	69,04	0,054483
4,541404	343,383227	69,20	0,056177
4,544396	344,358664	69,36	0,056600
4,547409	349,175097	69,52	0,058690
4,550416	351,796515	69,67	0,059828
4,553446	353,443620	69,85	0,060543
4,556432	357,771772	70,00	0,062421
4,559427	361,002979	70,16	0,063824
4,562430	363,747030	70,34	0,065015
4,565417	367,161623	70,51	0,066497
4,568408	370,332076	70,67	0,067873
4,571422	372,953494	70,83	0,069010
4,574381	376,550349	71,00	0,070571
4,577412	379,476662	71,16	0,071841
4,580412	382,281466	71,33	0,073059
4,583417	384,904009	71,50	0,074197
4,586421	388,683126	71,66	0,075837
4,589440	390,817387	71,83	0,076763
4,592400	393,987840	71,99	0,078139
4,595396	396,610383	72,14	0,079277
4,598415	400,694394	72,31	0,081050
4,601413	402,950164	72,48	0,082029
4,604409	407,279441	72,65	0,083908
4,607410	409,352949	72,82	0,084808
4,610386	412,035120	72,97	0,085972
4,613434	416,364397	73,14	0,087851
4,616412	418,192639	73,30	0,088644
4,619386	421,364217	73,48	0,090021
4,622393	425,326721	73,64	0,091740
4,625444	426,667807	73,80	0,092322
4,628430	430,813697	73,97	0,094122
4,631422	433,862642	74,13	0,095445
4,634427	437,154603	74,29	0,096874
4,637396	438,861337	74,45	0,097614
4,640432	443,678895	74,62	0,099705
4,643404	445,446384	74,78	0,100472
4,646362	448,921731	74,95	0,101980
4,649423	451,605028	75,11	0,103145
4,652351	455,262637	75,27	0,104732
4,655429	458,250828	75,43	0,106029
4,658411	460,933000	75,60	0,107193
4,661374	464,834749	75,77	0,108887
4,664432	466,542609	75,92	0,109628
4,667364	469,042519	76,09	0,110713
4,670328	472,212972	76,25	0,112089
4,673407	475,078530	76,42	0,113333
4,676350	478,126350	76,58	0,114655
4,679454	482,211487	76,75	0,116428
4,682408	485,199678	76,91	0,117725
4,685408	487,150553	77,09	0,118572
4,688392	491,601337	77,26	0,120503
4,691412	494,832544	77,42	0,121906
4,694393	497,514716	77,58	0,123070
4,697403	500,258767	77,75	0,124261
4,700450	502,575290	77,92	0,125266
4,703405	505,563481	78,08	0,126563
4,706367	508,978075	78,26	0,128045
4,709344	511,538738	78,42	0,129156
4,712397	513,733754	78,57	0,130109
4,715421	518,306047	78,74	0,132093
4,718385	520,805957	78,91	0,133178
4,721421	522,940218	79,06	0,134104
4,724394	526,171425	79,23	0,135507
4,727360	530,195808	79,39	0,137253
4,730364	533,182874	79,56	0,138550
4,733354	535,499397	79,71	0,139555
4,736354	538,243448	79,88	0,140746
4,739372	541,048252	80,03	0,141963
4,742404	545,071510	80,21	0,143709
4,745360	547,145017	80,36	0,144609
4,748370	551,230154	80,53	0,146382
4,751351	554,095712	80,71	0,147626
4,754369	556,046587	80,89	0,148473
4,757347	560,436618	81,06	0,150378
4,760338	562,813895	81,22	0,151410
4,763367	566,472629	81,39	0,152998
4,766323	567,752961	81,56	0,153553
4,769449	572,142992	81,73	0,155458
4,769370	573,361445	81,89	0,155987
4,769389	573,179183	82,04	0,155908
4,769391	573,118430	82,21	0,155882
4,769356	573,788972	82,36	0,156173
4,769316	573,300691	82,52	0,155961
4,769385	573,118430	82,68	0,155882
4,769302	572,935043	82,85	0,155802
4,769358	573,056551	83,00	0,155855
4,769365	572,264500	83,15	0,155511
4,769389	573,056551	83,32	0,155855
4,769358	572,690902	83,47	0,155696
4,769410	572,446762	83,63	0,155590
4,769327	572,569394	83,79	0,155644
4,769336	572,752781	83,94	0,155723
4,769372	572,630148	84,10	0,155670
4,769341	572,325254	84,28	0,155538
4,769320	572,813535	84,44	0,155750
4,769346	572,508641	84,62	0,155617
4,769321	572,569394	84,78	0,155644
4,769350	573,300691	84,94	0,155961
4,769396	572,690902	85,12	0,155696
4,769411	572,264500	85,30	0,155511
4,769393	572,630148	85,49	0,155670
4,769328	572,387133	85,71	0,155564
4,769369	572,752781	85,91	0,155723
4,769345	572,264500	86,11	0,155511
4,769387	572,752781	86,27	0,155723
4,769379	572,569394	86,43	0,155644
4,769439	572,690902	86,58	0,155696
4,769379	572,387133	86,75	0,155564
4,769341	573,056551	86,90	0,155855
4,769287	572,690902	87,07	0,155696
4,769356	572,446762	87,23	0,155590
4,767356	572,081113	87,38	0,155432
4,764326	568,545012	87,56	0,153897
4,761311	565,923594	87,73	0,152759
4,758330	561,838458	87,94	0,150986
4,755353	559,338548	88,11	0,149901
4,752376	557,204286	88,28	0,148975
4,749312	553,241782	88,47	0,147255
4,746450	551,290908	88,62	0,146409
4,743389	547,449912	88,78	0,144742
4,740408	543,791178	88,95	0,143154
4,737374	541,535408	89,11	0,142175
4,734360	538,364955	89,29	0,140799
4,731355	535,438643	89,46	0,139529
4,728397	532,877979	89,61	0,138417
4,725405	528,976229	89,78	0,136724
4,722345	526,720460	89,95	0,135745
4,719359	522,268550	90,10	0,133813
4,716341	519,586379	90,27	0,132649
4,713371	517,696258	90,43	0,131829
4,710358	514,220910	90,58	0,130320
4,707377	510,196528	90,75	0,128574
4,704402	506,660426	90,92	0,127039
4,701406	504,099762	91,08	0,125928
4,698359	501,417591	91,23	0,124764
4,695365	498,063751	91,39	0,123308
4,692388	494,711037	91,55	0,121853
4,689386	492,027740	91,77	0,120688
4,686381	488,735779	91,93	0,119260
4,683389	486,601517	92,10	0,118333
4,680344	482,394873	92,27	0,116508
4,677439	480,077225	92,44	0,115502
4,674335	476,358862	92,60	0,113888
4,671351	473,370671	92,77	0,112591
4,668385	470,870761	92,93	0,111506
4,665422	467,518046	93,10	0,110051
4,662381	464,530980	93,28	0,108755
4,659416	461,298648	93,43	0,107352
4,656455	458,067441	93,61	0,105950
4,653387	455,750918	93,76	0,104944
4,650462	451,909922	93,95	0,103277
4,647387	449,044364	94,11	0,102034
4,644414	445,629770	94,28	0,100552
4,641449	443,069106	94,45	0,099440
4,638381	439,167357	94,61	0,097747
4,635393	436,910462	94,78	0,096768
4,632387	433,862642	94,94	0,095445
4,629397	430,752943	95,13	0,094095
4,626372	428,131525	95,28	0,092958
4,623354	424,777686	95,47	0,091502
4,620442	421,302338	95,62	0,089994
4,617377	419,412217	95,79	0,089173
4,614361	416,059503	95,95	0,087718
4,611390	412,279261	96,13	0,086078
4,608412	409,169562	96,30	0,084728
4,605341	405,938355	96,47	0,083326
4,602375	404,353129	96,62	0,082638
4,604460	401,913972	96,80	0,081579
4,607420	404,413882	96,95	0,082664
4,610394	408,072617	97,12	0,084252
4,613394	412,279261	97,29	0,086078
4,616433	414,656538	97,45	0,087109
4,619363	416,974186	97,61	0,088115
4,622349	420,143514	97,77	0,089491
4,625381	424,412037	97,94	0,091343
4,628381	427,582490	98,10	0,092719
4,631381	430,630310	98,25	0,094042
4,634385	433,436240	98,42	0,095260
4,637397	436,728201	98,59	0,096688
4,640341	438,983970	98,74	0,097667
4,643365	441,178985	98,89	0,098620
4,646410	445,446384	99,07	0,100472
4,649410	448,251188	99,22	0,101689
4,652407	451,421641	99,39	0,103065
4,655373	453,434395	99,56	0,103939
4,658422	457,641039	99,71	0,105765
4,661382	460,688859	99,89	0,107087
4,664380	464,408347	100,06	0,108702
4,667360	465,749433	100,21	0,109284
4,670354	468,798378	100,37	0,110607
4,673381	472,821636	100,54	0,112353
4,676378	475,809827	100,70	0,113650
4,679389	478,796893	100,86	0,114946
4,682348	480,809647	101,03	0,115820
4,685323	485,747588	101,19	0,117963
4,688384	487,637709	101,34	0,118783
4,691366	490,625900	101,50	0,120080
4,694388	493,857107	101,67	0,121482
4,697372	496,722665	101,83	0,122726
4,700398	500,014626	102,00	0,124155
4,703384	504,465411	102,17	0,126086
4,706363	506,173270	102,33	0,126828
4,709403	509,038828	102,50	0,128071
4,712335	511,904387	102,66	0,129315
4,715338	514,891453	102,81	0,130611
4,718397	518,610941	102,98	0,132226
4,721361	521,171605	103,15	0,133337
4,724357	524,342058	103,31	0,134713
4,727436	527,207616	103,49	0,135957
4,730374	529,951667	103,65	0,137147
4,733348	533,487768	103,81	0,138682
4,736402	536,658221	103,98	0,140058
4,739388	540,438463	104,14	0,141699
4,742347	542,450092	104,31	0,142572
4,745397	546,656736	104,46	0,144397
4,748385	549,644927	104,64	0,145694
4,751389	551,412415	104,80	0,146461
4,754359	554,887763	104,98	0,147970
4,757321	557,387673	105,15	0,149055
4,760329	560,375864	105,30	0,150352
4,763335	563,607071	105,47	0,151754
4,766398	566,349996	105,64	0,152944
4,769391	570,618520	105,80	0,154797
4,772328	574,459515	105,96	0,156464
4,775422	576,959425	106,11	0,157549
4,778410	579,946492	106,29	0,158845
4,781343	581,654351	106,45	0,159586
4,784390	585,860995	106,61	0,161412
4,787318	588,970694	106,79	0,162762
4,790318	591,470604	106,94	0,163847
4,793353	593,787127	107,11	0,164852
4,796337	597,993772	107,29	0,166678
4,799324	600,920084	107,46	0,167948
4,802337	602,932838	107,61	0,168821
4,805358	607,870779	107,78	0,170964
4,808353	609,821654	107,95	0,171811
4,811360	612,321564	108,10	0,172896
4,814329	615,980298	108,28	0,174484
4,817349	617,442891	108,43	0,175119
4,820305	621,893676	108,60	0,177050
4,823308	624,516219	108,77	0,178188
4,826367	627,990441	108,94	0,179696
4,829311	630,308090	109,11	0,180702
4,832319	632,746121	109,28	0,181760
4,835322	637,014644	109,43	0,183613
4,838295	638,904765	109,59	0,184433
4,841313	643,294796	109,78	0,186338
4,844319	645,184917	109,93	0,187159
4,847362	649,452315	110,11	0,189011
4,850331	651,220928	110,26	0,189778
4,853350	653,842346	110,43	0,190916
4,856330	657,439201	110,58	0,192477
4,859286	660,793041	110,75	0,193933
4,862353	663,902740	110,92	0,195282
4,865386	667,133947	111,08	0,196685
4,868297	669,573103	111,25	0,197743
4,871357	672,865063	111,41	0,199172
4,874315	675,609114	111,58	0,200363
4,877340	678,961829	111,73	0,201818
4,880354	681,583246	111,89	0,202956
4,883314	684,997840	112,05	0,204437
4,886324	687,802644	112,22	0,205655
4,889355	689,692765	112,38	0,206475
4,892333	693,228867	112,56	0,208010
4,895361	696,643460	112,73	0,209492
4,898353	699,753159	112,91	0,210841
4,901342	703,045120	113,08	0,212270
4,904285	705,179381	113,25	0,213196
4,907297	708,959623	113,40	0,214837
4,910358	711,520287	113,57	0,215948
4,913331	714,569232	113,73	0,217271
4,916316	717,251404	113,92	0,218436
4,919333	719,812068	114,07	0,219547
4,922289	723,165908	114,22	0,221002
4,925324	726,397114	114,38	0,222405
4,928339	729,262673	114,56	0,223648
4,931285	731,884091	114,72	0,224786
4,934258	734,993790	114,88	0,226136
4,936263	738,285750	115,03	0,227564
4,936339	738,102364	115,20	0,227485
4,936330	738,651399	115,36	0,227723
4,936324	738,042735	115,54	0,227459
4,936260	738,590645	115,69	0,227697
4,936299	737,920102	115,85	0,227406
4,936306	738,408383	116,01	0,227618
4,936280	738,590645	116,16	0,227697
4,936277	739,078926	116,34	0,227909
4,936359	738,590645	116,50	0,227697
4,936251	738,224996	116,67	0,227538
4,936258	738,408383	116,82	0,227618
4,936277	738,346504	116,98	0,227591
4,936293	738,224996	117,15	0,227538
4,936343	738,224996	117,31	0,227538
4,936298	738,285750	117,47	0,227564
4,936354	738,408383	117,64	0,227618
4,936301	739,505328	117,80	0,228094
4,936299	738,224996	117,97	0,227538
4,936308	738,346504	118,15	0,227591
4,936357	738,164243	118,31	0,227512
4,936298	738,102364	118,50	0,227485
4,936350	738,956293	118,68	0,227855
4,936386	738,346504	118,84	0,227591
4,936326	738,164243	119,08	0,227512
4,936298	738,285750	119,25	0,227564
4,936396	738,042735	119,41	0,227459
4,936329	738,102364	119,57	0,227485
4,936315	738,590645	119,72	0,227697
4,936357	738,285750	119,88	0,227564
4,936346	738,102364	120,03	0,227485
4,936285	739,018172	120,18	0,227882
4,936329	737,980856	120,34	0,227432
4,936371	738,346504	120,49	0,227591
4,933344	737,126926	120,64	0,227062
4,930322	734,688895	120,83	0,226003
4,927353	731,518442	121,04	0,224627
4,924294	727,555939	121,23	0,222908
4,921385	724,933396	121,41	0,221770
4,918288	721,153154	121,60	0,220129
4,915357	717,982701	121,78	0,218753
4,912350	715,787685	121,94	0,217800
4,909306	712,922127	122,13	0,216557
4,906321	708,776237	122,37	0,214757
4,903309	705,179381	122,54	0,213196
4,900355	702,618718	122,71	0,212085
4,897351	700,423702	122,87	0,211132
4,894325	697,446762	123,03	0,209840
4,891340	694,082796	123,18	0,208380
4,888333	691,095730	123,35	0,207084
4,885317	687,986031	123,51	0,205734
4,882279	684,692945	123,66	0,204305
4,879394	682,071528	123,83	0,203167
4,876321	677,803004	124,00	0,201315
4,873360	676,584551	124,15	0,200786
4,870339	673,047325	124,32	0,199251
4,867362	669,024068	124,49	0,197505
4,864379	666,340771	124,64	0,196340
4,861337	663,840861	124,81	0,195255
4,858327	660,244006	124,97	0,193694
4,855335	657,073553	125,15	0,192318
4,852335	654,391381	125,30	0,191154
4,849327	650,855280	125,47	0,189620
4,846288	647,440686	125,64	0,188138
4,843296	645,001530	125,80	0,187079
4,840352	641,160534	125,98	0,185412
4,837347	638,477238	126,14	0,184248
4,834376	636,465609	126,30	0,183375
4,831371	632,808000	126,47	0,181787
4,828357	629,088512	126,63	0,180173
4,825389	626,527848	126,80	0,179062
4,822363	623,296641	126,96	0,177659
4,819344	620,186942	127,12	0,176310
4,816388	616,406700	127,29	0,174669
4,813361	615,187122	127,45	0,174140
4,810360	612,260810	127,62	0,172870
4,807398	608,114919	127,80	0,171070
4,804351	605,065974	127,96	0,169747
4,801338	602,078908	128,12	0,168451
4,798326	598,482053	128,29	0,166890
4,795362	595,798756	128,45	0,165725
4,792330	592,567549	128,61	0,164323
4,789339	590,251026	128,78	0,163317
4,786371	587,323589	128,95	0,162047
4,783313	583,239577	129,11	0,160274
4,780365	580,129878	129,28	0,158925
4,777372	577,508461	129,44	0,157787
4,774372	574,154621	129,62	0,156332
4,771350	572,387133	129,77	0,155564
4,768326	567,691082	129,94	0,153526
4,765390	566,472629	130,09	0,152998
4,762378	563,362930	130,25	0,151648
4,759346	559,643442	130,43	0,150034
4,756377	555,863200	130,59	0,148393
4,753314	553,669310	130,76	0,147441
4,750341	549,279279	130,92	0,145536
4,747394	547,266525	131,08	0,144662
4,744395	542,876494	131,25	0,142757
4,741304	539,767920	131,42	0,141408
4,738397	537,084623	131,58	0,140243
4,735378	535,499397	131,75	0,139555
4,732363	532,207436	131,92	0,138126
4,729370	528,609456	132,08	0,136565
4,727325	525,317495	132,24	0,135136
4,730355	526,537073	132,39	0,135666
4,733367	529,951667	132,56	0,137147
4,736378	533,061366	132,71	0,138497
4,739439	536,169940	132,90	0,139846
4,742441	538,609096	133,05	0,140905
4,745333	541,291268	133,21	0,142069
4,748398	544,889248	133,36	0,143630
4,751334	547,997822	133,53	0,144979
4,754354	550,620365	133,69	0,146118
4,757375	554,522114	133,84	0,147811
4,760397	556,594497	134,01	0,148710
4,763374	560,497372	134,18	0,150404
4,766327	564,216860	134,37	0,152019
4,769335	565,253051	134,52	0,152468
4,772364	570,008731	134,67	0,154532
4,775362	572,752781	134,84	0,155723
4,778363	576,288882	135,00	0,157258
4,781365	578,422019	135,18	0,158184
4,784347	582,019999	135,33	0,159745
4,787385	585,007065	135,50	0,161042
4,790375	588,421659	135,66	0,162523
4,793378	590,372534	135,81	0,163370
4,796314	594,092022	135,99	0,164984
4,799372	597,749631	136,15	0,166572
4,802365	599,944646	136,32	0,167524
4,805357	602,627943	136,47	0,168689
4,808372	606,895341	136,64	0,170541
4,811328	609,578638	136,80	0,171706
4,814302	613,480388	136,97	0,173399
4,817348	615,370509	137,13	0,174219
4,820363	619,211505	137,31	0,175886
4,823368	621,467274	137,48	0,176865
4,826427	624,088692	137,64	0,178003
4,829393	627,808180	137,80	0,179617
4,832326	630,429597	137,97	0,180755
4,835385	632,868754	138,13	0,181813
4,838322	636,893136	138,30	0,183560
4,841357	640,245851	138,46	0,185015
4,844369	642,258605	138,63	0,185889
4,847295	646,342616	138,79	0,187661
4,850362	650,306245	138,97	0,189381
4,853343	650,855280	139,12	0,189620
4,856360	654,878537	139,29	0,191366
4,859383	657,195060	139,45	0,192371
4,862369	660,914549	139,63	0,193985
4,865368	664,938931	139,79	0,195732
4,868355	667,865243	139,95	0,197002
4,871341	671,340591	140,12	0,198510
4,874340	673,901255	140,28	0,199622
4,877350	676,279657	140,45	0,200654
4,880369	678,901075	140,61	0,201792
4,883321	681,766633	140,78	0,203035
4,886373	686,034031	140,94	0,204887
4,889396	689,509379	141,12	0,206396
4,892305	690,973097	141,29	0,207031
4,895413	694,143550	141,46	0,208407
4,898317	697,497390	141,61	0,209862
4,901342	701,825542	141,78	0,211741
4,904327	705,056749	141,95	0,213143
4,907340	707,435151	142,12	0,214175
4,910325	710,971252	142,29	0,215710
4,913320	713,166268	142,45	0,216663
4,916326	715,848439	142,60	0,217827
4,919317	718,713998	142,78	0,219070
4,922335	723,165908	142,93	0,221002
4,925259	726,092220	143,10	0,222272
4,928296	727,982341	143,27	0,223093
4,931367	731,944844	143,43	0,224812
4,934365	734,444754	143,60	0,225897
4,937313	736,822032	143,76	0,226929
4,940331	741,273942	143,93	0,228861
4,943292	743,041430	144,08	0,229628
4,946308	747,005058	144,25	0,231349
4,949352	748,772546	144,41	0,232116
4,952358	752,003753	144,58	0,233518
4,955358	755,113452	144,74	0,234868
4,958263	758,528046	144,92	0,236350
4,961320	761,210217	145,07	0,237514
4,964297	764,075776	145,25	0,238757
4,967323	768,039405	145,41	0,240478
4,970314	770,478561	145,57	0,241536
4,973266	774,380310	145,75	0,243229
4,976311	776,514572	145,91	0,244156
4,979302	780,234060	146,07	0,245770
4,982337	782,427950	146,24	0,246722
4,985318	786,024806	146,41	0,248283
4,988273	788,220946	146,57	0,249236
4,991254	791,939309	146,74	0,250850
4,994313	794,317711	146,90	0,251882
4,997283	797,365531	147,07	0,253205
5,000323	800,535984	147,23	0,254581
5,003356	803,584929	147,41	0,255904
5,006295	807,365171	147,58	0,257545
5,009292	809,011152	147,76	0,258259
5,012272	813,035534	147,93	0,260006
5,015283	816,693143	148,10	0,261593
5,018306	819,863596	148,27	0,262969
5,021288	821,814471	148,44	0,263816
5,024283	825,412451	148,62	0,265377
5,027262	827,973115	148,77	0,266489
5,030296	830,716041	148,94	0,267679
5,033348	834,861931	149,11	0,269479
5,036305	837,301087	149,27	0,270537
5,039241	840,045138	149,43	0,271728
5,042216	844,007641	149,60	0,273448
5,045261	847,422235	149,76	0,274930
5,048301	850,043653	149,93	0,276067
5,051303	852,543563	150,08	0,277152
5,054320	854,494438	150,26	0,277999
5,057281	858,458066	150,41	0,279719
5,060233	861,323625	150,58	0,280963
5,063261	864,494078	150,74	0,282339
5,066253	867,481144	150,91	0,283635
5,069253	870,164441	151,06	0,284800
5,072257	873,639788	151,27	0,286308
5,075277	875,895557	151,42	0,287287
5,078268	878,638483	151,59	0,288478
5,081234	882,846252	151,75	0,290304
5,084244	886,321600	151,90	0,291812
5,087334	889,125279	152,07	0,293029
5,090261	891,869330	152,23	0,294220
5,093220	894,856396	152,39	0,295516
5,096270	898,026849	152,56	0,296892
5,099278	899,734708	152,72	0,297633
5,102225	904,063985	152,89	0,299512
5,103181	907,111805	153,04	0,300835
5,103276	906,197122	153,22	0,300438
5,103222	905,770719	153,37	0,300253
5,103256	906,197122	153,55	0,300438
5,103257	906,257876	153,72	0,300464
5,103232	905,221684	153,87	0,300015
5,103265	905,892227	154,05	0,300306
5,103236	905,892227	154,21	0,300306
5,103265	906,197122	154,37	0,300438
5,103241	906,014860	154,53	0,300359
5,103291	905,770719	154,70	0,300253
5,103288	905,526579	154,85	0,300147
5,103239	905,770719	155,01	0,300253
5,103250	906,014860	155,17	0,300359
5,103203	906,136368	155,33	0,300412
5,103262	905,892227	155,50	0,300306
5,103243	906,257876	155,67	0,300464
5,103253	906,075614	155,84	0,300385
5,103228	905,526579	156,00	0,300147
5,103244	906,136368	156,17	0,300412
5,103262	905,709965	156,34	0,300227
5,103233	905,770719	156,52	0,300253
5,103246	905,709965	156,71	0,300227
5,103259	905,770719	156,91	0,300253
5,103205	906,136368	157,12	0,300412
5,103304	905,770719	157,27	0,300253
5,103264	906,075614	157,44	0,300385
5,103233	906,014860	157,59	0,300359
5,103221	906,075614	157,74	0,300385
5,103239	906,014860	157,91	0,300359
5,103244	906,319754	158,06	0,300491
5,103216	905,649212	158,21	0,300200
5,103203	905,770719	158,37	0,300253
5,102282	905,770719	158,52	0,300253
5,099264	904,063985	158,72	0,299512
5,096297	900,710145	158,89	0,298057
5,093256	896,136728	159,11	0,296072
5,090214	893,577189	159,30	0,294961
5,087241	890,162595	159,47	0,293479
5,084237	887,662685	159,64	0,292394
5,081307	884,613740	159,79	0,291071
5,078299	882,175709	159,96	0,290013
5,075250	878,090573	160,13	0,288240
5,072227	875,772924	160,28	0,287234
5,069284	873,212261	160,45	0,286123
5,066269	868,822230	160,61	0,284217
5,063242	866,079304	160,78	0,283027
5,060243	863,457886	160,95	0,281889
5,057242	861,018730	161,10	0,280831
5,054332	858,153172	161,27	0,279587
5,051268	854,068035	161,44	0,277814
5,048309	851,263231	161,59	0,276597
5,045251	848,581059	161,75	0,275433
5,042261	845,715501	161,91	0,274189
5,039292	842,971450	162,07	0,272998
5,036284	839,922505	162,23	0,271675
5,033229	835,655107	162,41	0,269823
5,030301	833,338584	162,56	0,268817
5,027261	829,558342	162,73	0,267177
5,024257	826,265256	162,91	0,265748
5,021291	823,217436	163,07	0,264425
5,018228	820,778280	163,24	0,263366
5,015260	818,278370	163,40	0,262281
5,012285	814,253987	163,57	0,260535
5,009300	811,876710	163,73	0,259503
5,006285	807,304417	163,90	0,257519
5,003301	804,316226	164,06	0,256222
5,000306	803,096648	164,22	0,255692
4,997275	798,645863	164,41	0,253761
4,994219	796,634235	164,56	0,252888
4,991300	791,939309	164,75	0,250850
4,988293	789,257137	164,90	0,249686
4,985287	787,488524	165,08	0,248918
4,982320	783,465267	165,25	0,247172
4,979317	780,660462	165,41	0,245955
4,976332	778,526201	165,58	0,245029
4,973344	774,196924	165,74	0,243150
4,970257	771,392119	165,90	0,241933
4,967315	768,344299	166,07	0,240610
4,964300	764,929706	166,25	0,239128
4,961305	763,100338	166,41	0,238334
4,958287	758,954448	166,58	0,236535
4,955327	755,783995	166,74	0,235159
4,952313	752,796929	166,92	0,233862
4,949349	750,052878	167,07	0,232671
4,946322	746,577531	167,27	0,231163
4,943291	744,565902	167,42	0,230290
4,940341	740,175871	167,60	0,228385
4,937352	737,371067	167,76	0,227167
4,934335	735,054543	167,92	0,226162
4,931371	731,579196	168,09	0,224654
4,928389	728,897024	168,25	0,223490
4,925285	724,811888	168,42	0,221717
4,922344	722,433486	168,59	0,220685
4,919286	718,531736	168,79	0,218991
4,916324	715,605424	169,03	0,217721
4,913309	712,190830	169,27	0,216239
4,910351	709,569412	169,42	0,215102
4,907313	707,007623	169,60	0,213990
4,904274	704,751854	169,76	0,213011
4,901283	701,459893	169,92	0,211582
4,898355	697,740405	170,08	0,209968
4,895352	694,509199	170,26	0,208565
4,892321	691,338746	170,43	0,207189
4,889314	689,266363	170,60	0,206290
4,886324	686,400805	170,75	0,205046
4,883347	683,046965	170,91	0,203591
4,880371	679,022582	171,09	0,201844
4,877309	676,889446	171,26	0,200918
4,874352	672,986571	171,44	0,199225
4,871339	670,487786	171,62	0,198140
4,868316	667,865243	171,78	0,197002
4,865345	664,816298	171,95	0,195679
4,862387	660,793041	172,12	0,193933
4,859408	657,012799	172,30	0,192292
4,856339	655,549080	172,47	0,191657
4,853374	652,257119	172,65	0,190228
4,850288	648,598385	172,82	0,188640
4,847274	646,038846	173,00	0,187529
4,844329	643,234042	173,18	0,186312
4,841357	638,965519	173,37	0,184459
4,838348	636,221468	173,52	0,183269
4,835371	633,844191	173,71	0,182237
4,832367	630,124703	173,87	0,180623
4,829374	627,015004	174,06	0,179273
4,826408	625,003375	174,22	0,178400
4,823341	620,431083	174,42	0,176416
4,820367	619,028118	174,58	0,175807
4,817361	615,309755	174,75	0,174193
4,814339	611,955915	174,91	0,172737
4,811386	608,906970	175,10	0,171414
4,808366	605,859150	175,26	0,170091
4,805404	603,603381	175,45	0,169112
4,802344	599,091842	175,60	0,167154
4,799318	597,079088	175,78	0,166281
4,796352	593,177338	175,96	0,164587
4,793295	590,433288	176,12	0,163396
4,790360	586,775679	176,29	0,161809
4,787337	585,190452	176,45	0,161121
4,784379	581,287577	176,63	0,159427
4,781368	578,422019	176,78	0,158184
4,778457	574,825164	176,95	0,156623
4,775385	572,081113	177,10	0,155432
4,772369	569,154801	177,28	0,154162
4,769377	566,838278	177,43	0,153156
4,766378	563,484438	177,60	0,151701
4,763400	561,228669	177,75	0,150722
4,760381	557,814075	177,94	0,149240
4,757404	554,948517	178,09	0,147996
4,754345	551,351662	178,26	0,146435
4,751333	548,364595	178,41	0,145139
4,748393	545,499037	178,58	0,143895
4,745356	542,084443	178,76	0,142413
4,742403	538,548342	178,92	0,140878
4,739414	535,620905	179,11	0,139608
4,736316	533,120995	179,26	0,138523
4,733401	529,524140	179,43	0,136962
4,730333	526,414441	179,58	0,135612
4,727423	524,281304	179,75	0,134687
4,724441	519,952027	179,92	0,132808
4,721392	517,209101	180,09	0,131617
4,718390	515,074840	180,25	0,130691
4,715376	510,745563	180,43	0,128812
4,712349	508,245653	180,59	0,127727
4,709403	505,806497	180,76	0,126668
4,706418	501,904747	180,93	0,124975
4,703397	498,917681	181,10	0,123679
4,700362	495,381579	181,28	0,122144
4,697387	492,942423	181,45	0,121085
4,694421	489,711217	181,62	0,119683
4,691387	487,760342	181,77	0,118836
4,688405	483,796713	181,94	0,117116
4,685353	480,870401	182,09	0,115846
4,682425	478,553877	182,28	0,114841
4,679439	475,444178	182,45	0,113491
4,676381	472,578620	182,62	0,112248
4,673387	469,468921	182,78	0,110898
4,670370	465,627925	182,95	0,109231
4,667387	464,042699	183,10	0,108543
4,664383	460,018316	183,27	0,106796
4,661419	456,542969	183,44	0,105288
4,658437	454,409832	183,60	0,104362
4,655399	450,995239	183,77	0,102880
4,652410	448,678715	183,93	0,101875
4,649405	444,959227	184,08	0,100261
4,646434	442,032915	184,24	0,098991
4,643453	438,495689	184,41	0,097456
4,640456	436,118412	184,58	0,096424
4,637445	433,374361	184,74	0,095233
4,634426	430,936330	184,91	0,094175
4,631406	426,972701	185,07	0,092455
4,628411	424,229776	185,23	0,091264
4,625396	420,387655	185,41	0,089597
4,622401	417,644729	185,58	0,088406
4,619495	414,839925	185,75	0,087189
4,616451	411,059683	185,92	0,085548
4,613420	408,499019	186,09	0,084437
4,610427	405,328566	186,26	0,083061
4,607457	402,828656	186,42	0,081976
4,604442	399,475941	186,60	0,080521
4,601431	397,402434	186,76	0,079621
4,598435	393,317297	186,92	0,077848
4,595444	390,512493	187,08	0,076631
4,592374	388,135216	187,25	0,075599
4,589424	384,110833	187,41	0,073853
4,586387	381,794310	187,59	0,072847
4,583438	377,952189	187,76	0,071180
4,580452	376,611103	187,92	0,070598
4,577435	372,221072	188,09	0,068692
4,574403	369,661533	188,26	0,067582
4,571455	367,222377	188,43	0,066523
4,568422	364,417573	188,59	0,065306
4,565413	360,088296	188,77	0,063427
4,562434	356,796335	188,93	0,061998
4,559377	353,686636	189,09	0,060648
4,556428	351,125972	189,25	0,059537
4,553453	349,663378	189,41	0,058902
4,550369	344,358664	189,58	0,056600
4,547399	343,139086	189,74	0,056071
4,544393	339,175457	189,91	0,054351
4,541483	337,103075	190,08	0,053451
4,538437	334,176762	190,23	0,052181
4,535494	330,578782	190,40	0,050620
4,532520	327,957364	190,56	0,049482
4,529436	323,932982	190,74	0,047735
4,526478	321,311564	190,92	0,046598
4,523406	319,421443	191,07	0,045777
4,520432	315,093291	191,25	0,043899
4,517423	312,898275	191,40	0,042946
4,514430	309,483682	191,57	0,041464
4,511476	306,618124	191,73	0,040221
4,508404	303,142776	191,91	0,038712
4,505422	300,521358	192,06	0,037575
4,502439	297,228273	192,23	0,036146
4,499439	294,546101	192,40	0,034981
4,496455	291,192261	192,57	0,033526
4,493520	289,424773	192,72	0,032759
4,490418	286,315074	192,90	0,031409
4,487446	282,351445	193,06	0,029689
4,484446	280,949606	193,24	0,029081
4,481402	277,535012	193,39	0,027599
4,478382	274,730208	193,57	0,026381
4,475416	270,584317	193,73	0,024582
4,472440	269,243232	193,89	0,024000
4,469420	264,426798	194,06	0,021910
4,466430	262,109150	194,23	0,020904
4,463400	259,122084	194,41	0,019607
4,460377	256,927068	194,56	0,018655
4,457390	253,086073	194,74	0,016988
4,454443	249,671479	194,90	0,015506
4,451441	246,989307	195,06	0,014342
4,448413	244,550151	195,22	0,013283
4,445450	241,807226	195,38	0,012093
4,442409	239,368070	195,55	0,011034
4,439401	235,100671	195,71	0,009182
4,436438	232,417375	195,86	0,008018
4,433524	230,405746	196,03	0,007145
4,430478	227,966590	196,21	0,006086
4,427473	223,820700	196,38	0,004287
4,424416	221,869825	196,54	0,003440
4,421468	217,235653	196,71	0,001429
4,418460	216,138708	196,86	0,000953
4,415492	211,687923	197,04	-0,000979
4,412461	210,651732	197,20	-0,001429
4,409439	206,565470	197,37	-0,003202
4,406522	204,676474	197,53	-0,004022
4,403467	200,530584	197,70	-0,005821
4,400533	198,396322	197,85	-0,006748
4,397466	195,652272	198,02	-0,007938
4,394416	192,543698	198,17	-0,009288
4,391538	190,226049	198,34	-0,010293
4,388476	186,750702	198,49	-0,011802
4,385460	183,945898	198,66	-0,013019
4,382533	179,800007	198,82	-0,014818
4,379441	177,057082	198,99	-0,016009
4,376559	174,129644	199,15	-0,017279
4,373453	170,898437	199,32	-0,018682
4,370474	169,252457	199,48	-0,019396
4,367480	166,082004	199,65	-0,020772
4,364446	161,996868	199,80	-0,022545
4,361484	159,496958	199,98	-0,023630
4,358421	155,839349	200,13	-0,025217
4,355491	153,583579	200,30	-0,026196
4,352458	149,498443	200,47	-0,027969
4,349463	146,937779	200,64	-0,029081
4,346455	143,523185	200,81	-0,030562
4,343439	142,303607	200,97	-0,031092
4,340425	137,303787	201,12	-0,033262
4,337464	134,865756	201,29	-0,034320
4,334491	131,756057	201,45	-0,035669
4,331509	129,072761	201,61	-0,036834
4,328551	126,207202	201,77	-0,038078
4,325508	122,915242	201,94	-0,039506
4,322515	121,025121	202,10	-0,040327
4,319503	117,793914	202,27	-0,041729
4,316507	114,440074	202,45	-0,043185
4,313467	112,733340	202,60	-0,043925
4,310454	108,282555	202,79	-0,045857
4,307477	105,416997	202,94	-0,047101
4,304461	102,307298	203,12	-0,048450
4,301502	100,295669	203,28	-0,049323
4,298477	97,490864	203,46	-0,050541
4,295511	94,686060	203,61	-0,051758
4,292506	90,296029	203,79	-0,053663
4,289438	87,125576	203,96	-0,055039
4,286440	84,381525	204,13	-0,056230
4,283486	81,943494	204,28	-0,057288
4,280510	78,712288	204,46	-0,058690
4,277559	76,822167	204,61	-0,059511
4,274495	72,737030	204,78	-0,061284
4,271469	69,688085	204,95	-0,062607
4,268457	68,102859	205,11	-0,063295
4,265461	64,566757	205,28	-0,064830
4,262457	60,420867	205,47	-0,066629
4,259489	57,311168	205,64	-0,067979
4,256547	54,568242	205,81	-0,069169
4,253463	51,945700	205,98	-0,070307
4,250522	49,507668	206,16	-0,071365
4,247503	46,032321	206,32	-0,072874
4,244445	43,958813	206,50	-0,073773
4,241478	40,057064	206,65	-0,075467
4,238451	36,703224	206,82	-0,076922
4,235509	34,447455	206,98	-0,077901
4,232478	31,581896	207,14	-0,079145
4,229497	27,924287	207,31	-0,080732
4,226469	26,034166	207,47	-0,081553
4,223469	21,826397	207,64	-0,083379
4,220526	18,351049	207,80	-0,084887
4,217510	15,180597	207,96	-0,086263
4,214472	14,083651	208,13	-0,086739
4,211535	9,816253	208,29	-0,088591
4,208524	7,193710	208,46	-0,089729
4,205552	4,693800	208,62	-0,090814
4,202557	0,608664	208,80	-0,092587
4,199511	-1,098070	208,96	-0,093328
4,196541	-4,329277	209,13	-0,094730
4,193495	-0,609789	209,28	-0,093116
4,190534	-0,488281	209,45	-0,093063
4,187517	-0,732422	209,61	-0,093169
4,184540	-0,975437	209,79	-0,093275
4,181501	-0,609789	209,97	-0,093116
4,178494	-0,671668	210,22	-0,093143
4,175521	-0,853930	210,40	-0,093222
4,172480	-0,793176	210,55	-0,093196
4,169514	-1,463719	210,72	-0,093487
4,166466	-0,671668	210,88	-0,093143
4,163535	-0,671668	211,10	-0,093143
4,160525	-0,671668	211,29	-0,093143
4,157525	-1,037316	211,45	-0,093302
4,154561	-0,244141	211,61	-0,092958
4,151547	-0,732422	211,78	-0,093169
4,148547	-1,158824	211,96	-0,093354
4,145482	-0,183387	212,19	-0,092931
4,142559	-0,427527	212,37	-0,093037
4,139469	-0,732422	212,58	-0,093169
4,136578	-0,060754	212,78	-0,092878
4,133577	-0,732422	212,94	-0,093169
4,130575	-0,914684	213,13	-0,093249
4,127507	-0,914684	213,34	-0,093249
4,124504	-0,488281	213,51	-0,093063
4,121502	-0,671668	213,67	-0,093143
4,118519	-0,793176	213,85	-0,093196
4,115547	-0,732422	214,00	-0,093169
4,112511	-0,975437	214,15	-0,093275
4,109586	-0,609789	214,32	-0,093116
4,106540	-0,122633	214,48	-0,092905
4,103567	0,000000	214,63	-0,092852
4,101535	-0,549035	214,73	-0,093090