File: Nanoindentation Datenauswertung/data/partial unload on sapphire-2,25ms
Quasi static measurement routine
Tip parameters (shape,radius, material...)
28.06.2022

Piezo position[nm]	MEMS displ.[nm]	Time[ms]	Cap [pf]
eoh
4,291510	-0,541548	0,038	-0,093222
4,296634	-0,782360	0,180	-0,093328
4,299635	-0,240811	0,333	-0,093090
4,302606	-0,421697	0,503	-0,093169
4,305625	-0,541548	0,655	-0,093222
4,308608	0,000000	0,807	-0,092984
4,311631	-0,481623	0,957	-0,093196
4,314633	-0,120961	1,109	-0,093037
4,317673	-0,481623	1,272	-0,093196
4,320595	-0,842285	1,422	-0,093354
4,323622	0,119851	1,573	-0,092931
4,326616	-0,661399	1,725	-0,093275
4,329622	-0,782360	1,876	-0,093328
4,332603	-0,661399	2,039	-0,093275
4,335599	-0,661399	2,191	-0,093275
4,338611	0,059925	2,344	-0,092958
4,341571	-1,022061	2,496	-0,093434
4,344656	-0,421697	2,646	-0,093169
4,347598	-0,240811	2,797	-0,093090
4,350632	-0,240811	2,968	-0,093090
4,353612	-0,541548	3,122	-0,093222
4,356615	-0,722434	3,277	-0,093302
4,359559	-0,842285	3,429	-0,093354
4,362581	-0,782360	3,582	-0,093328
4,365588	-0,661399	3,738	-0,093275
4,368554	-0,120961	3,891	-0,093037
4,371620	-0,722434	4,047	-0,093302
4,374618	-0,722434	4,199	-0,093302
4,377606	-0,963246	4,353	-0,093408
4,380608	-0,421697	4,514	-0,093169
4,383595	-0,180886	4,667	-0,093063
4,386620	2,946333	4,819	-0,091688
4,389605	6,013627	4,993	-0,090338
4,392612	7,757013	5,143	-0,089571
4,395633	11,907404	5,300	-0,087745
4,398577	13,471014	5,450	-0,087057
4,401591	16,958896	5,602	-0,085522
4,404598	19,905229	5,760	-0,084226
4,407545	22,852672	5,911	-0,082929
4,410608	26,520330	6,072	-0,081315
4,413621	29,648659	6,223	-0,079938
4,416614	31,812633	6,373	-0,078986
4,419606	34,700151	6,528	-0,077716
4,422600	37,646484	6,680	-0,076419
4,425558	41,254217	6,857	-0,074832
4,428593	44,020774	7,008	-0,073615
4,431629	46,787331	7,160	-0,072397
4,434606	50,575950	7,321	-0,070730
4,437645	52,440297	7,473	-0,069910
4,440628	55,326705	7,628	-0,068640
4,443597	58,634810	7,781	-0,067185
4,446567	61,160556	7,932	-0,066073
4,449604	65,130060	8,094	-0,064327
4,452580	67,295144	8,245	-0,063374
4,455591	70,602140	8,397	-0,061919
4,458606	74,091131	8,558	-0,060384
4,461598	76,435991	8,709	-0,059352
4,464619	79,382324	8,874	-0,058056
4,467588	83,471680	9,028	-0,056256
4,470595	85,877575	9,182	-0,055198
4,473593	88,584206	9,341	-0,054007
4,476597	91,050027	9,492	-0,052922
4,479622	94,597834	9,663	-0,051361
4,482545	98,205566	9,817	-0,049773
4,485667	100,370650	9,967	-0,048821
4,488563	104,340154	10,117	-0,047074
4,491630	107,887962	10,271	-0,045513
4,493594	109,572532	10,434	-0,044772
4,493591	109,090909	10,585	-0,044984
4,493611	109,451571	10,737	-0,044825
4,493577	109,331721	10,906	-0,044878
4,493595	109,211870	11,059	-0,044931
4,493673	108,610396	11,212	-0,045195
4,493599	109,331721	11,374	-0,044878
4,493559	109,752308	11,525	-0,044693
4,493570	109,271795	11,697	-0,044904
4,493575	108,610396	11,847	-0,045195
4,493616	108,610396	11,998	-0,045195
4,493656	109,271795	12,159	-0,044904
4,493601	108,911133	12,311	-0,045063
4,493570	108,911133	12,473	-0,045063
4,493614	108,790172	12,626	-0,045116
4,493642	108,730247	12,777	-0,045143
4,493557	108,309659	12,941	-0,045328
4,493631	108,971058	13,091	-0,045037
4,493638	108,730247	13,263	-0,045143
4,493621	108,670321	13,414	-0,045169
4,493547	108,911133	13,568	-0,045063
4,493504	108,790172	13,725	-0,045116
4,493581	109,572532	13,876	-0,044772
4,493604	109,090909	14,026	-0,044984
4,493598	108,971058	14,192	-0,045037
4,493587	108,670321	14,342	-0,045169
4,493609	109,391646	14,502	-0,044852
4,493585	108,971058	14,652	-0,045037
4,493567	109,451571	14,804	-0,044825
4,493575	109,090909	14,965	-0,044984
4,493589	109,511497	15,117	-0,044799
4,493627	109,451571	15,280	-0,044825
4,493594	109,211870	15,431	-0,044931
4,493577	109,090909	15,582	-0,044984
4,490545	107,527299	15,752	-0,045672
4,487626	104,220304	15,903	-0,047127
4,484556	100,852273	16,065	-0,048609
4,481571	98,446378	16,216	-0,049667
4,478620	94,838645	16,369	-0,051255
4,475523	92,673562	16,539	-0,052208
4,472611	89,305531	16,689	-0,053689
4,469544	85,636763	16,848	-0,055304
4,466537	83,291903	16,999	-0,056335
4,463610	79,744096	17,151	-0,057896
4,460638	76,976429	17,316	-0,059114
4,457542	73,127885	17,467	-0,060808
4,454606	70,962802	17,619	-0,061760
4,451566	68,558017	17,792	-0,062818
4,448563	65,430797	17,942	-0,064194
4,445593	62,062766	18,102	-0,065676
4,444574	58,815696	18,243	-0,067105
4,447606	62,062766	18,393	-0,065676
4,450625	65,130060	18,558	-0,064327
4,453607	67,775657	18,709	-0,063163
4,456578	70,723100	18,867	-0,061866
4,459576	74,149947	19,020	-0,060358
4,462535	76,676802	19,172	-0,059246
4,465584	79,563210	19,342	-0,057976
4,468562	83,170943	19,495	-0,056389
4,471533	85,997425	19,659	-0,055145
4,474591	88,884943	19,811	-0,053875
4,477599	92,191939	19,963	-0,052419
4,480571	95,199308	20,132	-0,051096
4,483553	98,205566	20,284	-0,049773
4,486614	101,272860	20,434	-0,048424
4,489557	104,340154	20,592	-0,047074
4,492606	107,226563	20,742	-0,045804
4,495543	109,873269	20,913	-0,044640
4,498538	113,060414	21,065	-0,043237
4,501568	116,428445	21,217	-0,041755
4,504606	119,675515	21,396	-0,040327
4,507577	121,840598	21,549	-0,039374
4,510549	124,847967	21,720	-0,038051
4,513613	128,095037	21,872	-0,036622
4,516590	130,680708	22,022	-0,035484
4,519596	133,688077	22,190	-0,034161
4,522607	136,634411	22,342	-0,032865
4,525629	139,100231	22,508	-0,031780
4,528625	142,287376	22,659	-0,030377
4,531593	145,474521	22,809	-0,028975
4,534612	148,301003	22,979	-0,027731
4,537590	151,067560	23,130	-0,026514
4,540551	154,916104	23,298	-0,024821
4,543581	157,923473	23,451	-0,023498
4,546573	160,630105	23,605	-0,022307
4,549568	163,456587	23,772	-0,021063
4,552550	166,824618	23,923	-0,019581
4,555590	169,590066	24,093	-0,018364
4,558547	172,718395	24,245	-0,016988
4,561595	175,784579	24,397	-0,015639
4,564581	178,732022	24,558	-0,014342
4,567574	181,919167	24,708	-0,012939
4,570552	184,564764	24,878	-0,011775
4,573552	187,691983	25,029	-0,010399
4,576533	190,879128	25,181	-0,008997
4,579577	193,585760	25,345	-0,007806
4,582569	197,013716	25,496	-0,006298
4,585538	199,660423	25,660	-0,005133
4,588565	202,726607	25,813	-0,003784
4,591574	205,733975	25,964	-0,002461
4,594584	208,861195	26,126	-0,001085
4,597597	212,709739	26,296	0,000608
4,600636	214,874822	26,458	0,001561
4,603495	217,160866	26,610	0,002567
4,606542	220,348011	26,762	0,003969
4,609538	223,294345	26,939	0,005266
4,612518	225,880016	27,090	0,006403
4,615574	228,586648	27,251	0,007594
4,618605	232,195490	27,402	0,009182
4,621536	234,720126	27,553	0,010293
4,624516	237,787420	27,704	0,011643
4,627566	240,613903	27,855	0,012886
4,630525	245,184881	28,006	0,014897
4,633539	247,409890	28,158	0,015876
4,636546	249,815785	28,309	0,016935
4,639577	253,002930	28,489	0,018337
4,642523	256,130149	28,641	0,019713
4,645570	258,956632	28,791	0,020957
4,648540	261,663263	28,959	0,022148
4,651563	265,571733	29,109	0,023868
4,654563	268,519176	29,275	0,025165
4,657532	271,284624	29,428	0,026381
4,660561	274,172141	29,580	0,027652
4,663505	276,998624	29,747	0,028896
4,666563	280,365545	29,899	0,030377
4,669533	282,530629	30,057	0,031330
4,672514	286,259322	30,207	0,032970
4,675527	288,785067	30,361	0,034082
4,678564	291,732511	30,528	0,035378
4,681553	294,558993	30,680	0,036622
4,684576	298,166726	30,831	0,038209
4,687561	300,692472	30,998	0,039321
4,690551	303,699840	31,149	0,040644
4,693521	306,646174	31,318	0,041940
4,693483	307,127797	31,469	0,042152
4,693524	307,187722	31,621	0,042179
4,693551	307,368608	31,790	0,042258
4,693528	307,548384	31,942	0,042337
4,693605	307,428533	32,103	0,042285
4,693587	307,127797	32,253	0,042152
4,693564	307,247647	32,404	0,042205
4,693495	307,488459	32,583	0,042311
4,693499	307,428533	32,735	0,042285
4,693536	307,488459	32,902	0,042311
4,693481	307,548384	33,055	0,042337
4,693602	308,390669	33,207	0,042708
4,693514	307,548384	33,372	0,042337
4,693511	307,669345	33,523	0,042391
4,693495	307,308683	33,691	0,042232
4,693549	307,187722	33,841	0,042179
4,693541	307,368608	33,992	0,042258
4,693539	307,187722	34,155	0,042179
4,693577	307,308683	34,307	0,042232
4,693533	307,488459	34,478	0,042311
4,693541	307,669345	34,630	0,042391
4,693527	307,669345	34,781	0,042391
4,693462	307,608310	34,952	0,042364
4,693499	307,006836	35,103	0,042099
4,693502	307,368608	35,254	0,042258
4,693512	307,006836	35,405	0,042099
4,693554	307,247647	35,558	0,042205
4,693457	307,247647	35,727	0,042205
4,693509	307,067871	35,878	0,042126
4,693531	306,946911	36,028	0,042073
4,693563	306,886985	36,191	0,042046
4,693543	306,886985	36,342	0,042046
4,693534	308,030007	36,503	0,042549
4,692509	307,308683	36,655	0,042232
4,689501	303,518954	36,808	0,040564
4,686548	301,174094	36,982	0,039533
4,683527	298,467463	37,132	0,038342
4,680538	294,258256	37,301	0,036490
4,677543	292,332875	37,451	0,035643
4,674496	289,206765	37,605	0,034267
4,671543	286,920721	37,771	0,033261
4,668559	283,914462	37,923	0,031938
4,665530	280,185769	38,087	0,030298
4,662540	276,517001	38,237	0,028684
4,659559	274,532804	38,389	0,027811
4,656513	270,923961	38,557	0,026223
4,653530	267,616966	38,709	0,024768
4,650512	265,270996	38,870	0,023735
4,647544	261,001864	39,023	0,021857
4,644518	258,355158	39,173	0,020692
4,641570	255,408825	39,348	0,019396
4,638556	251,680131	39,500	0,017755
4,635528	248,793723	39,668	0,016485
4,632551	246,868342	39,820	0,015638
4,629575	243,320534	39,972	0,014077
4,626546	240,674938	40,133	0,012913
4,623567	237,908381	40,285	0,011696
4,620571	234,059837	40,437	0,010002
4,617514	230,931507	40,589	0,008626
4,614536	228,646573	40,740	0,007621
4,611561	225,158691	40,909	0,006086
4,608525	222,511985	41,059	0,004921
4,605550	220,107200	41,210	0,003863
4,602547	215,896884	41,380	0,002011
4,599580	213,972612	41,532	0,001164
4,596597	210,725542	41,701	-0,000265
4,593587	207,177734	41,852	-0,001826
4,596549	209,582520	41,990	-0,000768
4,599542	213,010476	42,162	0,000741
4,602594	216,258656	42,313	0,002170
4,605540	217,521529	42,489	0,002726
4,608520	221,730735	42,639	0,004578
4,611542	223,895819	42,790	0,005530
4,614541	226,842152	42,965	0,006827
4,617568	230,510920	43,115	0,008441
4,620543	232,916815	43,266	0,009500
4,623597	236,946245	43,416	0,011272
4,626552	238,870517	43,569	0,012119
4,629515	242,178622	43,727	0,013575
4,632507	245,425692	43,878	0,015003
4,635514	247,831587	44,031	0,016062
4,638558	250,597035	44,212	0,017279
4,641513	254,867276	44,363	0,019158
4,644498	258,054421	44,533	0,020560
4,647593	259,737882	44,685	0,021301
4,650588	263,526500	44,859	0,022968
4,653548	266,954457	45,011	0,024476
4,656543	269,360352	45,172	0,025535
4,659550	274,051181	45,324	0,027599
4,662478	276,096413	45,476	0,028499
4,665554	278,742010	45,627	0,029663
4,668547	282,050115	45,798	0,031118
4,671503	284,876598	45,950	0,032362
4,674474	287,882857	46,121	0,033685
4,677507	291,131037	46,274	0,035114
4,680495	294,859730	46,424	0,036754
4,683518	296,302379	46,591	0,037389
4,686526	300,331809	46,743	0,039162
4,689536	302,436967	46,912	0,040088
4,692542	306,646174	47,064	0,041940
4,695488	308,510520	47,216	0,042761
4,698502	311,457963	47,388	0,044058
4,701553	314,764959	47,540	0,045513
4,704492	318,433727	47,714	0,047127
4,707548	320,298074	47,866	0,047947
4,710541	324,688166	48,019	0,049879
4,713521	327,394798	48,186	0,051070
4,716509	329,559881	48,337	0,052022
4,719534	332,866877	48,493	0,053478
4,722512	335,693359	48,643	0,054721
4,725518	338,700728	48,796	0,056044
4,728515	341,407360	48,963	0,057235
4,731550	344,654430	49,115	0,058664
4,734537	347,300027	49,278	0,059828
4,737522	350,487172	49,429	0,061230
4,740517	354,216974	49,582	0,062872
4,743463	357,223233	49,767	0,064194
4,746536	358,846768	49,920	0,064909
4,749598	362,996049	50,090	0,066734
4,752456	365,461870	50,242	0,067819
4,755547	367,747914	50,394	0,068825
4,758524	371,656383	50,567	0,070545
4,761512	374,723677	50,718	0,071895
4,764552	376,828835	50,888	0,072821
4,767511	380,135831	51,039	0,074276
4,770506	382,721502	51,190	0,075414
4,773537	386,631081	51,367	0,077134
4,776518	388,735130	51,517	0,078060
4,779492	392,343972	51,690	0,079647
4,782507	394,148393	51,840	0,080441
4,785531	397,937012	51,991	0,082108
4,788460	400,763494	52,167	0,083352
4,791514	403,649902	52,319	0,084622
4,794495	406,898082	52,511	0,086051
4,797556	409,844416	52,663	0,087348
4,800489	413,031561	52,813	0,088750
4,803500	414,955833	52,965	0,089597
4,806500	418,504750	53,116	0,091158
4,809466	421,691895	53,269	0,092561
4,812576	424,277566	53,421	0,093698
4,815468	427,104048	53,571	0,094942
4,818500	429,930531	53,736	0,096186
4,821482	433,117676	53,887	0,097588
4,824468	436,005194	54,038	0,098858
4,827485	439,312189	54,208	0,100313
4,830545	442,198597	54,358	0,101583
4,833515	445,446777	54,535	0,103013
4,836509	448,092374	54,687	0,104177
4,839477	451,279519	54,839	0,105579
4,842470	454,406738	55,005	0,106955
4,845521	457,294256	55,155	0,108226
4,848446	460,901989	55,329	0,109813
4,851439	463,307884	55,482	0,110872
4,854442	465,833629	55,632	0,111983
4,857462	469,201660	55,809	0,113465
4,860437	472,207919	55,960	0,114788
4,863518	474,613814	56,137	0,115846
4,866429	477,621183	56,289	0,117169
4,869471	480,386630	56,441	0,118386
4,872493	483,935547	56,621	0,119948
4,875439	487,423429	56,772	0,121482
4,878451	489,889249	56,931	0,122567
4,881482	493,437056	57,084	0,124128
4,884451	496,022727	57,238	0,125266
4,887452	498,789284	57,413	0,126483
4,890422	501,615767	57,565	0,127727
4,893409	504,442250	57,754	0,128971
4,893440	504,742987	57,906	0,129103
4,893422	505,284535	58,082	0,129341
4,893400	505,344460	58,233	0,129368
4,893515	506,126820	58,383	0,129712
4,893475	505,585272	58,561	0,129474
4,893487	505,464311	58,712	0,129420
4,893471	505,344460	58,891	0,129368
4,893436	505,464311	59,042	0,129420
4,893446	505,164684	59,192	0,129289
4,893414	505,224609	59,362	0,129315
4,893502	505,043723	59,513	0,129235
4,893453	505,164684	59,686	0,129289
4,893432	504,983798	59,837	0,129209
4,893476	504,923873	59,989	0,129183
4,893434	505,464311	60,167	0,129420
4,893446	505,344460	60,318	0,129368
4,893466	505,043723	60,489	0,129235
4,893477	505,766158	60,641	0,129553
4,893475	505,464311	60,794	0,129420
4,893486	505,645197	60,970	0,129500
4,893471	505,645197	61,121	0,129500
4,893387	505,164684	61,303	0,129289
4,893395	505,224609	61,454	0,129315
4,893476	505,525346	61,606	0,129447
4,893444	505,344460	61,783	0,129368
4,893439	505,284535	61,933	0,129341
4,893422	505,464311	62,112	0,129420
4,893453	505,404386	62,263	0,129394
4,893460	505,344460	62,414	0,129368
4,893435	505,224609	62,583	0,129315
4,893465	504,804022	62,734	0,129130
4,893437	504,983798	62,914	0,129209
4,893455	505,224609	63,065	0,129315
4,891446	504,382324	63,216	0,128944
4,888426	501,555842	63,392	0,127701
4,885481	498,248846	63,544	0,126246
4,882454	495,060591	63,719	0,124843
4,879479	492,654696	63,871	0,123784
4,876490	489,467551	64,021	0,122382
4,873494	486,762029	64,189	0,121191
4,870466	482,191051	64,341	0,119180
4,867456	480,085893	64,515	0,118254
4,864519	476,778897	64,666	0,116799
4,861412	473,651678	64,819	0,115423
4,858498	471,486594	64,990	0,114470
4,855475	467,517090	65,140	0,112724
4,852418	464,449796	65,306	0,111374
4,849483	461,323686	65,456	0,109999
4,846450	458,736905	65,608	0,108860
4,843466	455,189098	65,790	0,107299
4,840485	453,504528	65,941	0,106558
4,837473	450,017756	66,118	0,105024
4,834463	445,987216	66,268	0,103250
4,831477	442,740146	66,421	0,101822
4,828478	439,973588	66,593	0,100604
4,825489	437,568803	66,743	0,099546
4,822439	434,621360	66,925	0,098250
4,819465	431,675027	67,076	0,096953
4,816468	428,487882	67,226	0,095551
4,813446	426,262873	67,399	0,094572
4,810502	423,255504	67,549	0,093249
4,807537	419,707697	67,717	0,091688
4,804484	417,241877	67,868	0,090603
4,801539	414,114657	68,019	0,089227
4,798403	410,686701	68,191	0,087718
4,795493	408,280806	68,343	0,086660
4,792500	404,251376	68,517	0,084887
4,789562	401,966442	68,669	0,083881
4,786452	398,959073	68,821	0,082558
4,783519	396,313477	69,000	0,081394
4,780499	392,704634	69,154	0,079806
4,777530	389,758301	69,330	0,078510
4,774516	386,210494	69,482	0,076949
4,771486	383,804599	69,632	0,075890
4,768463	381,157892	69,805	0,074726
4,765554	377,910822	69,955	0,073297
4,762466	374,843528	70,118	0,071947
4,759469	371,716309	70,268	0,070571
4,756444	368,769975	70,419	0,069275
4,753454	365,762607	70,593	0,067952
4,750491	362,635387	70,746	0,066576
4,747559	359,087580	70,922	0,065015
4,744504	356,201172	71,073	0,063745
4,745500	356,380948	71,212	0,063824
4,748480	358,666992	71,378	0,064830
4,751447	361,914063	71,530	0,066258
4,754469	364,981357	71,704	0,067608
4,757521	367,507102	71,855	0,068719
4,760438	371,355646	72,005	0,070413
4,763541	373,640581	72,179	0,071418
4,766532	376,588024	72,330	0,072715
4,769457	380,015980	72,506	0,074223
4,772460	382,421875	72,658	0,075282
4,775508	385,609020	72,809	0,076684
4,778503	388,495428	72,989	0,077954
4,781483	392,103161	73,142	0,079542
4,784508	394,628906	73,319	0,080653
4,787452	398,057972	73,470	0,082162
4,790526	400,823420	73,622	0,083378
4,793500	403,409091	73,801	0,084516
4,796478	407,318670	73,951	0,086236
4,798515	409,904341	74,132	0,087374
4,801549	411,708762	74,283	0,088168
4,804493	414,715021	74,435	0,089491
4,807502	417,843350	74,615	0,090867
4,810458	420,608798	74,767	0,092084
4,813508	423,856978	74,948	0,093513
4,816483	426,924272	75,102	0,094863
4,819533	430,351119	75,255	0,096371
4,822547	432,697088	75,420	0,097403
4,825444	436,365856	75,573	0,099017
4,828474	438,590865	75,731	0,099996
4,831482	442,861106	75,881	0,101875
4,834503	445,326926	76,033	0,102960
4,837438	448,393111	76,202	0,104309
4,840447	451,460405	76,354	0,105659
4,843478	454,888361	76,528	0,107167
4,846445	457,294256	76,680	0,108226
4,849502	461,082875	76,831	0,109893
4,852475	463,608620	77,010	0,111004
4,855430	467,156428	77,162	0,112565
4,858499	469,201660	77,347	0,113465
4,861480	472,268954	77,498	0,114814
4,864433	475,516025	77,649	0,116243
4,867456	478,583319	77,803	0,117593
4,870512	482,250977	77,953	0,119207
4,873447	484,837757	78,127	0,120345
4,876456	487,122692	78,278	0,121350
4,879455	490,730424	78,429	0,122938
4,882505	493,677868	78,604	0,124234
4,885458	496,143688	78,755	0,125319
4,888471	499,390758	78,934	0,126748
4,891442	502,037464	79,084	0,127913
4,894464	505,284535	79,237	0,129341
4,897436	508,892267	79,425	0,130929
4,900402	510,937500	79,576	0,131829
4,903453	513,644132	79,763	0,133020
4,906437	517,072088	79,916	0,134528
4,909474	520,138272	80,092	0,135877
4,912474	523,446378	80,243	0,137333
4,915443	526,093084	80,393	0,138497
4,918475	530,182440	80,570	0,140296
4,921427	531,985751	80,721	0,141090
4,924338	536,496804	80,902	0,143075
4,927491	538,060414	81,053	0,143763
4,930430	541,127708	81,204	0,145112
4,933426	544,494629	81,385	0,146594
4,936441	547,621848	81,537	0,147970
4,939454	551,290616	81,719	0,149584
4,942447	552,613414	81,872	0,150166
4,945449	556,222257	82,025	0,151754
4,948436	559,529252	82,219	0,153209
4,951435	561,514560	82,371	0,154083
4,954388	564,520819	82,555	0,155405
4,957435	567,528187	82,706	0,156729
4,960489	571,376731	82,857	0,158422
4,963443	573,301003	83,034	0,159269
4,966433	576,549183	83,185	0,160698
4,969456	580,337802	83,367	0,162365
4,972427	582,381925	83,517	0,163264
4,975441	585,148482	83,667	0,164481
4,978500	589,839311	83,847	0,166545
4,981439	591,462846	83,998	0,167260
4,984454	594,049627	84,171	0,168398
4,987527	598,318759	84,321	0,170276
4,990482	600,724654	84,472	0,171335
4,993402	603,491211	84,643	0,172552
4,996417	607,158869	84,796	0,174166
4,999400	609,985352	84,970	0,175410
5,002424	612,150435	85,121	0,176362
5,005396	615,398615	85,297	0,177792
5,008429	618,946422	85,448	0,179353
5,011449	621,412243	85,598	0,180438
5,014391	624,418501	85,776	0,181760
5,017389	627,425870	85,927	0,183083
5,020397	631,455300	86,104	0,184856
5,023434	633,018910	86,255	0,185544
5,026398	637,108265	86,406	0,187344
5,029402	639,393200	86,585	0,188349
5,032407	643,061967	86,737	0,189963
5,035370	645,167125	86,910	0,190890
5,038409	647,933683	87,061	0,192107
5,041413	651,601341	87,213	0,193721
5,044398	653,887385	87,400	0,194727
5,047351	657,795854	87,552	0,196446
5,050427	660,743297	87,738	0,197743
5,053429	662,968306	87,890	0,198722
5,056426	665,494052	88,042	0,199833
5,059398	668,440385	88,221	0,201130
5,062410	672,770552	88,374	0,203035
5,065407	674,754750	88,547	0,203908
5,068432	678,363592	88,699	0,205496
5,071363	680,528675	88,851	0,206449
5,074385	684,257369	89,033	0,208089
5,077372	687,143777	89,187	0,209359
5,080357	689,187900	89,364	0,210259
5,083451	692,376154	89,515	0,211662
5,086395	695,081676	89,668	0,212852
5,089438	698,810369	89,843	0,214493
5,092392	702,178400	89,997	0,215975
5,093327	703,801935	90,164	0,216689
5,093403	702,779874	90,315	0,216239
5,093435	703,321422	90,495	0,216478
5,093401	702,839799	90,645	0,216266
5,093351	702,719949	90,799	0,216213
5,093425	703,200462	90,974	0,216424
5,093401	703,200462	91,124	0,216424
5,093403	703,561124	91,276	0,216583
5,093389	703,381348	91,449	0,216504
5,093343	703,020685	91,601	0,216345
5,093379	703,321422	91,778	0,216478
5,093417	702,539062	91,930	0,216133
5,093428	703,080611	92,097	0,216372
5,093378	703,080611	92,248	0,216372
5,093347	702,779874	92,399	0,216239
5,093382	702,899725	92,572	0,216292
5,093411	703,441273	92,722	0,216530
5,093389	702,779874	92,873	0,216239
5,093310	703,140536	93,052	0,216398
5,093389	702,539062	93,202	0,216133
5,093410	702,839799	93,378	0,216266
5,093430	702,419212	93,528	0,216081
5,093398	702,238326	93,702	0,216001
5,093413	702,944114	93,852	0,216312
5,093378	703,200462	94,002	0,216424
5,093369	702,719949	94,183	0,216213
5,093442	702,839799	94,335	0,216266
5,093388	703,080611	94,511	0,216372
5,093435	703,261497	94,662	0,216451
5,093373	702,899725	94,814	0,216292
5,093396	702,479137	94,987	0,216107
5,093420	703,261497	95,138	0,216451
5,093377	702,660023	95,322	0,216187
5,091391	702,479137	95,472	0,216107
5,088448	699,051181	95,623	0,214599
5,085414	696,465510	95,788	0,213461
5,082356	693,398216	95,939	0,212111
5,079372	689,789373	96,124	0,210523
5,076513	686,663263	96,278	0,209148
5,073431	684,136408	96,428	0,208036
5,070411	680,648526	96,603	0,206501
5,067452	677,521307	96,755	0,205125
5,064412	674,455123	96,936	0,203776
5,061380	671,266868	97,086	0,202374
5,058422	668,802157	97,240	0,201289
5,055387	664,952504	97,421	0,199595
5,052419	663,208008	97,572	0,198828
5,049381	659,540350	97,753	0,197214
5,046375	656,413130	97,905	0,195838
5,043427	653,345836	98,056	0,194488
5,040410	650,098766	98,236	0,193060
5,037414	647,752797	98,387	0,192027
5,034345	643,844327	98,565	0,190308
5,031458	641,197621	98,717	0,189143
5,028467	638,251287	98,867	0,187847
5,025424	635,725542	99,040	0,186735
5,022344	631,996848	99,193	0,185095
5,019461	629,471103	99,374	0,183983
5,016487	626,644620	99,525	0,182740
5,013493	623,035778	99,675	0,181152
5,010485	619,908558	99,849	0,179776
5,007451	617,382812	100,002	0,178665
5,004415	614,616255	100,166	0,177447
5,001400	611,729847	100,318	0,176177
4,998485	608,241966	100,468	0,174643
4,995416	605,355558	100,648	0,173373
4,992443	601,866566	100,799	0,171837
4,989448	599,822443	100,986	0,170938
4,986450	596,093750	101,138	0,169297
4,983423	592,725719	101,312	0,167815
4,980501	590,380859	101,463	0,166784
4,977408	587,012828	101,615	0,165302
4,974450	583,945534	101,783	0,163952
4,971468	580,938166	101,935	0,162629
4,968447	578,052868	102,087	0,161359
4,965453	574,624911	102,263	0,159851
4,962436	571,918279	102,415	0,158660
4,959393	569,452459	102,572	0,157575
4,956468	566,144354	102,723	0,156120
4,953461	563,077060	102,875	0,154770
4,950449	560,371538	103,058	0,153580
4,947420	556,883656	103,208	0,152045
4,944479	553,876287	103,389	0,150722
4,941451	550,569292	103,540	0,149267
4,938423	547,501998	103,724	0,147917
4,935456	544,193892	103,877	0,146461
4,932444	541,787997	104,029	0,145403
4,929401	538,781738	104,210	0,144080
4,926454	535,413707	104,362	0,142598
4,923438	533,008922	104,527	0,141540
4,920422	529,580966	104,679	0,140032
4,917478	527,294922	104,831	0,139026
4,914473	523,747115	105,010	0,137465
4,911540	520,440119	105,161	0,136010
4,908570	517,492676	105,344	0,134713
4,905470	513,944869	105,495	0,133152
4,902431	511,598899	105,648	0,132120
4,899426	508,531605	105,830	0,130770
4,896436	505,224609	105,981	0,129315
4,893475	502,517978	106,165	0,128124
4,895482	502,398127	106,302	0,128071
4,898475	505,103649	106,454	0,129262
4,901454	508,531605	106,643	0,130770
4,904435	511,598899	106,794	0,132120
4,907497	514,966930	106,973	0,133602
4,910488	517,492676	107,125	0,134713
4,913470	520,379084	107,279	0,135983
4,916476	523,025790	107,456	0,137147
4,919420	526,573597	107,608	0,138708
4,922464	529,820668	107,790	0,140137
4,925482	532,587225	107,940	0,141354
4,928431	536,015181	108,091	0,142863
4,931445	538,600852	108,249	0,144000
4,934477	541,729181	108,400	0,145377
4,937367	544,193892	108,576	0,146461
4,940438	548,163397	108,727	0,148208
4,943456	551,230691	108,878	0,149558
4,946447	554,117099	109,075	0,150828
4,949463	557,063432	109,227	0,152124
4,952494	560,431463	109,405	0,153606
4,955459	563,257946	109,557	0,154850
4,958464	566,205389	109,740	0,156146
4,961407	568,910911	109,893	0,157337
4,964422	571,617543	110,043	0,158528
4,967509	574,444025	110,227	0,159771
4,970454	577,330433	110,378	0,161042
4,973415	580,999201	110,555	0,162656
4,976442	583,825684	110,707	0,163899
4,979391	586,652166	110,858	0,165143
4,982457	590,560636	111,042	0,166863
4,985435	592,665794	111,193	0,167789
4,988426	595,673162	111,370	0,169112
4,991390	598,920233	111,522	0,170541
4,994433	601,987527	111,675	0,171891
4,997425	604,933860	111,864	0,173187
5,000440	607,760343	112,015	0,174431
5,003447	610,948597	112,195	0,175833
5,006379	614,074707	112,345	0,177209
5,009487	616,962225	112,529	0,178479
5,012408	619,727672	112,680	0,179696
5,015448	623,155629	112,832	0,181205
5,018444	626,282848	113,016	0,182581
5,021402	629,230291	113,167	0,183877
5,024384	631,876998	113,349	0,185042
5,027410	635,003107	113,500	0,186417
5,030432	638,010476	113,651	0,187741
5,033461	640,896884	113,839	0,189011
5,036403	643,783292	113,989	0,190281
5,039345	646,910511	114,172	0,191657
5,042403	651,060902	114,323	0,193483
5,045384	653,465687	114,475	0,194541
5,048395	655,992543	114,656	0,195653
5,051376	659,058727	114,809	0,197002
5,054376	662,245872	114,988	0,198404
5,057323	665,373091	115,140	0,199780
5,060406	668,019798	115,326	0,200945
5,063429	671,266868	115,477	0,202374
5,066418	674,153276	115,629	0,203644
5,069398	677,521307	115,813	0,205125
5,072360	680,648526	115,966	0,206501
5,075394	682,934570	116,147	0,207507
5,078403	686,121715	116,298	0,208910
5,081358	689,008123	116,448	0,210180
5,084431	691,774680	116,638	0,211397
5,087360	695,503374	116,793	0,213038
5,090377	698,630593	116,982	0,214414
5,093401	701,216264	117,132	0,215551
5,096380	704,524370	117,283	0,217007
5,099348	707,650479	117,463	0,218382
5,102398	710,657848	117,614	0,219706
5,105392	713,544256	117,798	0,220976
5,108406	716,792436	117,949	0,222405
5,111376	719,137296	118,131	0,223437
5,114373	722,625178	118,281	0,224971
5,117328	724,971147	118,431	0,226003
5,120368	728,279252	118,615	0,227459
5,123358	731,285511	118,767	0,228782
5,126382	734,690163	118,944	0,230280
5,129334	737,599876	119,094	0,231560
5,132396	740,486284	119,247	0,232830
5,135419	743,012029	119,423	0,233941
5,138386	745,838512	119,575	0,235185
5,141303	748,785955	119,759	0,236482
5,144371	751,732289	119,911	0,237778
5,147342	755,520907	120,062	0,239445
5,150360	758,287464	120,242	0,240663
5,153308	761,354759	120,395	0,242012
5,156337	764,001465	120,576	0,243177
5,159331	766,286399	120,728	0,244182
5,162396	769,834206	120,880	0,245743
5,165359	773,202237	121,065	0,247225
5,168343	775,367321	121,216	0,248178
5,171327	779,096014	121,397	0,249818
5,174349	781,380948	121,548	0,250824
5,177358	784,868830	121,734	0,252358
5,180342	787,575462	121,884	0,253549
5,183377	790,762607	122,036	0,254952
5,186318	793,589089	122,217	0,256195
5,189417	796,415572	122,367	0,257439
5,192363	799,242054	122,548	0,258683
5,195327	802,309348	122,700	0,260032
5,198395	805,496493	122,850	0,261435
5,201292	808,623713	123,043	0,262811
5,204366	810,848722	123,194	0,263790
5,207371	814,276678	123,366	0,265298
5,210281	817,644709	123,519	0,266780
5,213290	820,351341	123,670	0,267971
5,216358	824,199885	123,847	0,269664
5,219320	826,424893	123,999	0,270643
5,222345	829,371227	124,168	0,271939
5,225343	832,378596	124,320	0,273263
5,228343	835,806552	124,471	0,274771
5,231333	838,212447	124,629	0,275830
5,234341	841,640403	124,781	0,277338
5,237385	844,827548	124,945	0,278740
5,240296	847,293368	125,096	0,279825
5,243321	850,841175	125,247	0,281386
5,246372	853,126110	125,421	0,282392
5,249348	856,253329	125,572	0,283768
5,252357	858,959961	125,749	0,284958
5,255372	862,207031	125,902	0,286387
5,258336	865,334251	126,052	0,287763
5,261295	867,740146	126,227	0,288822
5,264286	871,047141	126,377	0,290277
5,267296	874,536133	126,553	0,291812
5,270332	876,880993	126,703	0,292844
5,273303	880,249023	126,853	0,294326
5,276275	883,316317	127,029	0,295675
5,279289	885,721103	127,180	0,296733
5,282307	889,630682	127,340	0,298454
5,285334	892,397239	127,490	0,299671
5,288349	894,200550	127,642	0,300464
5,291299	897,929244	127,816	0,302105
5,293283	900,815652	127,969	0,303375
5,293375	901,177424	128,170	0,303534
5,293302	901,177424	128,322	0,303534
5,293287	900,695801	128,474	0,303322
5,293347	900,516025	128,652	0,303243
5,293341	901,177424	128,803	0,303534
5,293385	900,876687	128,982	0,303402
5,293309	900,936612	129,133	0,303428
5,293324	900,755726	129,283	0,303349
5,293295	900,936612	129,451	0,303428
5,293365	900,695801	129,602	0,303322
5,293366	900,936612	129,779	0,303428
5,293330	900,876687	129,931	0,303402
5,293278	900,876687	130,082	0,303402
5,293383	900,755726	130,260	0,303349
5,293291	900,815652	130,411	0,303375
5,293320	900,876687	130,597	0,303402
5,293319	901,297275	130,749	0,303587
5,293363	901,237349	130,899	0,303561
5,293293	900,996538	131,079	0,303455
5,293294	901,056463	131,231	0,303481
5,293345	901,237349	131,410	0,303561
5,293305	901,117498	131,564	0,303508
5,293336	900,936612	131,735	0,303428
5,293238	900,395064	131,886	0,303190
5,293284	901,056463	132,038	0,303481
5,293304	900,755726	132,224	0,303349
5,293331	900,635875	132,377	0,303296
5,293291	900,335138	132,556	0,303164
5,293268	900,936612	132,709	0,303428
5,293299	900,575950	132,862	0,303270
5,293340	900,755726	133,039	0,303349
5,293337	900,936612	133,190	0,303428
5,293360	900,936612	133,372	0,303428
5,290302	898,711603	133,522	0,302449
5,287327	895,885121	133,674	0,301206
5,284303	892,156428	133,855	0,299565
5,281364	888,186923	134,005	0,297818
5,278353	886,142800	134,173	0,296919
5,275339	882,714844	134,324	0,295411
5,272309	880,008212	134,475	0,294220
5,269301	876,641291	134,660	0,292738
5,266335	873,512962	134,811	0,291362
5,263325	870,807440	134,988	0,290171
5,260275	867,620295	135,142	0,288769
5,257365	864,672852	135,293	0,287472
5,254341	862,147106	135,472	0,286361
5,251334	858,358487	135,625	0,284694
5,248348	856,373180	135,810	0,283820
5,245358	852,104048	135,961	0,281942
5,242321	850,781250	136,113	0,281360
5,239359	847,172408	136,289	0,279772
5,236356	844,646662	136,442	0,278661
5,233333	840,557306	136,616	0,276861
5,230297	838,091486	136,767	0,275776
5,227292	835,145153	136,949	0,274480
5,224296	831,717196	137,101	0,272972
5,221319	828,469016	137,253	0,271542
5,218351	826,966442	137,417	0,270881
5,215314	822,154652	137,570	0,268764
5,212362	819,027433	137,750	0,267388
5,209300	816,923384	137,903	0,266462
5,206329	813,374467	138,054	0,264901
5,203328	810,728871	138,241	0,263737
5,200356	807,360840	138,393	0,262255
5,197407	805,014870	138,573	0,261223
5,194350	801,046475	138,725	0,259477
5,191364	798,580655	138,878	0,258392
5,188336	795,994984	139,059	0,257254
5,185401	792,927690	139,212	0,255904
5,182352	789,981357	139,392	0,254608
5,179303	787,153764	139,543	0,253364
5,176323	783,365146	139,694	0,251697
5,173358	779,697488	139,878	0,250083
5,170391	776,809970	140,029	0,248812
5,167373	773,382013	140,206	0,247304
5,164355	771,037154	140,360	0,246272
5,161364	767,850009	140,543	0,244870
5,158376	765,504039	140,696	0,243838
5,155391	763,099254	140,850	0,242780
5,152383	758,769087	141,028	0,240875
5,149406	757,085627	141,179	0,240134
5,146316	753,837447	141,363	0,238705
5,143355	750,108754	141,513	0,237064
5,140390	747,702859	141,665	0,236005
5,137422	744,276012	141,847	0,234498
5,134341	740,547319	142,000	0,232857
5,131330	738,562012	142,184	0,231983
5,128371	734,653542	142,339	0,230264
5,125353	732,548384	142,490	0,229337
5,122379	730,142489	142,676	0,228279
5,119351	726,473722	142,830	0,226665
5,116353	723,647239	143,010	0,225421
5,113401	719,017445	143,162	0,223384
5,110366	717,393910	143,314	0,222669
5,107370	714,326616	143,491	0,221320
5,104427	711,800870	143,642	0,220208
5,101347	707,410778	143,825	0,218277
5,098426	705,786133	143,977	0,217562
5,095403	701,937589	144,160	0,215869
5,092368	698,509632	144,311	0,214360
5,089380	696,405584	144,463	0,213435
5,086429	693,097479	144,633	0,211979
5,083383	689,850408	144,785	0,210550
5,080362	687,143777	144,969	0,209359
5,077387	684,317294	145,123	0,208116
5,074378	681,370961	145,273	0,206819
5,071415	678,363592	145,448	0,205496
5,068385	675,356223	145,601	0,204173
5,065374	671,808416	145,777	0,202612
5,062382	668,500311	145,928	0,201156
5,059323	665,975675	146,081	0,200045
5,056395	662,787420	146,273	0,198643
5,053385	660,141824	146,423	0,197479
5,050355	656,833718	146,608	0,196023
5,047437	653,345836	146,759	0,194488
5,044415	650,939941	146,942	0,193430
5,041451	648,774858	147,094	0,192477
5,038444	644,745428	147,246	0,190704
5,035404	642,039906	147,420	0,189514
5,032400	638,190252	147,573	0,187820
5,029412	635,003107	147,754	0,186417
5,026329	632,598322	147,907	0,185359
5,023468	630,071467	148,060	0,184248
5,020402	626,584695	148,234	0,182713
5,017417	624,118874	148,386	0,181628
5,014475	620,870694	148,564	0,180199
5,011414	617,203036	148,715	0,178585
5,008402	614,616255	148,866	0,177447
5,005394	611,789773	149,051	0,176204
5,002380	608,542702	149,205	0,174775
4,999410	605,595259	149,390	0,173478
4,996424	602,107377	149,541	0,171943
4,993374	599,040083	149,692	0,170594
4,990414	595,733088	149,873	0,169139
4,987426	593,747781	150,023	0,168265
4,984371	590,440785	150,202	0,166810
4,981417	588,036000	150,352	0,165752
4,978406	584,667969	150,503	0,164270
4,975421	582,142223	150,682	0,163159
4,972368	578,953968	150,832	0,161756
4,969402	575,587047	151,008	0,160274
4,966439	572,278942	151,159	0,158819
4,963509	568,850985	151,312	0,157311
4,960424	567,287376	151,499	0,156623
4,957471	562,897283	151,650	0,154691
4,954390	559,829989	151,838	0,153341
4,951439	558,206454	151,988	0,152627
4,948435	555,139160	152,169	0,151277
4,945492	552,312678	152,321	0,150034
4,942432	547,862660	152,473	0,148076
4,939434	545,878462	152,664	0,147203
4,936484	541,367409	152,816	0,145218
4,933403	538,600852	152,995	0,144000
4,930477	536,135032	153,147	0,142916
4,927402	533,610396	153,298	0,141805
4,924467	529,820668	153,474	0,140137
4,921451	527,716619	153,625	0,139211
4,918466	524,047852	153,806	0,137597
4,915468	521,462180	153,956	0,136459
4,912442	518,514737	154,107	0,135163
4,909471	514,546342	154,290	0,133417
4,906461	512,801847	154,442	0,132649
4,903458	510,035289	154,627	0,131432
4,900467	506,246671	154,780	0,129765
4,897447	503,540039	154,961	0,128574
4,894455	500,052157	155,115	0,127039
4,891461	496,865012	155,268	0,125637
4,888394	494,339267	155,459	0,124525
4,885414	491,331898	155,612	0,123202
4,882424	488,024902	155,790	0,121747
4,879434	485,739968	155,941	0,120742
4,876475	482,191051	156,095	0,119180
4,873392	479,424494	156,275	0,117963
4,870474	476,297275	156,428	0,116587
4,867454	472,869318	156,619	0,115079
4,864438	470,163796	156,770	0,113888
4,861466	467,457164	156,922	0,112697
4,858469	463,608620	157,102	0,111004
4,855464	461,443537	157,255	0,110051
4,852445	458,617054	157,446	0,108808
4,849495	454,527699	157,598	0,107008
4,846489	453,083940	157,773	0,106373
4,843482	449,536133	157,925	0,104812
4,840490	446,468839	158,077	0,103462
4,837496	443,702282	158,264	0,102245
4,834486	440,395286	158,418	0,100790
4,831450	437,688654	158,602	0,099599
4,828481	434,079812	158,754	0,098011
4,825496	431,253329	158,906	0,096768
4,822461	428,908469	159,077	0,095736
4,819522	426,262873	159,228	0,094572
4,816484	421,631969	159,413	0,092534
4,813445	419,887473	159,563	0,091767
4,810539	416,579368	159,713	0,090311
4,807482	413,752885	159,892	0,089067
4,804499	410,806552	160,044	0,087771
4,801435	406,476385	160,227	0,085866
4,798431	404,612038	160,378	0,085045
4,795553	402,026367	160,529	0,083908
4,792517	399,259810	160,703	0,082690
4,789534	395,831854	160,854	0,081182
4,786440	392,403897	161,033	0,079674
4,783505	390,238814	161,185	0,078721
4,780526	386,330344	161,370	0,077001
4,777520	383,322976	161,522	0,075678
4,774510	380,075906	161,673	0,074250
4,771523	377,731046	161,853	0,073218
4,768422	374,843528	162,005	0,071947
4,765499	371,897195	162,187	0,070651
4,762547	368,409313	162,339	0,069116
4,759516	365,822532	162,490	0,067978
4,756516	362,816273	162,683	0,066655
4,753571	359,808904	162,835	0,065332
4,750498	357,223233	163,016	0,064194
4,747508	353,976163	163,167	0,062766
4,744502	351,329457	163,319	0,061601
4,741584	348,082386	163,503	0,060172
4,738502	344,714355	163,655	0,058690
4,735488	341,768022	163,834	0,057394
4,732524	339,782715	163,986	0,056521
4,729534	335,633434	164,166	0,054695
4,726573	332,806951	164,317	0,053451
4,723578	330,040394	164,468	0,052234
4,720492	327,094061	164,654	0,050938
4,717567	324,086692	164,805	0,049614
4,714533	321,320135	164,997	0,048397
4,711533	317,471591	165,149	0,046704
4,708509	315,306507	165,303	0,045751
4,705564	311,938477	165,480	0,044269
4,702464	308,992143	165,631	0,042973
4,699517	307,067871	165,808	0,042126
4,696491	303,399103	165,959	0,040512
4,693497	300,873358	166,111	0,039400
4,690524	297,264515	166,295	0,037812
4,687537	294,378107	166,449	0,036542
4,684492	292,093173	166,636	0,035537
4,681537	289,085804	166,787	0,034214
4,678510	285,417037	166,962	0,032600
4,675529	283,072177	167,113	0,031568
4,672541	280,185769	167,265	0,030298
4,669516	276,998624	167,443	0,028896
4,666553	274,712580	167,594	0,027890
4,663533	271,345659	167,785	0,026408
4,660551	267,917702	167,937	0,024900
4,657490	265,211071	168,087	0,023709
4,654558	261,843040	168,274	0,022227
4,651529	258,776855	168,425	0,020878
4,648512	256,610662	168,611	0,019925
4,645554	252,220570	168,763	0,017993
4,642553	250,597035	168,914	0,017279
4,639516	248,312100	169,076	0,016273
4,636490	244,162820	169,229	0,014448
4,633573	241,336337	169,421	0,013204
4,630528	238,209118	169,573	0,011828
4,627571	235,261674	169,724	0,010531
4,624558	232,134455	169,888	0,009155
4,621511	229,668635	170,041	0,008070
4,618522	226,722301	170,227	0,006774
4,615505	224,256481	170,377	0,005689
4,612544	221,069336	170,528	0,004287
4,609534	217,761230	170,712	0,002831
4,606535	215,896884	170,868	0,002011
4,603544	212,289151	171,058	0,000423
4,600597	209,943182	171,209	-0,000609
4,597581	206,275524	171,402	-0,002223
4,594587	203,688743	171,554	-0,003361
4,591544	200,321822	171,705	-0,004842
4,588565	197,975852	171,896	-0,005875
4,585554	194,848633	172,047	-0,007250
4,582563	192,623624	172,220	-0,008229
4,579578	189,797141	172,371	-0,009473
4,576531	187,572132	172,524	-0,010452
4,573586	183,903365	172,706	-0,012066
4,570538	180,837180	172,857	-0,013416
4,567537	178,611062	173,036	-0,014395
4,564544	174,943404	173,187	-0,016009
4,561583	172,055886	173,338	-0,017279
4,558563	169,229403	173,522	-0,018523
4,555530	165,561745	173,673	-0,020137
4,552567	163,877175	173,863	-0,020878
4,549496	160,809881	174,013	-0,022228
4,546524	157,983398	174,178	-0,023471
4,543562	154,796254	174,330	-0,024874
4,540580	151,969771	174,483	-0,026117
4,537554	149,023437	174,668	-0,027414
4,534559	146,075994	174,820	-0,028710
4,531534	142,588113	174,997	-0,030245
4,528505	140,243253	175,150	-0,031277
4,525581	137,356845	175,302	-0,032547
4,522589	134,530362	175,490	-0,033791
4,519612	132,003507	175,643	-0,034902
4,516621	128,575550	175,825	-0,036411
4,513524	125,810103	175,976	-0,037627
4,510533	122,321112	176,131	-0,039163
4,507631	119,675515	176,319	-0,040327
4,504550	117,450506	176,472	-0,041306
4,501605	114,022550	176,659	-0,042814
4,498606	111,196067	176,810	-0,044058
4,495621	108,248624	176,997	-0,045354
4,492554	105,061479	177,149	-0,046757
4,489568	101,633523	177,302	-0,048265
4,486561	99,288663	177,483	-0,049297
4,483528	97,003729	177,635	-0,050302
4,480587	93,394886	177,822	-0,051890
4,477516	90,207741	177,974	-0,053292
4,474555	87,741921	178,126	-0,054377
4,471580	84,434925	178,307	-0,055833
4,468605	81,547408	178,458	-0,057103
4,465607	78,901811	178,641	-0,058267
4,462599	75,954368	178,793	-0,059564
4,459586	73,248846	178,984	-0,060754
4,456625	70,061701	179,136	-0,062157
4,453656	67,414995	179,288	-0,063321
4,450645	63,987038	179,467	-0,064830
4,447563	61,040705	179,619	-0,066126
4,444604	58,815696	179,798	-0,067105
4,441563	55,989213	179,952	-0,068349
4,438547	52,019709	180,104	-0,070095
4,435557	49,974476	180,293	-0,070995
4,432568	47,569691	180,445	-0,072053
4,429627	44,201660	180,638	-0,073535
4,426550	40,532892	180,789	-0,075149
4,423613	37,766335	180,942	-0,076367
4,420529	36,263761	181,114	-0,077028
4,417620	31,151234	181,266	-0,079277
4,414612	28,384677	181,452	-0,080495
4,411609	26,159668	181,604	-0,081474
4,408600	22,251199	181,790	-0,083193
4,405623	19,965154	181,941	-0,084199
4,402637	16,839045	182,092	-0,085575
4,399593	14,192338	182,277	-0,086739
4,396588	11,065119	182,428	-0,088115
4,393618	7,818049	182,618	-0,089544
4,390666	5,893777	182,770	-0,090391
4,387592	3,127219	182,920	-0,091608
4,384594	0,179776	183,104	-0,092905
4,381585	-3,608842	183,256	-0,094572
4,378546	-5,352228	183,439	-0,095339
4,375605	-0,300737	183,590	-0,093116
4,372609	-0,782360	183,759	-0,093328
4,369549	-0,541548	183,911	-0,093222
4,366573	-1,202947	184,064	-0,093513
4,363628	-1,022061	184,259	-0,093434
4,360617	-0,722434	184,412	-0,093302
4,357588	-0,842285	184,603	-0,093354
4,354604	-0,601474	184,756	-0,093249
4,351663	-1,323908	184,907	-0,093566
4,348659	-0,782360	185,100	-0,093328
4,345646	-0,541548	185,252	-0,093222
4,342609	-0,601474	185,439	-0,093249
4,339616	-0,601474	185,590	-0,093249
4,336614	-0,541548	185,741	-0,093222
4,333630	-0,601474	185,927	-0,093249
4,330661	-0,963246	186,077	-0,093408
4,327591	-0,782360	186,259	-0,093328
4,324652	-0,601474	186,412	-0,093249
4,321578	-0,601474	186,599	-0,093249
4,318590	-0,361772	186,750	-0,093143
4,315637	-0,722434	186,903	-0,093302
4,312580	-0,661399	187,087	-0,093275
4,309636	-0,240811	187,241	-0,093090
4,306672	-0,240811	187,417	-0,093090
4,303623	-0,481623	187,568	-0,093196
4,300609	-0,902211	187,719	-0,093381
4,297610	-0,361772	187,907	-0,093143
4,294596	-0,541548	188,058	-0,093222
4,293637	-0,361772	188,109	-0,093143