File: Nanoindentation Datenauswertung/data/partial unload on sapphire-3,50ms
Quasi static measurement routine
Tip parameters (shape,radius, material...)
28.06.2022

Piezo position[nm]	MEMS displ.[nm]	Time[ms]	Cap [pf]
eoh
4,293621	0,000000	0,020	-0,093222
4,296663	0,300737	0,140	-0,093090
4,299615	0,601474	0,290	-0,092958
4,302599	-0,119851	0,440	-0,093275
4,305675	-0,240811	0,591	-0,093328
4,308608	0,000000	0,742	-0,093222
4,311602	0,059925	0,892	-0,093196
4,314596	-0,360662	1,042	-0,093381
4,317594	0,661399	1,192	-0,092931
4,320634	-0,059925	1,343	-0,093249
4,323644	-0,661399	1,494	-0,093513
4,326662	-0,240811	1,644	-0,093328
4,329594	-0,842285	1,795	-0,093593
4,332553	-0,240811	1,945	-0,093328
4,335619	-0,119851	2,095	-0,093275
4,338618	-0,059925	2,246	-0,093249
4,341629	0,000000	2,396	-0,093222
4,344649	0,119851	2,548	-0,093169
4,347547	0,300737	2,698	-0,093090
4,350563	0,360662	2,848	-0,093063
4,353598	-0,721325	2,998	-0,093540
4,356628	-0,119851	3,149	-0,093275
4,359582	-0,119851	3,299	-0,093275
4,362589	-0,180886	3,450	-0,093302
4,365604	-0,300737	3,600	-0,093354
4,368568	-0,119851	3,751	-0,093275
4,371576	-0,240811	3,902	-0,093328
4,374600	-0,059925	4,053	-0,093249
4,377617	0,179776	4,205	-0,093143
4,380590	-0,480513	4,356	-0,093434
4,383610	0,000000	4,507	-0,093222
4,386612	0,179776	4,657	-0,093143
4,389624	2,946333	4,807	-0,091926
4,392607	6,073553	4,957	-0,090550
4,395604	8,780185	5,107	-0,089359
4,398605	12,148216	5,258	-0,087877
4,401604	15,094549	5,409	-0,086581
4,404603	17,680220	5,559	-0,085443
4,407605	20,747514	5,709	-0,084093
4,410614	23,333185	5,859	-0,082956
4,413547	26,822177	6,009	-0,081420
4,416610	30,310059	6,160	-0,079886
4,419614	33,016690	6,310	-0,078695
4,422616	35,120739	6,460	-0,077769
4,425539	38,188033	6,610	-0,076419
4,428540	39,691717	6,760	-0,075758
4,431574	44,382546	6,910	-0,073694
4,434546	47,088068	7,060	-0,072503
4,437559	50,276323	7,211	-0,071101
4,440584	53,704279	7,361	-0,069592
4,443558	56,170099	7,511	-0,068507
4,446634	59,417170	7,661	-0,067079
4,449548	62,062766	7,812	-0,065915
4,452573	65,130060	7,963	-0,064565
4,455567	68,257280	8,113	-0,063189
4,458572	71,565385	8,263	-0,061733
4,461583	75,053267	8,414	-0,060199
4,464556	77,278276	8,566	-0,059220
4,467582	80,104759	8,717	-0,057976
4,470541	83,833452	8,867	-0,056335
4,473593	85,877575	9,018	-0,055436
4,476581	89,365456	9,168	-0,053901
4,479557	92,072088	9,319	-0,052710
4,482574	94,959606	9,470	-0,051440
4,485597	98,085716	9,620	-0,050064
4,488571	101,573597	9,770	-0,048530
4,491583	104,701926	9,921	-0,047153
4,493570	107,166637	10,071	-0,046069
4,493572	106,865900	10,222	-0,046201
4,493581	107,046786	10,374	-0,046122
4,493569	107,528409	10,524	-0,045910
4,493572	107,648260	10,674	-0,045857
4,493610	107,467374	10,824	-0,045937
4,493576	107,166637	10,974	-0,046069
4,493577	106,926935	11,125	-0,046174
4,493558	106,686124	11,275	-0,046280
4,493513	106,926935	11,426	-0,046174
4,493555	107,106712	11,576	-0,046095
4,493556	106,746049	11,727	-0,046254
4,493565	107,046786	11,878	-0,046122
4,493617	106,265536	12,030	-0,046465
4,493535	106,565163	12,180	-0,046333
4,493568	107,046786	12,331	-0,046122
4,493575	106,565163	12,482	-0,046333
4,493595	106,565163	12,632	-0,046333
4,493572	106,325462	12,782	-0,046439
4,493570	106,865900	12,932	-0,046201
4,493531	106,746049	13,083	-0,046254
4,493608	106,565163	13,234	-0,046333
4,493617	106,986861	13,385	-0,046148
4,493606	106,865900	13,536	-0,046201
4,493584	106,805975	13,687	-0,046228
4,493557	106,505238	13,837	-0,046360
4,493613	106,865900	13,988	-0,046201
4,493589	106,986861	14,139	-0,046148
4,493532	106,565163	14,289	-0,046333
4,493585	106,926935	14,439	-0,046174
4,493554	107,648260	14,589	-0,045857
4,493632	106,686124	14,739	-0,046280
4,493575	106,746049	14,890	-0,046254
4,493600	106,926935	15,040	-0,046174
4,490533	104,881703	15,191	-0,047074
4,487521	101,935369	15,343	-0,048371
4,484529	99,168812	15,494	-0,049588
4,481522	95,860707	15,645	-0,051043
4,478568	92,914373	15,795	-0,052340
4,475548	89,966930	15,947	-0,053637
4,472583	86,659934	16,099	-0,055092
4,469584	84,013228	16,252	-0,056256
4,466534	80,826083	16,404	-0,057659
4,463575	77,879750	16,554	-0,058955
4,460607	75,292969	16,704	-0,060093
4,457564	71,565385	16,855	-0,061733
4,454548	68,798828	17,005	-0,062951
4,451581	65,972346	17,156	-0,064194
4,448568	62,484464	17,306	-0,065729
4,445587	60,379306	17,457	-0,066655
4,443549	56,650613	17,608	-0,068296
4,446645	59,116433	17,720	-0,067211
4,449569	61,702104	17,870	-0,066073
4,452539	64,949174	18,020	-0,064645
4,455596	67,414995	18,171	-0,063560
4,458508	71,023837	18,322	-0,061972
4,461515	74,210982	18,474	-0,060569
4,464558	76,857688	18,625	-0,059405
4,467553	79,923873	18,776	-0,058056
4,470559	82,750355	18,926	-0,056812
4,473593	85,877575	19,076	-0,055436
4,476472	88,884943	19,228	-0,054113
4,479582	92,072088	19,378	-0,052710
4,482610	94,477983	19,529	-0,051652
4,485508	97,786088	19,680	-0,050196
4,488598	100,371760	19,830	-0,049059
4,491600	103,618830	19,982	-0,047630
4,494610	106,385387	20,132	-0,046413
4,497560	109,933194	20,283	-0,044852
4,500567	113,421076	20,434	-0,043317
4,503585	115,406383	20,584	-0,042443
4,506593	118,834339	20,734	-0,040935
4,509586	122,141335	20,885	-0,039480
4,512599	123,824796	21,036	-0,038739
4,515525	127,192827	21,186	-0,037257
4,518555	130,801669	21,337	-0,035669
4,521571	132,845792	21,487	-0,034770
4,524572	135,793235	21,639	-0,033473
4,527536	138,920455	21,789	-0,032097
4,530570	142,047674	21,939	-0,030721
4,533543	144,091797	22,090	-0,029822
4,536549	147,820490	22,241	-0,028181
4,539559	150,767933	22,392	-0,026884
4,542539	153,714267	22,542	-0,025588
4,545553	156,359863	22,692	-0,024424
4,548577	160,148482	22,842	-0,022757
4,551540	163,336737	22,992	-0,021354
4,554610	166,223145	23,142	-0,020084
4,557504	168,868741	23,292	-0,018920
4,560568	171,995961	23,443	-0,017544
4,563544	175,604803	23,594	-0,015956
4,566517	178,611062	23,744	-0,014633
4,569483	181,558505	23,895	-0,013336
4,572513	184,325062	24,045	-0,012119
4,575591	187,392356	24,195	-0,010770
4,578540	190,940163	24,346	-0,009208
4,581547	192,985396	24,498	-0,008309
4,584552	196,232466	24,648	-0,006880
4,587592	199,359686	24,798	-0,005504
4,590533	202,126243	24,948	-0,004287
4,593537	204,892800	25,099	-0,003069
4,596473	207,958984	25,249	-0,001720
4,599523	209,643555	25,400	-0,000979
4,602561	213,732910	25,551	0,000820
4,605534	217,100941	25,702	0,002302
4,608528	220,348011	25,853	0,003731
4,611562	223,174494	26,004	0,004975
4,614574	225,880016	26,154	0,006165
4,617505	228,767534	26,304	0,007436
4,620535	231,594016	26,455	0,008679
4,623537	234,179687	26,607	0,009817
4,626512	237,607644	26,758	0,011325
4,629515	239,471990	26,908	0,012146
4,632494	243,501420	27,058	0,013918
4,635471	246,267978	27,209	0,015136
4,638590	249,996671	27,359	0,016776
4,641508	252,401456	27,509	0,017834
4,644521	255,048162	27,660	0,018999
4,647487	258,054421	27,811	0,020322
4,650582	261,362527	27,961	0,021777
4,653586	264,248935	28,112	0,023047
4,656528	267,616966	28,263	0,024529
4,659515	271,104847	28,413	0,026064
4,662530	273,150080	28,563	0,026964
4,665478	276,637962	28,713	0,028499
4,668520	279,885032	28,863	0,029927
4,671543	282,591664	29,014	0,031118
4,674459	285,718883	29,165	0,032494
4,677485	288,786177	29,315	0,033844
4,680495	290,890225	29,465	0,034770
4,683469	294,739879	29,615	0,036463
4,686542	297,084739	29,770	0,037495
4,689522	300,271884	29,922	0,038897
4,692487	303,219327	30,073	0,040194
4,693538	304,962713	30,225	0,040961
4,693483	304,721902	30,376	0,040855
4,693453	304,721902	30,526	0,040855
4,693512	304,060502	30,678	0,040564
4,693499	304,361239	30,829	0,040697
4,693498	304,301314	30,981	0,040670
4,693537	304,181463	31,131	0,040618
4,693487	304,121538	31,281	0,040591
4,693494	304,000577	31,431	0,040538
4,693455	304,542125	31,581	0,040776
4,693478	304,721902	31,732	0,040855
4,693507	304,602051	31,883	0,040803
4,693535	304,422275	32,033	0,040724
4,693535	305,023748	32,185	0,040988
4,693465	304,181463	32,337	0,040618
4,693548	304,301314	32,489	0,040670
4,693509	304,301314	32,640	0,040670
4,693536	304,241388	32,791	0,040644
4,693529	304,602051	32,942	0,040803
4,693562	304,482200	33,093	0,040750
4,693439	304,482200	33,244	0,040750
4,693539	304,842862	33,394	0,040909
4,693519	304,542125	33,544	0,040776
4,693475	303,399103	33,694	0,040273
4,693527	304,000577	33,845	0,040538
4,693510	304,181463	33,995	0,040618
4,693570	304,422275	34,145	0,040724
4,693506	304,181463	34,295	0,040618
4,693480	304,721902	34,446	0,040855
4,693540	304,301314	34,596	0,040670
4,693473	304,482200	34,746	0,040750
4,693593	304,602051	34,896	0,040803
4,693455	304,602051	35,047	0,040803
4,692523	304,361239	35,198	0,040697
4,689521	301,715643	35,348	0,039533
4,686538	299,009011	35,499	0,038342
4,683498	295,280318	35,651	0,036701
4,680499	292,754572	35,801	0,035590
4,677481	289,868164	35,951	0,034320
4,674495	287,643155	36,102	0,033341
4,671517	284,095348	36,252	0,031780
4,668510	280,727317	36,402	0,030298
4,665517	277,419212	36,553	0,028842
4,662526	274,652654	36,703	0,027625
4,659486	271,766246	36,854	0,026355
4,656548	268,579102	37,005	0,024953
4,653569	265,932395	37,155	0,023788
4,650560	262,444513	37,305	0,022253
4,647579	259,016557	37,457	0,020745
4,644524	256,491921	37,608	0,019634
4,641530	253,484553	37,759	0,018311
4,638522	250,116522	37,910	0,016829
4,635484	247,409890	38,061	0,015638
4,632567	243,802157	38,212	0,014051
4,629507	241,336337	38,362	0,012966
4,626539	238,269043	38,513	0,011616
4,623539	235,563521	38,664	0,010426
4,620595	232,014604	38,814	0,008864
4,617554	229,248047	38,964	0,007647
4,614554	226,301713	39,114	0,006351
4,611560	223,775968	39,265	0,005239
4,608547	220,227051	39,416	0,003678
4,605510	217,160866	39,566	0,002329
4,602556	213,732910	39,717	0,000820
4,599527	211,868564	39,867	0,000000
4,596519	208,801270	40,018	-0,001350
4,593559	204,952725	40,168	-0,003043
4,595517	205,614125	40,282	-0,002752
4,598585	208,681419	40,433	-0,001402
4,601520	211,868564	40,583	0,000000
4,604611	214,153498	40,734	0,001005
4,607551	217,641380	40,886	0,002540
4,610560	220,528897	41,038	0,003811
4,613509	223,595082	41,188	0,005160
4,616481	226,421564	41,339	0,006403
4,619505	228,767534	41,489	0,007436
4,622517	232,616078	41,639	0,009129
4,625600	235,081898	41,790	0,010214
4,628489	238,629705	41,940	0,011775
4,631547	241,095526	42,090	0,012860
4,634492	244,042969	42,240	0,014157
4,637494	248,011364	42,392	0,015903
4,640528	249,515048	42,542	0,016564
4,643549	253,604403	42,692	0,018364
4,646505	256,791548	42,842	0,019766
4,649507	259,858842	42,993	0,021116
4,652495	262,565474	43,145	0,022307
4,655508	265,091220	43,296	0,023418
4,658530	268,639027	43,446	0,024979
4,661590	272,307795	43,598	0,026593
4,664527	275,074352	43,749	0,027811
4,667457	276,998624	43,900	0,028657
4,670448	281,388716	44,051	0,030589
4,673491	284,335050	44,201	0,031885
4,676582	287,282493	44,352	0,033182
4,679545	290,589489	44,502	0,034637
4,682533	293,055309	44,653	0,035722
4,685465	295,642090	44,804	0,036860
4,688470	299,189897	44,956	0,038421
4,691520	301,354980	45,106	0,039374
4,694524	304,842862	45,256	0,040909
4,697481	307,609419	45,407	0,042126
4,700493	310,255016	45,557	0,043290
4,703478	312,961648	45,708	0,044481
4,706532	316,449529	45,859	0,046016
4,709477	319,335937	46,009	0,047286
4,712464	322,944780	46,159	0,048874
4,715501	326,251776	46,310	0,050329
4,718505	329,078258	46,460	0,051572
4,721492	331,784890	46,610	0,052763
4,724500	334,370561	46,760	0,053901
4,727503	336,475719	46,910	0,054827
4,730502	341,106623	47,060	0,056865
4,733469	343,090820	47,210	0,057738
4,736469	346,398926	47,360	0,059193
4,739470	349,765847	47,510	0,060675
4,742480	353,073952	47,660	0,062130
4,745481	355,840510	47,810	0,063348
4,748490	358,666992	47,962	0,064591
4,751521	360,832076	48,113	0,065544
4,754460	364,680620	48,263	0,067237
4,757480	366,664817	48,415	0,068110
4,760468	370,153809	48,565	0,069646
4,763453	374,122203	48,716	0,071392
4,766440	376,528098	48,866	0,072450
4,769530	379,113770	49,017	0,073588
4,772462	382,541726	49,168	0,075096
4,775490	385,248358	49,318	0,076287
4,778507	388,495428	49,470	0,077716
4,781454	391,082209	49,620	0,078854
4,784458	393,787731	49,770	0,080044
4,787445	397,516424	49,920	0,081685
4,790475	400,162021	50,070	0,082849
4,793460	403,289240	50,222	0,084225
4,796446	406,296609	50,372	0,085548
4,799426	407,860218	50,526	0,086236
4,802447	412,491122	50,676	0,088274
4,805420	414,956942	50,826	0,089359
4,808432	417,783425	50,977	0,090603
4,811476	420,789684	51,127	0,091925
4,814438	424,277566	51,279	0,093460
4,817429	427,284934	51,429	0,094783
4,820454	429,991566	51,579	0,095974
4,823497	433,118786	51,731	0,097350
4,826453	436,005194	51,882	0,098620
4,829352	439,011452	52,033	0,099943
4,832422	441,718084	52,184	0,101134
4,835462	444,965154	52,334	0,102563
4,838448	447,731712	52,486	0,103780
4,841534	450,679155	52,636	0,105077
4,844424	453,385787	52,786	0,106268
4,847420	455,610795	52,936	0,107247
4,850430	459,459339	53,088	0,108940
4,853421	462,706410	53,239	0,110369
4,856421	465,232156	53,390	0,111480
4,859509	468,540261	53,541	0,112936
4,862374	471,607555	53,692	0,114285
4,865435	474,674849	53,843	0,115635
4,868436	477,139560	53,993	0,116719
4,871427	480,567516	54,144	0,118228
4,874481	483,334073	54,294	0,119445
4,877450	486,160556	54,444	0,120688
4,880436	489,528587	54,595	0,122170
4,883391	491,873446	54,746	0,123202
4,886408	494,760964	54,898	0,124473
4,889417	498,127885	55,049	0,125954
4,892429	501,495916	55,199	0,127436
4,893412	503,420188	55,350	0,128283
4,893427	503,540039	55,501	0,128335
4,893376	503,179377	55,653	0,128177
4,893446	502,999600	55,803	0,128098
4,893402	503,059526	55,954	0,128124
4,893432	503,240412	56,105	0,128204
4,893427	502,579013	56,255	0,127913
4,893484	503,481223	56,405	0,128310
4,893433	503,059526	56,556	0,128124
4,893393	503,179377	56,707	0,128177
4,893421	502,939675	56,857	0,128071
4,893530	503,420188	57,007	0,128283
4,893436	502,999600	57,158	0,128098
4,893391	503,059526	57,308	0,128124
4,893426	503,420188	57,459	0,128283
4,893348	502,999600	57,609	0,128098
4,893416	502,338201	57,759	0,127807
4,893409	503,059526	57,910	0,128124
4,893420	502,519087	58,062	0,127886
4,893383	503,179377	58,213	0,128177
4,893425	503,179377	58,364	0,128177
4,893412	502,519087	58,517	0,127886
4,893445	502,758789	58,669	0,127992
4,893411	503,059526	58,820	0,128124
4,893433	502,939675	58,972	0,128071
4,893455	503,360263	59,122	0,128256
4,893411	502,458052	59,272	0,127859
4,893449	503,119451	59,423	0,128150
4,893396	502,758789	59,574	0,127992
4,893430	503,420188	59,724	0,128283
4,893426	502,939675	59,876	0,128071
4,893371	502,939675	60,026	0,128071
4,893405	502,638938	60,177	0,127939
4,892490	503,179377	60,328	0,128177
4,889433	500,473855	60,479	0,126986
4,886470	497,346635	60,630	0,125610
4,883495	494,520153	60,780	0,124367
4,880503	490,610574	60,933	0,122646
4,877432	487,724165	61,084	0,121376
4,874420	485,018643	61,235	0,120186
4,871479	481,710538	61,392	0,118730
4,868503	479,063832	61,542	0,117566
4,865456	475,396174	61,692	0,115952
4,862469	473,050204	61,842	0,114920
4,859535	469,682173	61,994	0,113438
4,856463	467,578125	62,146	0,112512
4,853460	463,789506	62,297	0,110845
4,850398	460,722212	62,448	0,109496
4,847440	457,895730	62,598	0,108252
4,844421	454,527699	62,748	0,106770
4,841433	451,400479	62,898	0,105394
4,838482	448,814808	63,048	0,104256
4,835433	445,326926	63,199	0,102722
4,832481	442,379483	63,349	0,101425
4,829505	439,553001	63,500	0,100181
4,826452	436,786444	63,651	0,098964
4,823500	434,020996	63,803	0,097747
4,820434	430,232377	63,953	0,096080
4,817447	427,645597	64,104	0,094942
4,814490	424,338601	64,254	0,093487
4,811516	421,451083	64,404	0,092216
4,808543	417,783425	64,555	0,090603
4,805439	415,317605	64,705	0,089518
4,802450	412,731934	64,855	0,088380
4,799462	409,063166	65,005	0,086766
4,796458	406,416460	65,155	0,085601
4,793441	403,289240	65,305	0,084225
4,790485	400,342907	65,456	0,082929
4,787468	397,095836	65,606	0,081500
4,784482	394,568981	65,756	0,080388
4,781489	391,923384	65,907	0,079224
4,778469	388,796165	66,057	0,077848
4,775470	384,947621	66,208	0,076155
4,772478	383,023349	66,359	0,075308
4,769468	379,354581	66,509	0,073694
4,766512	376,408248	66,659	0,072397
4,763403	373,701616	66,810	0,071207
4,760496	370,994984	66,960	0,070016
4,757476	366,905629	67,110	0,068216
4,754504	364,379883	67,260	0,067105
4,751470	361,433549	67,410	0,065809
4,748477	358,907804	67,560	0,064697
4,745506	355,418812	67,711	0,063162
4,743481	352,111816	67,862	0,061707
4,746485	354,216974	67,979	0,062633
4,749515	355,900435	68,129	0,063374
4,752486	359,869940	68,279	0,065121
4,755547	363,057085	68,429	0,066523
4,758460	366,725852	68,579	0,068137
4,761475	369,311523	68,729	0,069275
4,764473	372,078081	68,880	0,070492
4,767511	375,506037	69,030	0,072000
4,770461	378,091708	69,182	0,073138
4,773551	380,557528	69,335	0,074223
4,776460	384,286222	69,485	0,075864
4,779526	387,413441	69,637	0,077240
4,782439	390,118963	69,788	0,078430
4,785501	393,307218	69,938	0,079833
4,788464	396,012740	70,088	0,081023
4,791514	399,440696	70,238	0,082532
4,794469	402,448065	70,388	0,083855
4,797454	404,011674	70,538	0,084543
4,800511	408,521618	70,688	0,086527
4,803511	411,588912	70,838	0,087877
4,806472	414,656206	70,988	0,089227
4,809461	417,602539	71,138	0,090523
4,812539	420,609908	71,288	0,091846
4,815438	423,255504	71,439	0,093010
4,818456	426,623535	71,589	0,094492
4,821484	428,006259	71,739	0,095101
4,824465	432,698198	71,890	0,097165
4,827474	434,802246	72,042	0,098091
4,830512	437,568803	72,197	0,099308
4,833440	441,718084	72,348	0,101134
4,836504	444,725453	72,499	0,102457
4,839507	447,492010	72,649	0,103674
4,842482	450,619229	72,800	0,105050
4,845498	452,603427	72,951	0,105923
4,848430	456,572931	73,102	0,107670
4,851417	459,218528	73,253	0,108834
4,854456	462,526634	73,403	0,110290
4,857458	465,353116	73,555	0,111533
4,860336	468,239524	73,706	0,112803
4,863450	471,306818	73,856	0,114153
4,866496	474,193226	74,007	0,115423
4,869467	476,899858	74,157	0,116614
4,872485	480,567516	74,308	0,118228
4,875427	483,093262	74,460	0,119339
4,878454	486,100630	74,610	0,120662
4,881418	489,347701	74,760	0,122091
4,884424	492,715732	74,912	0,123573
4,887417	495,121626	75,062	0,124631
4,890454	498,910245	75,212	0,126298
4,893443	500,894442	75,362	0,127171
4,896396	504,683061	75,513	0,128838
4,899484	508,111017	75,663	0,130347
4,902411	510,637873	75,814	0,131458
4,905408	513,283469	75,964	0,132623
4,908367	516,831277	76,115	0,134184
4,911451	519,898571	76,265	0,135533
4,914382	522,725053	76,415	0,136777
4,917434	526,153010	76,565	0,138285
4,920444	528,437944	76,715	0,139291
4,923411	531,084650	76,865	0,140455
4,926432	535,114080	77,016	0,142228
4,929479	538,120339	77,166	0,143551
4,932394	540,767045	77,316	0,144715
4,935440	543,472567	77,466	0,145906
4,938433	546,539862	77,616	0,147255
4,941380	548,464134	77,767	0,148102
4,944423	552,914151	77,918	0,150060
4,947392	555,499822	78,069	0,151198
4,950417	558,206454	78,220	0,152389
4,953419	560,732200	78,371	0,153500
4,956466	564,641779	78,521	0,155220
4,959342	567,047674	78,672	0,156279
4,962377	569,813121	78,822	0,157496
4,965400	571,316806	78,973	0,158157
4,968399	576,368297	79,124	0,160380
4,971404	579,616477	79,276	0,161809
4,974395	582,562811	79,426	0,163105
4,977398	585,269442	79,576	0,164296
4,980407	586,411355	79,726	0,164799
4,983425	591,283070	79,878	0,166942
4,986415	593,868741	80,029	0,168080
4,989418	597,296697	80,179	0,169588
4,992396	600,604803	80,329	0,171044
4,995398	602,529075	80,480	0,171891
4,998387	605,897106	80,631	0,173373
5,001407	608,783514	80,782	0,174643
5,004416	610,466974	80,932	0,175383
5,007372	615,097878	81,084	0,177421
5,010376	617,563699	81,234	0,178506
5,013338	620,571067	81,386	0,179829
5,016374	623,397550	81,536	0,181073
5,019374	626,524769	81,686	0,182449
5,022367	629,411177	81,836	0,183719
5,025386	631,876998	81,986	0,184804
5,028370	635,484730	82,136	0,186391
5,031371	637,890625	82,286	0,187450
5,034366	641,137695	82,436	0,188878
5,037351	644,385875	82,593	0,190308
5,040346	647,452060	82,744	0,191657
5,043374	650,339577	82,894	0,192927
5,046380	653,225985	83,044	0,194197
5,049411	656,172319	83,194	0,195494
5,052347	658,337402	83,344	0,196446
5,055405	662,187056	83,494	0,198140
5,058352	665,013539	83,644	0,199384
5,061368	667,778986	83,795	0,200601
5,064339	670,786355	83,945	0,201924
5,067388	674,093350	84,096	0,203379
5,070337	676,799982	84,247	0,204570
5,073373	679,987127	84,397	0,205972
5,076303	682,092285	84,553	0,206898
5,079341	685,820978	84,704	0,208539
5,082352	689,129084	84,854	0,209995
5,085387	691,894531	85,004	0,211211
5,088452	694,901900	85,155	0,212535
5,091354	697,969194	85,306	0,213884
5,093370	701,096413	85,458	0,215260
5,093343	700,855602	85,608	0,215154
5,093354	701,035378	85,758	0,215233
5,093352	700,976562	85,909	0,215208
5,093379	701,035378	86,059	0,215233
5,093350	700,494940	86,210	0,214996
5,093290	700,915527	86,361	0,215181
5,093354	700,194203	86,512	0,214863
5,093352	700,915527	86,662	0,215181
5,093298	700,254128	86,814	0,214890
5,093418	700,314054	86,964	0,214916
5,093410	700,674716	87,116	0,215075
5,093397	700,855602	87,268	0,215154
5,093359	700,915527	87,418	0,215181
5,093333	700,614790	87,568	0,215048
5,093395	701,035378	87,719	0,215233
5,093343	700,554865	87,870	0,215022
5,093414	700,554865	88,021	0,215022
5,093382	700,435014	88,172	0,214969
5,093295	700,855602	88,322	0,215154
5,093356	700,194203	88,473	0,214863
5,093392	700,254128	88,624	0,214890
5,093320	700,554865	88,774	0,215022
5,093383	700,375089	88,924	0,214943
5,093360	701,096413	89,074	0,215260
5,093395	700,375089	89,225	0,214943
5,093389	700,073242	89,377	0,214810
5,093322	701,035378	89,527	0,215233
5,093379	700,614790	89,678	0,215048
5,093346	699,953391	89,828	0,214757
5,093449	701,156339	89,979	0,215287
5,093357	700,013317	90,130	0,214784
5,093340	699,833540	90,280	0,214705
5,093331	700,735751	90,433	0,215102
5,090362	698,750444	90,583	0,214228
5,087317	694,782049	90,734	0,212482
5,084411	692,195268	90,884	0,211344
5,081325	688,767312	91,035	0,209835
5,078354	685,940829	91,185	0,208592
5,075391	684,016557	91,335	0,207745
5,072419	679,446689	91,486	0,205734
5,069330	677,040794	91,636	0,204676
5,066341	673,252175	91,788	0,203009
5,063415	671,266868	91,939	0,202135
5,060441	668,260609	92,089	0,200813
5,057347	664,892578	92,239	0,199331
5,054373	662,066096	92,389	0,198087
5,051393	659,841087	92,540	0,197108
5,048342	656,232244	92,691	0,195520
5,045347	652,865323	92,842	0,194039
5,042374	649,798029	92,992	0,192689
5,039401	646,610884	93,142	0,191287
5,036381	643,663441	93,292	0,189990
5,033369	641,979980	93,445	0,189249
5,030359	637,529963	93,595	0,187291
5,027353	635,845392	93,750	0,186550
5,024413	631,876998	93,901	0,184804
5,021399	628,449041	94,052	0,183295
5,018396	625,742409	94,204	0,182104
5,015354	622,796076	94,356	0,180808
5,012318	619,007457	94,506	0,179141
5,009425	616,300826	94,657	0,177950
5,006376	613,414418	94,807	0,176680
5,003363	610,407049	94,958	0,175357
5,000425	607,520641	95,109	0,174087
4,997346	604,272461	95,259	0,172658
4,994411	601,386053	95,409	0,171388
4,991416	598,258833	95,560	0,170012
4,988368	595,973899	95,712	0,169006
4,985414	592,125355	95,862	0,167313
4,982371	589,538574	96,013	0,166175
4,979394	587,193714	96,164	0,165143
4,976350	583,285245	96,314	0,163423
4,973484	580,758390	96,464	0,162312
4,970350	577,090732	96,615	0,160698
4,967397	573,421964	96,765	0,159083
4,964349	571,256880	96,915	0,158131
4,961418	568,671209	97,065	0,156993
4,958447	565,243253	97,216	0,155485
4,955388	563,739569	97,367	0,154823
4,952415	560,010875	97,518	0,153183
4,949415	555,441007	97,669	0,151172
4,946428	553,515625	97,820	0,150325
4,943400	550,689142	97,971	0,149081
4,940470	547,862660	98,124	0,147837
4,937431	544,434703	98,274	0,146329
4,934399	541,488370	98,425	0,145033
4,931407	539,444247	98,576	0,144133
4,928431	535,293857	98,727	0,142307
4,925479	532,708185	98,879	0,141169
4,922477	529,280229	99,029	0,139661
4,919490	526,212935	99,179	0,138312
4,916450	524,047852	99,331	0,137359
4,913408	519,477983	99,481	0,135348
4,910431	516,771351	99,631	0,134157
4,907420	515,327592	99,782	0,133522
4,904431	511,058461	99,932	0,131644
4,901411	507,750355	100,083	0,130188
4,898444	504,804022	100,234	0,128892
4,895441	502,157315	100,384	0,127727
4,893424	499,151056	100,534	0,126404
4,896423	501,435991	100,665	0,127410
4,899385	504,262473	100,815	0,128653
4,902417	505,826083	100,965	0,129341
4,905463	510,096325	101,115	0,131220
4,908405	512,922807	101,266	0,132464
4,911442	516,109952	101,416	0,133866
4,914435	519,117321	101,566	0,135189
4,917436	522,665128	101,717	0,136750
4,920425	525,069913	101,869	0,137809
4,923451	527,957431	102,019	0,139079
4,926402	529,760742	102,169	0,139873
4,929449	534,391646	102,319	0,141910
4,932429	537,218129	102,469	0,143154
4,935356	540,706010	102,620	0,144688
4,938397	543,532493	102,770	0,145932
4,941442	546,239125	102,920	0,147123
4,944448	549,186568	103,070	0,148420
4,947382	552,794300	103,221	0,150007
4,950337	554,357910	103,372	0,150695
4,953384	558,026678	103,523	0,152310
4,956399	560,612349	103,673	0,153447
4,959437	564,701705	103,824	0,155247
4,962404	567,347301	103,974	0,156411
4,965402	569,512385	104,124	0,157363
4,968439	573,121227	104,280	0,158951
4,971384	576,368297	104,431	0,160380
4,974444	577,871982	104,582	0,161042
4,977320	582,202148	104,732	0,162947
4,980351	585,510254	104,884	0,164402
4,983389	588,155850	105,035	0,165566
4,986377	591,102184	105,186	0,166863
4,989412	594,890803	105,337	0,168530
4,992431	597,657360	105,489	0,169747
4,995372	600,483842	105,639	0,170991
4,998418	603,732022	105,790	0,172420
5,001383	606,799316	105,940	0,173770
5,004353	609,805575	106,091	0,175092
5,007399	612,452282	106,242	0,176257
5,010391	615,278764	106,393	0,177500
5,013389	617,804510	106,543	0,178612
5,016367	621,412243	106,694	0,180199
5,019415	624,539462	106,844	0,181575
5,022411	627,967418	106,995	0,183083
5,025381	630,674050	107,147	0,184274
5,028405	633,018910	107,298	0,185306
5,031428	637,048340	107,449	0,187079
5,034399	639,995783	107,600	0,188376
5,037394	642,340643	107,750	0,189408
5,040372	645,107200	107,900	0,190625
5,043430	648,835893	108,050	0,192266
5,046386	652,383700	108,200	0,193827
5,049368	655,030407	108,350	0,194991
5,052372	657,795854	108,502	0,196208
5,055381	660,562411	108,654	0,197425
5,058373	663,990368	108,805	0,198934
5,061457	667,358398	108,955	0,200416
5,064367	670,065030	109,105	0,201606
5,067361	672,290039	109,257	0,202585
5,070367	675,537109	109,407	0,204014
5,073390	679,024991	109,559	0,205549
5,076385	681,791548	109,710	0,206766
5,079350	684,978693	109,861	0,208168
5,082338	687,083851	110,011	0,209095
5,085393	690,330922	110,170	0,210523
5,088398	693,939764	110,320	0,212111
5,091384	697,548606	110,471	0,213699
5,094375	700,013317	110,626	0,214784
5,097419	702,899725	110,778	0,216054
5,100304	706,629528	110,928	0,217695
5,103330	708,974387	111,078	0,218727
5,106333	711,560059	111,228	0,219864
5,109367	714,868164	111,380	0,221320
5,112413	717,814498	111,530	0,222616
5,115401	721,062678	111,681	0,224045
5,118293	724,429599	111,833	0,225527
5,121374	726,895419	111,983	0,226612
5,124378	730,504261	112,133	0,228200
5,127344	733,089933	112,284	0,229337
5,130358	735,856490	112,435	0,230555
5,133388	739,043635	112,585	0,231957
5,136421	741,569380	112,735	0,233068
5,139279	744,877486	112,886	0,234524
5,142332	747,644043	113,036	0,235741
5,145415	751,191850	113,187	0,237302
5,148348	753,777521	113,339	0,238440
5,151350	756,484153	113,489	0,239631
5,154373	760,272772	113,639	0,241298
5,157334	762,197044	113,790	0,242145
5,160383	766,106623	113,942	0,243865
5,163335	769,112882	114,093	0,245188
5,166334	771,879439	114,243	0,246405
5,169320	774,164373	114,393	0,247410
5,172329	778,012917	114,544	0,249104
5,175309	780,418812	114,695	0,250162
5,178385	783,607067	114,846	0,251565
5,181343	785,591264	114,996	0,252438
5,184305	790,101207	115,147	0,254422
5,187285	793,048651	115,298	0,255719
5,190338	795,032848	115,448	0,256592
5,193364	798,460804	115,598	0,258101
5,196331	801,528098	115,748	0,259450
5,199348	804,294656	115,899	0,260667
5,202231	807,481800	116,049	0,262070
5,205323	810,668945	116,200	0,263472
5,208325	813,615279	116,350	0,264769
5,211335	816,742498	116,501	0,266145
5,214330	819,568981	116,651	0,267388
5,217283	822,275613	116,802	0,268579
5,220314	824,380771	116,952	0,269505
5,223346	828,530051	117,102	0,271331
5,226345	831,296609	117,253	0,272548
5,229336	834,002131	117,404	0,273739
5,232307	836,288175	117,555	0,274745
5,235330	840,196644	117,706	0,276464
5,238330	842,602539	117,856	0,277523
5,241365	846,451083	118,007	0,279216
5,244314	848,616167	118,157	0,280169
5,247339	851,563610	118,307	0,281466
5,250312	855,352228	118,457	0,283133
5,253355	856,554066	118,613	0,283662
5,256365	861,005194	118,763	0,285620
5,259325	863,290128	118,913	0,286625
5,262329	866,897860	119,063	0,288213
5,265344	869,604492	119,213	0,289404
5,268310	872,251199	119,374	0,290568
5,271378	876,219593	119,524	0,292314
5,274301	878,083940	119,674	0,293135
5,277341	881,872559	119,830	0,294802
5,280307	885,240589	119,980	0,296284
5,283347	888,067072	120,130	0,297527
5,286292	890,893555	120,282	0,298771
5,289283	894,020774	120,434	0,300147
5,292327	897,448730	120,585	0,301655
5,293292	899,072266	120,736	0,302370
5,293277	898,771529	120,886	0,302237
5,293295	898,892489	121,036	0,302291
5,293301	898,530717	121,188	0,302131
5,293227	898,711603	121,340	0,302211
5,293304	899,012340	121,490	0,302343
5,293344	898,470792	121,640	0,302105
5,293343	898,231090	121,791	0,302000
5,293355	898,231090	121,941	0,302000
5,293261	899,072266	122,092	0,302370
5,293301	898,771529	122,243	0,302237
5,293312	898,591752	122,393	0,302158
5,293321	898,110130	122,543	0,301946
5,293314	898,832564	122,694	0,302264
5,293235	899,072266	122,844	0,302370
5,293321	898,591752	122,994	0,302158
5,293341	898,231090	123,145	0,302000
5,293350	898,050204	123,296	0,301920
5,293300	898,591752	123,446	0,302158
5,293250	898,651678	123,597	0,302185
5,293343	899,012340	123,749	0,302343
5,293328	898,591752	123,900	0,302158
5,293255	899,012340	124,050	0,302343
5,293267	898,350941	124,200	0,302052
5,293326	898,231090	124,352	0,302000
5,293330	898,470792	124,505	0,302105
5,293339	898,291016	124,656	0,302026
5,293339	898,530717	124,806	0,302131
5,293359	898,291016	124,956	0,302026
5,293339	898,410866	125,108	0,302079
5,293349	898,110130	125,260	0,301946
5,293268	898,170055	125,412	0,301973
5,293315	898,470792	125,562	0,302105
5,292306	898,050204	125,712	0,301920
5,289326	894,982910	125,863	0,300570
5,286319	892,397239	126,014	0,299433
5,283311	889,329945	126,165	0,298083
5,280362	886,202725	126,317	0,296707
5,277371	883,376243	126,467	0,295463
5,274261	879,828436	126,617	0,293902
5,271259	877,061879	126,768	0,292685
5,268303	874,655984	126,920	0,291626
5,265323	871,048251	127,076	0,290039
5,262319	868,221768	127,227	0,288795
5,259396	864,853738	127,378	0,287313
5,256387	862,869540	127,529	0,286440
5,253420	858,840110	127,680	0,284667
5,250367	855,952592	127,831	0,283397
5,247355	853,366921	127,981	0,282259
5,244349	850,420588	128,131	0,280963
5,241334	846,932706	128,292	0,279428
5,238372	843,865412	128,443	0,278079
5,235306	842,361728	128,593	0,277417
5,232361	838,272372	128,744	0,275618
5,229356	835,385964	128,894	0,274348
5,226349	832,679332	129,044	0,273157
5,223274	829,191451	129,195	0,271622
5,220402	825,643643	129,345	0,270061
5,217372	823,417525	129,495	0,269082
5,214360	820,291415	129,646	0,267706
5,211371	818,306108	129,797	0,266833
5,208323	813,736239	129,947	0,264822
5,205382	811,149458	130,097	0,263684
5,202281	808,322976	130,249	0,262440
5,199358	804,474432	130,400	0,260747
5,196370	801,647949	130,550	0,259503
5,193356	798,641690	130,701	0,258180
5,190423	795,634322	130,851	0,256857
5,187376	793,168501	131,002	0,255772
5,184420	789,740545	131,152	0,254264
5,181349	786,973988	131,303	0,253046
5,178383	783,665882	131,454	0,251591
5,175376	780,719549	131,604	0,250294
5,172395	778,735352	131,756	0,249421
5,169394	774,705922	131,907	0,247648
5,166367	771,457741	132,058	0,246219
5,163407	768,812145	132,208	0,245055
5,160376	765,985662	132,358	0,243812
5,157401	762,918368	132,509	0,242462
5,154339	759,550337	132,660	0,240980
5,151390	756,663929	132,811	0,239710
5,148384	754,679732	132,961	0,238837
5,145377	751,311701	133,112	0,237355
5,142372	747,523082	133,262	0,235688
5,139377	744,817560	133,414	0,234498
5,136388	741,750266	133,565	0,233148
5,133403	738,742898	133,716	0,231825
5,130434	734,954279	133,866	0,230158
5,127412	732,669345	134,016	0,229152
5,124388	729,962713	134,167	0,227961
5,121412	726,354980	134,318	0,226374
5,118396	723,768200	134,468	0,225236
5,115419	720,400169	134,620	0,223754
5,112361	717,453835	134,770	0,222458
5,109411	714,567427	134,920	0,221188
5,106371	711,619984	135,070	0,219891
5,103483	708,432839	135,223	0,218488
5,100367	706,809304	135,374	0,217774
5,097460	702,840909	135,524	0,216028
5,094359	699,652654	135,676	0,214625
5,091402	696,947132	135,832	0,213435
5,088403	693,398216	135,983	0,211873
5,085378	689,729448	136,134	0,210259
5,082407	687,264737	136,293	0,209174
5,079392	683,956632	136,443	0,207719
5,076398	681,972434	136,600	0,206846
5,073466	678,604403	136,750	0,205364
5,070392	676,018732	136,902	0,204226
5,067380	672,349964	137,054	0,202612
5,064427	669,041859	137,205	0,201156
5,061437	666,035600	137,355	0,199833
5,058409	663,088157	137,506	0,198537
5,055413	659,480424	137,657	0,196949
5,052405	657,014604	137,808	0,195864
5,049449	654,248047	137,959	0,194647
5,046445	651,180753	138,110	0,193297
5,043418	648,113459	138,261	0,191948
5,040430	645,588823	138,412	0,190837
5,037406	642,099831	138,562	0,189302
5,034463	639,333274	138,713	0,188084
5,031373	636,267090	138,864	0,186735
5,028399	633,439498	139,014	0,185491
5,025442	630,252353	139,164	0,184089
5,022450	627,065208	139,314	0,182687
5,019414	623,517401	139,464	0,181125
5,016420	620,630993	139,615	0,179855
5,013445	618,225098	139,766	0,178797
5,010422	615,097878	139,916	0,177421
5,007469	612,030584	140,066	0,176071
5,004442	609,745650	140,217	0,175066
5,001480	605,656294	140,367	0,173267
4,998434	602,589000	140,518	0,171917
4,995397	599,401855	140,669	0,170515
4,992513	596,334561	140,820	0,169165
4,989440	594,890803	140,974	0,168530
4,986471	589,960272	141,125	0,166360
4,983487	587,735263	141,275	0,165381
4,980465	584,727894	141,426	0,164058
4,977455	581,299938	141,577	0,162550
4,974425	578,955078	141,728	0,161518
4,971473	575,706898	141,878	0,160089
4,968434	572,038130	142,028	0,158475
4,965404	571,077104	142,178	0,158052
4,962454	566,866788	142,329	0,156199
4,959463	563,859419	142,482	0,154876
4,956467	560,853161	142,635	0,153553
4,953461	557,785866	142,787	0,152204
4,950415	554,598722	142,937	0,150801
4,947493	551,531428	143,090	0,149452
4,944430	548,585094	143,240	0,148155
4,941425	546,720748	143,395	0,147335
4,938513	542,631392	143,545	0,145536
4,935481	539,624023	143,695	0,144212
4,932500	536,676580	143,853	0,142916
4,929463	533,790172	144,003	0,141646
4,926474	530,903764	144,155	0,140375
4,923397	527,175071	144,308	0,138735
4,920478	524,107777	144,458	0,137385
4,917438	522,844904	144,609	0,136830
4,914425	518,394886	144,761	0,134872
4,911476	515,809215	144,913	0,133734
4,908452	512,501110	145,064	0,132278
4,905446	509,915439	145,214	0,131141
4,902473	506,668368	145,366	0,129712
4,899441	503,481223	145,516	0,128310
4,896442	499,872381	145,667	0,126722
4,893494	498,609508	145,817	0,126166
4,890468	494,460227	145,968	0,124340
4,887490	490,911310	146,119	0,122779
4,884501	488,626376	146,269	0,121773
4,881432	485,198420	146,419	0,120265
4,878475	482,672674	146,569	0,119154
4,875476	479,124867	146,721	0,117593
4,872474	476,539196	146,872	0,116455
4,869450	473,771529	147,024	0,115237
4,866485	469,803134	147,174	0,113491
4,863472	466,916726	147,324	0,112221
4,860493	464,510831	147,475	0,111163
4,857447	461,022949	147,626	0,109628
4,854455	459,579190	147,776	0,108993
4,851463	455,489835	147,926	0,107193
4,848500	452,182839	148,076	0,105738
4,845474	449,596058	148,226	0,104600
4,842488	445,927290	148,377	0,102986
4,839420	442,801181	148,528	0,101610
4,836553	440,395286	148,681	0,100552
4,833494	437,208141	148,832	0,099149
4,830544	434,260698	148,983	0,097853
4,827592	431,675027	149,135	0,096715
4,824437	428,187145	149,285	0,095180
4,821550	425,661399	149,435	0,094069
4,818485	422,353294	149,585	0,092613
4,815459	419,287109	149,736	0,091264
4,812446	416,279741	149,890	0,089941
4,809484	413,513184	150,041	0,088724
4,806480	411,107289	150,195	0,087665
4,803566	408,160955	150,345	0,086369
4,800551	404,191451	150,495	0,084622
4,797462	401,605779	150,653	0,083484
4,794470	398,237749	150,803	0,082002
4,791447	395,110529	150,955	0,080626
4,788488	392,644709	151,107	0,079542
4,785501	389,276678	151,257	0,078060
4,782492	387,292480	151,412	0,077187
4,779468	382,842463	151,562	0,075229
4,776504	380,738414	151,712	0,074303
4,773493	377,129572	151,863	0,072715
4,770496	374,964489	152,014	0,071762
4,767493	371,656383	152,165	0,070307
4,764505	368,769975	152,317	0,069037
4,761537	365,642756	152,468	0,067661
4,758536	362,756348	152,619	0,066391
4,755508	359,869940	152,769	0,065121
4,752586	356,501909	152,920	0,063639
4,749514	353,976163	153,070	0,062527
4,746477	350,548207	153,220	0,061019
4,743570	348,924672	153,370	0,060305
4,740532	345,255904	153,521	0,058690
4,737451	341,948908	153,673	0,057235
4,734528	340,264338	153,824	0,056494
4,731487	335,513583	153,975	0,054404
4,728527	332,866877	154,126	0,053239
4,725533	330,281206	154,277	0,052102
4,722518	327,034135	154,427	0,050673
4,719530	324,146618	154,578	0,049402
4,716500	321,441096	154,728	0,048212
4,713572	317,892179	154,880	0,046650
4,710453	315,306507	155,042	0,045513
4,707524	312,300249	155,192	0,044190
4,704577	309,473766	155,344	0,042946
4,701538	306,827060	155,503	0,041782
4,698488	303,759766	155,654	0,040432
4,695529	301,354980	155,804	0,039374
4,692505	297,144664	155,954	0,037521
4,689534	294,739879	156,104	0,036463
4,686580	291,732511	156,255	0,035140
4,683549	289,266690	156,406	0,034055
4,680544	285,778809	156,557	0,032521
4,677577	282,711515	156,707	0,031171
4,674568	279,885032	156,858	0,029927
4,671555	277,779874	157,008	0,029001
4,668558	274,051181	157,158	0,027360
4,665519	271,706321	157,308	0,026329
4,662605	267,917702	157,461	0,024662
4,659522	264,790483	157,612	0,023286
4,656567	262,986062	157,764	0,022492
4,653550	258,956632	157,915	0,020719
4,650529	256,430886	158,066	0,019607
4,647564	253,243741	158,219	0,018205
4,644572	250,777921	158,370	0,017120
4,641551	247,109153	158,520	0,015506
4,638558	244,222745	158,670	0,014236
4,635569	241,456188	158,822	0,013019
4,632545	239,892578	158,973	0,012331
4,629557	236,044034	159,125	0,010637
4,626590	232,435192	159,277	0,009049
4,623609	230,992543	159,428	0,008415
4,620518	227,023038	159,580	0,006668
4,617587	224,317516	159,730	0,005478
4,614635	221,670810	159,880	0,004313
4,611528	217,882191	160,032	0,002646
4,608591	216,679244	160,182	0,002117
4,605573	212,770774	160,334	0,000397
4,602573	210,364879	160,484	-0,000662
4,599559	206,876998	160,638	-0,002196
4,596588	203,930664	160,789	-0,003493
4,593570	200,201971	160,941	-0,005133
4,590512	198,638361	161,097	-0,005821
4,587594	195,871804	161,247	-0,007039
4,584591	193,045321	161,399	-0,008282
4,581577	190,579501	161,549	-0,009367
4,578602	187,452282	161,699	-0,010743
4,575513	184,024325	161,861	-0,012251
4,572590	181,437544	162,011	-0,013390
4,569586	178,491211	162,161	-0,014686
4,566556	175,244141	162,312	-0,016115
4,563582	172,778320	162,463	-0,017200
4,560612	171,395597	162,614	-0,017808
4,557600	166,283070	162,765	-0,020058
4,554544	163,878285	162,915	-0,021116
4,551640	160,510254	163,071	-0,022598
4,548653	157,623846	163,222	-0,023868
4,545584	155,158026	163,372	-0,024953
4,542572	151,489258	163,522	-0,026567
4,539556	149,023437	163,672	-0,027652
4,536573	146,919389	163,822	-0,028578
4,533603	143,129661	163,973	-0,030245
4,530580	140,724876	164,124	-0,031303
4,527633	137,837358	164,274	-0,032574
4,524615	133,387340	164,424	-0,034532
4,521634	132,245428	164,574	-0,035034
4,518605	128,515625	164,725	-0,036675
4,515596	126,411577	164,876	-0,037601
4,512590	123,404208	165,026	-0,038924
4,509579	120,758612	165,176	-0,040088
4,506644	117,209695	165,327	-0,041650
4,503622	114,624023	165,477	-0,042788
4,500580	111,737615	165,628	-0,044058
4,497612	108,550471	165,779	-0,045460
4,494576	105,543102	165,929	-0,046783
4,491644	102,475808	166,080	-0,048133
4,488584	100,973233	166,230	-0,048794
4,485653	97,184615	166,380	-0,050461
4,482541	93,816584	166,531	-0,051943
4,479578	90,749290	166,682	-0,053292
4,476575	87,741921	166,832	-0,054616
4,473584	85,516912	166,992	-0,055595
4,470634	82,510653	167,143	-0,056917
4,467591	79,863947	167,294	-0,058082
4,464570	76,555842	167,444	-0,059538
4,461603	73,850320	167,594	-0,060728
4,458608	70,302512	167,744	-0,062289
4,455619	67,295144	167,908	-0,063612
4,452612	64,588512	168,059	-0,064803
4,449651	62,363503	168,210	-0,065782
4,446581	58,334073	168,360	-0,067555
4,443580	55,868253	168,513	-0,068640
4,440574	52,742143	168,665	-0,070016
4,437647	50,516025	168,816	-0,070995
4,434651	46,727406	168,967	-0,072662
4,431644	44,141735	169,117	-0,073800
4,428646	40,833629	169,267	-0,075255
4,425625	38,068182	169,417	-0,076472
4,422589	34,820002	169,568	-0,077901
4,419604	32,415217	169,718	-0,078959
4,416607	28,625488	169,871	-0,080627
4,413597	26,280629	170,022	-0,081659
4,410613	23,333185	170,172	-0,082956
4,407585	19,665527	170,322	-0,084569
4,404630	16,839045	170,472	-0,085813
4,401570	15,576172	170,624	-0,086369
4,398565	10,945268	170,774	-0,088406
4,395623	7,998935	170,925	-0,089703
4,392593	5,593040	171,076	-0,090761
4,389610	2,405895	171,226	-0,092164
4,386634	0,782360	171,377	-0,092878
4,383550	-2,946333	171,527	-0,094519
4,380616	-5,772816	171,677	-0,095762
4,377601	-0,240811	171,827	-0,093328
4,374641	-0,180886	171,979	-0,093302
4,371560	-0,300737	172,129	-0,093354
4,368602	-0,541548	172,279	-0,093460
4,365598	-0,180886	172,429	-0,093302
4,362580	0,059925	172,580	-0,093196
4,359625	0,300737	172,730	-0,093090
4,356636	0,300737	172,880	-0,093090
4,353642	-0,180886	173,031	-0,093302
4,350661	0,000000	173,182	-0,093222
4,347660	-0,180886	173,334	-0,093302
4,344634	0,240811	173,484	-0,093116
4,341615	-0,480513	173,634	-0,093434
4,338588	-0,480513	173,784	-0,093434
4,335641	-0,782360	173,934	-0,093566
4,332646	-0,421697	174,084	-0,093408
4,329624	0,300737	174,235	-0,093090
4,326610	0,000000	174,385	-0,093222
4,323627	1,143022	174,535	-0,092719
4,320634	0,179776	174,685	-0,093143
4,317610	-0,180886	174,835	-0,093302
4,314633	0,119851	174,986	-0,093169
4,311619	-0,300737	175,137	-0,093354
4,308643	-0,059925	175,289	-0,093249
4,305630	-0,360662	175,439	-0,093381
4,302610	-0,180886	175,589	-0,093302
4,299670	-0,059925	175,740	-0,093249
4,296646	-0,421697	175,891	-0,093408
4,293618	-0,480513	176,043	-0,093434