File: Nanoindentation Datenauswertung/data/test partial unload on saphire-2
Quasi static measurement routine
Tip parameters (shape,radius, material...)
09.05.2022

Piezo position[nm]	MEMS displ.[nm]	Time[ms]
eoh
2,819923	0,000000	0,00
2,823982	0,661399	0,05
2,827966	3,247070	0,15
2,831990	5,652965	0,25
2,836003	7,577237	0,35
2,839930	8,959961	0,45
2,843966	11,967330	0,55
2,847988	14,553001	0,65
2,851963	17,439409	0,75
2,855992	20,747514	0,85
2,859967	24,235396	0,95
2,863967	28,024015	1,05
2,867987	31,031383	1,15
2,871951	35,180664	1,25
2,875934	37,405673	1,35
2,879965	40,292081	1,46
2,883974	44,682173	1,56
2,887969	47,990279	1,66
2,891987	51,718972	1,76
2,895935	54,786266	1,86
2,899963	57,672674	1,96
2,904004	62,062766	2,06
2,907967	65,490723	2,16
2,911958	68,797718	2,26
2,915963	72,045898	2,36
2,919951	75,473855	2,46
2,924032	79,442250	2,56
2,927968	83,111017	2,66
2,931928	85,937500	2,76
2,935976	89,907005	2,86
2,939990	92,492676	2,96
2,943971	96,100408	3,06
2,947944	99,890137	3,16
2,951990	102,836470	3,26
2,955983	106,204501	3,36
2,959948	109,812234	3,46
2,963997	114,383212	3,56
2,967876	117,510431	3,67
2,971993	120,697576	3,77
2,975992	125,328480	3,87
2,979901	128,515625	3,97
2,983945	132,604980	4,07
2,987935	135,130726	4,17
2,991939	138,618608	4,27
2,995965	142,948775	4,37
2,999978	147,159091	4,47
3,003982	149,444025	4,57
3,007918	153,774192	4,67
3,011948	157,562811	4,77
3,015953	161,110618	4,87
3,019947	164,719460	4,97
3,024005	167,785645	5,07
3,027959	171,995961	5,17
3,031985	175,664728	5,27
3,035948	179,092685	5,37
3,039972	183,001154	5,47
3,043992	186,609996	5,57
3,047904	189,436479	5,67
3,051916	194,006348	5,77
3,055931	197,434304	5,87
3,059945	201,283958	5,97
3,063920	205,012651	6,08
3,067942	209,341708	6,17
3,071921	213,492099	6,28
3,075894	218,061967	6,38
3,079920	221,429998	6,48
3,083938	224,677069	6,58
3,087980	229,488858	6,68
3,091927	233,397328	6,78
3,095930	237,366832	6,88
3,099964	241,095526	6,98
3,103988	245,665394	7,08
3,107918	249,815785	7,18
3,111938	254,566539	7,28
3,115900	256,490811	7,38
3,119963	261,061790	7,48
3,123963	265,812544	7,58
3,127984	269,901900	7,68
3,131861	274,051181	7,78
3,135958	278,200462	7,88
3,139952	281,688343	7,98
3,143915	285,657848	8,08
3,147950	290,709339	8,18
3,151895	294,618919	8,28
3,151911	298,286577	8,38
3,151938	298,407537	8,48
3,151893	298,046875	8,58
3,151893	298,407537	8,68
3,151921	298,347612	8,78
3,151913	298,106800	8,88
3,151914	298,768200	8,98
3,151920	298,226651	9,08
3,151915	298,106800	9,18
3,151911	298,226651	9,29
3,151925	297,685103	9,38
3,151903	297,986950	9,49
3,151880	298,106800	9,59
3,151907	298,226651	9,69
3,151946	298,106800	9,79
3,151923	297,445401	9,89
3,151910	297,505327	9,99
3,151906	298,708274	10,09
3,151850	297,986950	10,19
3,151918	297,565252	10,29
3,151930	297,385476	10,39
3,151899	297,925914	10,49
3,151910	296,903853	10,59
3,151902	297,625178	10,69
3,151950	297,746138	10,79
3,151925	298,046875	10,89
3,151869	298,226651	10,99
3,151864	298,226651	11,09
3,151917	298,166726	11,19
3,151957	297,204590	11,29
3,151876	297,625178	11,39
3,151882	297,023704	11,49
3,151926	297,505327	11,59
3,151937	297,925914	11,70
3,151896	297,445401	11,79
3,151929	297,264515	11,89
3,151924	297,505327	12,00
3,151900	297,625178	12,10
3,151906	296,784002	12,20
3,151918	297,746138	12,30
3,151869	296,903853	12,40
3,151898	297,925914	12,50
3,151851	297,925914	12,60
3,151864	297,986950	12,70
3,151900	297,385476	12,80
3,151891	298,106800	12,90
3,151890	298,106800	13,00
3,151908	298,106800	13,10
3,151920	298,647239	13,20
3,151931	297,625178	13,30
3,147941	297,806064	13,40
3,143988	293,836559	13,50
3,139933	288,484331	13,60
3,135902	284,755637	13,70
3,131876	280,726207	13,80
3,127893	276,697887	13,90
3,123897	272,427646	14,00
3,119890	268,518066	14,10
3,115912	264,368786	14,20
3,111913	260,820978	14,30
3,107897	256,972434	14,40
3,103877	252,160645	14,50
3,099934	248,071289	14,60
3,095925	243,561346	14,70
3,091926	240,012429	14,80
3,087935	236,705433	14,90
3,083909	231,773793	15,00
3,079903	227,564586	15,10
3,075894	223,714933	15,20
3,071964	219,565652	15,30
3,067914	215,295410	15,40
3,067946	211,627752	15,50
3,071922	211,327015	15,58
3,075942	215,115634	15,68
3,079982	219,565652	15,78
3,083919	223,774858	15,88
3,087892	227,744363	15,98
3,091828	232,555043	16,08
3,095962	236,284846	16,18
3,099933	239,832653	16,28
3,103946	245,003995	16,38
3,107943	249,093350	16,48
3,111885	252,401456	16,58
3,115914	256,009189	16,68
3,119922	260,820978	16,78
3,123934	264,428711	16,88
3,127930	268,398216	16,98
3,131977	272,186834	17,08
3,135967	276,576926	17,18
3,139950	280,606357	17,28
3,143918	284,816673	17,38
3,147915	289,145730	17,48
3,151907	292,573686	17,58
3,155954	296,724077	17,68
3,159962	300,813432	17,78
3,163972	304,841752	17,88
3,167942	308,571555	17,98
3,171965	313,141424	18,09
3,175939	316,810192	18,18
3,179928	320,778587	18,29
3,183906	325,168679	18,39
3,187920	330,581942	18,49
3,191907	333,468350	18,59
3,195947	337,316895	18,69
3,199922	340,925737	18,79
3,203899	345,015092	18,89
3,207924	349,465110	18,99
3,211890	353,133878	19,09
3,215895	357,403010	19,19
3,219863	361,552290	19,29
3,223898	365,521795	19,39
3,227944	370,814098	19,49
3,231904	374,422940	19,59
3,235952	379,594283	19,69
3,239934	383,022239	19,79
3,243896	387,292480	19,89
3,247927	391,983310	19,99
3,251945	395,891779	20,09
3,255885	400,042170	20,19
3,259896	404,492187	20,29
3,263912	408,761319	20,39
3,267878	413,031561	20,49
3,271876	417,001065	20,59
3,275910	421,511009	20,69
3,279883	426,803311	20,79
3,283855	430,352228	20,89
3,287864	435,342685	20,99
3,291877	439,432040	21,09
3,295875	444,123979	21,19
3,299926	448,273260	21,29
3,303936	452,964089	21,39
3,307933	456,932484	21,49
3,311910	461,503462	21,59
3,315926	465,592818	21,69
3,319915	469,682173	21,79
3,323848	474,492853	21,89
3,327895	477,741033	21,99
3,331872	482,972301	22,09
3,335933	487,302468	22,19
3,339850	491,451749	22,29
3,343810	495,120517	22,39
3,347881	499,631570	22,49
3,351864	504,623136	22,59
3,355870	508,591531	22,69
3,359908	513,944869	22,79
3,363890	516,710316	22,89
3,367920	521,641957	22,99
3,371833	526,272860	23,09
3,375843	530,362216	23,20
3,379898	535,172896	23,30
3,383863	539,984686	23,39
3,387847	544,313743	23,50
3,391871	548,283248	23,60
3,395871	553,034002	23,70
3,399887	557,003507	23,80
3,403872	561,092862	23,90
3,407824	565,182218	24,00
3,411882	569,331499	24,10
3,415864	574,563876	24,20
3,419861	578,834118	24,30
3,423893	582,502885	24,40
3,427909	587,313565	24,50
3,431813	591,944469	24,60
3,435847	596,273526	24,70
3,439862	600,483842	24,80
3,443875	604,513272	24,90
3,447879	609,745650	25,00
3,451855	613,232422	25,10
3,455844	617,562589	25,20
3,459865	621,892756	25,30
3,463861	626,764471	25,41
3,467877	630,853826	25,50
3,471938	635,544656	25,61
3,475874	639,333274	25,70
3,479870	643,723366	25,80
3,483771	648,714933	25,91
3,483817	652,563477	26,01
3,483863	652,202814	26,11
3,483874	653,105025	26,21
3,483864	652,563477	26,31
3,483827	652,563477	26,41
3,483823	652,503551	26,51
3,483846	652,383700	26,61
3,483819	652,262740	26,71
3,483829	652,744363	26,81
3,483790	652,262740	26,91
3,483825	652,503551	27,01
3,483841	652,684437	27,11
3,483849	652,563477	27,21
3,483800	652,503551	27,31
3,483841	653,105025	27,41
3,483863	652,202814	27,51
3,483842	652,563477	27,61
3,483840	652,864213	27,71
3,483860	652,443626	27,81
3,483913	652,443626	27,91
3,483811	652,443626	28,01
3,483860	652,202814	28,11
3,483791	652,503551	28,21
3,483842	653,345836	28,32
3,483800	652,202814	28,41
3,483862	652,082963	28,52
3,483787	653,045099	28,61
3,483870	652,804288	28,71
3,483865	652,623402	28,82
3,483840	652,142889	28,91
3,483806	652,443626	29,02
3,483830	652,262740	29,11
3,483884	652,323775	29,21
3,483827	651,902077	29,32
3,483842	652,142889	29,41
3,483824	652,924139	29,52
3,483811	652,443626	29,61
3,483887	652,383700	29,71
3,483849	652,383700	29,82
3,483890	652,202814	29,92
3,483837	651,963113	30,02
3,483852	652,503551	30,12
3,483779	652,142889	30,22
3,483841	652,864213	30,32
3,483872	652,082963	30,42
3,483826	651,963113	30,52
3,483830	652,082963	30,62
3,483860	652,443626	30,72
3,483836	652,262740	30,82
3,483842	652,082963	30,92
3,479791	652,503551	31,02
3,475855	648,595082	31,12
3,471881	643,542480	31,22
3,467865	639,453125	31,32
3,463855	634,462669	31,42
3,459865	630,613015	31,52
3,455826	625,621449	31,62
3,451831	621,532093	31,72
3,447825	617,082076	31,82
3,443886	612,932795	31,92
3,439797	607,881303	32,02
3,435850	603,911799	32,12
3,431864	599,340820	32,23
3,427910	595,612127	32,33
3,423845	590,801447	32,42
3,419841	586,291504	32,53
3,415814	582,262074	32,63
3,411815	577,991832	32,73
3,407850	573,541815	32,83
3,403878	569,512385	32,93
3,399838	564,941406	33,03
3,395848	560,431463	33,13
3,391850	555,921520	33,23
3,387906	551,831055	33,33
3,383843	546,659712	33,43
3,379885	542,269620	33,53
3,375884	538,240190	33,63
3,371829	533,067738	33,73
3,367853	528,979492	33,83
3,363879	524,948952	33,93
3,359918	520,018422	34,03
3,355897	516,048917	34,13
3,351853	511,479048	34,23
3,347904	507,148881	34,33
3,343854	502,999600	34,43
3,339845	498,428622	34,53
3,335861	494,098455	34,63
3,331826	489,708363	34,73
3,327858	485,919744	34,83
3,323891	481,409801	34,93
3,319870	477,380371	35,03
3,315934	472,749467	35,13
3,315905	468,058638	35,23
3,319870	468,058638	35,29
3,323871	472,809393	35,39
3,327909	477,440297	35,49
3,331869	480,988104	35,59
3,335916	485,859819	35,69
3,339844	490,009100	35,79
3,343867	494,158381	35,89
3,347854	498,308771	35,99
3,351886	502,999600	36,09
3,355934	507,870206	36,19
3,359897	511,418013	36,29
3,363843	516,469505	36,39
3,367884	519,958496	36,49
3,371830	525,009988	36,59
3,375931	529,279119	36,69
3,379883	534,090909	36,79
3,383875	538,180265	36,89
3,387905	542,690208	36,99
3,391823	547,261186	37,09
3,395928	551,410467	37,19
3,399857	556,041371	37,29
3,403877	560,251687	37,39
3,407818	564,640669	37,49
3,411862	569,091797	37,59
3,415871	572,820490	37,69
3,419812	577,691096	37,79
3,423875	581,901412	37,89
3,427837	585,990767	37,99
3,431893	590,620561	38,09
3,435864	595,612127	38,19
3,439854	599,641557	38,29
3,443834	603,611062	38,39
3,447875	608,542702	38,49
3,451851	612,150435	38,59
3,455831	617,382812	38,69
3,459878	621,712979	38,79
3,463799	625,802335	38,89
3,467866	630,613015	38,99
3,471817	634,281783	39,09
3,475869	639,333274	39,19
3,479841	643,362704	39,29
3,483872	647,993608	39,40
3,487899	652,563477	39,49
3,491871	656,712757	39,60
3,495857	660,201749	39,70
3,499862	665,192205	39,80
3,503779	669,583407	39,90
3,507824	673,973500	40,00
3,511892	679,024991	40,10
3,515840	682,692649	40,20
3,519859	686,962891	40,30
3,523863	691,533869	40,40
3,527856	696,224698	40,50
3,531810	700,373979	40,60
3,535812	704,704146	40,70
3,539771	708,974387	40,80
3,543895	713,243519	40,90
3,547836	717,994274	41,00
3,551854	721,963778	41,10
3,555832	726,234020	41,20
3,559864	731,104625	41,30
3,563914	735,134055	41,40
3,567848	739,283336	41,50
3,571860	744,274902	41,60
3,575879	748,364258	41,70
3,579806	752,875311	41,80
3,583843	757,024592	41,90
3,587818	761,535645	42,00
3,591823	765,804776	42,10
3,595830	770,736417	42,20
3,599863	774,885698	42,30
3,603849	778,313654	42,40
3,607827	783,365146	42,50
3,611793	787,695312	42,60
3,615839	792,145330	42,70
3,619817	796,114835	42,80
3,623894	800,383967	42,91
3,627839	805,436568	43,01
3,631856	809,645774	43,10
3,635835	814,216752	43,20
3,639772	818,786621	43,30
3,643835	822,575240	43,41
3,647828	827,627841	43,51
3,651844	830,874911	43,61
3,655778	835,986328	43,71
3,659826	839,955833	43,81
3,663826	844,526811	43,91
3,667814	848,495206	44,01
3,671800	853,186035	44,11
3,675846	857,816939	44,21
3,679837	862,507768	44,31
3,683859	866,296387	44,41
3,687832	870,325817	44,51
3,691874	875,197532	44,61
3,695814	879,046076	44,71
3,699832	883,856756	44,81
3,703795	887,946112	44,91
3,707845	892,636941	45,01
3,711817	896,786222	45,11
3,715826	901,477051	45,21
3,719814	905,747292	45,31
3,723827	910,017534	45,41
3,727774	914,888139	45,51
3,731835	918,857644	45,61
3,735827	922,887074	45,71
3,739832	927,217241	45,81
3,743831	931,306596	45,91
3,747787	936,778675	46,01
3,751808	940,988991	46,11
3,755902	945,498935	46,21
3,759797	949,347479	46,31
3,763893	954,159268	46,41
3,767849	957,647150	46,51
3,771858	962,818493	46,61
3,775852	966,548295	46,72
3,779892	970,817427	46,82
3,783845	975,749068	46,92
3,787831	980,318936	47,02
3,791836	984,348366	47,12
3,795861	989,039196	47,22
3,799825	992,948775	47,32
3,803822	997,579679	47,42
3,807835	1001,488148	47,52
3,811850	1005,938166	47,62
3,815851	1010,389293	47,72
3,815751	1015,019087	47,82
3,815776	1015,080123	47,92
3,815802	1014,718350	48,02
3,815841	1014,417614	48,12
3,815817	1014,718350	48,22
3,815802	1014,538574	48,32
3,815814	1015,500710	48,42
3,815851	1014,658425	48,52
3,815772	1014,357688	48,62
3,815790	1014,839311	48,72
3,815812	1014,718350	48,82
3,815753	1014,116877	48,92
3,815807	1014,478649	49,02
3,815793	1015,259899	49,12
3,815828	1014,718350	49,22
3,815819	1014,478649	49,32
3,815850	1014,658425	49,42
3,815839	1014,658425	49,52
3,815766	1014,538574	49,62
3,815790	1014,959162	49,72
3,815752	1014,778276	49,82
3,815807	1014,478649	49,92
3,815793	1014,478649	50,02
3,815833	1014,839311	50,12
3,815820	1014,357688	50,23
3,815808	1014,538574	50,33
3,815845	1014,778276	50,43
3,815797	1014,718350	50,53
3,815859	1014,959162	50,63
3,815921	1014,297763	50,73
3,815742	1014,357688	50,83
3,815819	1014,478649	50,93
3,815768	1013,997026	51,03
3,815822	1014,598500	51,13
3,815841	1014,237837	51,23
3,815832	1014,297763	51,33
3,815835	1014,417614	51,43
3,815817	1014,598500	51,53
3,815811	1014,417614	51,63
3,815780	1014,598500	51,73
3,815811	1014,598500	51,83
3,815798	1014,297763	51,93
3,815815	1014,478649	52,03
3,815829	1014,297763	52,13
3,815817	1014,538574	52,23
3,815799	1014,778276	52,33
3,815762	1014,116877	52,43
3,815820	1014,778276	52,53
3,815843	1014,538574	52,63
3,815852	1014,357688	52,73
3,811844	1014,357688	52,83
3,807794	1009,787820	52,93
3,803866	1005,637429	53,03
3,799832	1001,488148	53,13
3,795825	996,496582	53,23
3,791787	992,226341	53,33
3,787837	988,077060	53,43
3,783801	983,266380	53,53
3,779851	979,296875	53,63
3,775810	974,966708	53,73
3,771779	970,335804	53,84
3,767817	966,487260	53,94
3,763771	962,037243	54,03
3,759806	957,527299	54,14
3,755786	953,137207	54,24
3,751832	948,986816	54,34
3,747815	944,355913	54,44
3,743810	939,726119	54,54
3,739798	935,095215	54,64
3,735793	930,945934	54,74
3,731791	926,555842	54,84
3,727863	922,706188	54,94
3,723836	918,256170	55,04
3,719834	913,625266	55,14
3,715798	909,776722	55,24
3,711832	904,845082	55,34
3,707795	900,395064	55,44
3,703882	896,425559	55,54
3,699841	891,495028	55,64
3,695855	887,344638	55,74
3,691830	883,135431	55,84
3,687859	878,263716	55,94
3,683839	874,355247	56,04
3,679823	869,784268	56,14
3,675850	865,935724	56,24
3,671844	860,824308	56,34
3,667745	856,734952	56,44
3,663780	852,044123	56,54
3,659823	847,413219	56,64
3,655831	843,744451	56,74
3,651854	838,752885	56,84
3,647843	835,205078	56,94
3,643860	830,333363	57,04
3,639863	826,064231	57,14
3,635861	821,433327	57,24
3,631820	817,282937	57,34
3,627769	813,193581	57,44
3,623842	808,563787	57,54
3,619837	803,932884	57,64
3,615817	799,963379	57,74
3,611849	795,272550	57,84
3,607807	790,521795	57,95
3,603887	786,914062	58,05
3,599816	782,162198	58,15
3,595842	777,772106	58,25
3,591831	773,382013	58,35
3,587836	768,751110	58,45
3,583831	764,902566	58,55
3,579851	760,573509	58,65
3,575765	755,701793	58,75
3,571769	751,853249	58,85
3,567787	747,523082	58,95
3,563850	742,410556	59,05
3,559845	738,862749	59,15
3,555788	734,052069	59,25
3,551886	729,600941	59,35
3,547814	725,090998	59,45
3,543888	721,182528	59,55
3,539832	716,791326	59,65
3,535821	712,161532	59,75
3,531815	708,072177	59,85
3,527856	704,042747	59,95
3,523789	698,930220	60,05
3,519865	694,420277	60,15
3,515877	690,151145	60,25
3,511829	685,820978	60,35
3,507834	681,730513	60,45
3,503854	676,799982	60,55
3,499815	672,710627	60,65
3,495842	668,380460	60,75
3,491815	663,508745	60,85
3,487881	659,780051	60,95
3,483821	655,570845	61,05
3,479842	650,880016	61,15
3,475825	646,670810	61,25
3,471904	642,159757	61,35
3,467858	638,130327	61,45
3,463855	633,439498	61,55
3,459840	628,688743	61,65
3,455844	624,358576	61,75
3,451860	620,450107	61,85
3,447828	615,939054	61,95
3,443860	611,489036	62,05
3,439829	606,256658	62,16
3,435853	602,228338	62,26
3,431870	597,958097	62,35
3,427819	594,048517	62,45
3,423862	588,997026	62,55
3,419875	585,389293	62,66
3,415838	580,637429	62,76
3,411834	576,007635	62,85
3,407855	572,579679	62,95
3,403857	567,227450	63,05
3,399869	562,776323	63,16
3,395877	558,927779	63,26
3,391893	554,718572	63,35
3,387908	550,027743	63,45
3,383810	545,938388	63,55
3,379905	542,028809	63,66
3,375891	537,518865	63,76
3,371881	533,308549	63,86
3,367913	528,016246	63,96
3,363860	523,506303	64,06
3,359880	518,815474	64,16
3,355875	514,726119	64,26
3,351868	510,516912	64,36
3,347878	506,667259	64,46
3,343827	501,736728	64,56
3,339899	497,526412	64,66
3,335798	493,377131	64,76
3,331918	489,407626	64,86
3,327914	484,716797	64,96
3,323853	480,025968	65,06
3,319903	475,034402	65,16
3,315870	471,727406	65,26
3,311864	467,277388	65,36
3,307906	463,067072	65,47
3,303826	458,917791	65,56
3,299874	454,165927	65,67
3,295946	450,076571	65,77
3,291920	445,146040	65,87
3,287895	441,597124	65,97
3,283845	437,147106	66,07
3,279899	432,697088	66,17
3,275902	427,825373	66,27
3,271922	423,375355	66,37
3,267896	419,166149	66,47
3,263876	414,895907	66,57
3,259879	410,265004	66,67
3,255878	406,356534	66,77
3,251896	402,026367	66,87
3,247922	397,335538	66,97
3,243927	392,945446	67,07
3,239920	388,374467	67,17
3,235882	385,127397	67,27
3,231891	380,496493	67,37
3,227886	376,347212	67,47
3,223865	371,596458	67,57
3,219910	367,867765	67,67
3,215872	364,198997	67,77
3,211895	359,327282	67,87
3,207874	354,637562	67,97
3,203850	350,126509	68,07
3,199913	345,857377	68,17
3,195880	341,527211	68,27
3,191843	336,896307	68,37
3,188001	332,806951	68,47
3,183942	328,717596	68,58
3,179891	324,928977	68,67
3,175945	320,538885	68,78
3,171913	316,569380	68,87
3,167924	312,480025	68,97
3,163877	309,352805	69,08
3,159913	304,241388	69,18
3,155926	300,933283	69,28
3,151836	296,784002	69,38
3,147934	292,633612	69,48
3,143994	287,942782	69,58
3,139963	283,914462	69,68
3,135920	279,823997	69,78
3,131841	276,517001	69,88
3,127887	272,066983	69,98
3,123900	268,157404	70,08
3,119848	263,526500	70,18
3,115906	260,820978	70,28
3,111958	256,190075	70,38
3,107909	252,341531	70,48
3,103962	249,033425	70,58
3,099873	244,523482	70,68
3,095870	239,591841	70,78
3,091899	236,284846	70,88
3,087905	232,856889	70,98
3,083928	228,166060	71,08
3,079891	223,895819	71,18
3,075871	219,926314	71,28
3,071914	216,077770	71,38
3,067929	212,048340	71,48
3,063913	207,839134	71,58
3,059950	204,110440	71,69
3,055970	199,720348	71,79
3,051992	195,630993	71,89
3,047956	191,540527	71,99
3,043966	187,512207	72,09
3,039932	183,723588	72,19
3,035930	180,114746	72,29
3,031925	175,844505	72,39
3,027909	172,477583	72,49
3,023950	169,109553	72,59
3,019981	163,937100	72,69
3,015932	160,869806	72,79
3,011933	156,901412	72,89
3,007947	153,352495	72,99
3,003941	149,684837	73,09
2,999971	146,737393	73,19
2,995905	143,008700	73,29
2,991919	138,979270	73,39
2,987905	134,770064	73,49
2,983907	131,402033	73,59
2,979971	129,236950	73,69
2,975973	125,027743	73,79
2,971946	120,697576	73,89
2,967930	116,668146	73,99
2,963921	113,540927	74,09
2,959983	110,534668	74,19
2,955974	106,264426	74,29
2,951957	103,497869	74,39
2,947956	99,950062	74,49
2,943977	96,100408	74,59
2,939968	92,793413	74,69
2,935937	89,064719	74,79
2,931974	85,997425	74,89
2,927917	82,930131	74,99
2,923945	79,502175	75,09
2,919968	75,352894	75,19
2,915901	72,526412	75,29
2,911944	69,580078	75,39
2,907935	66,271973	75,49
2,903959	61,942915	75,59
2,899976	59,596946	75,69
2,895951	56,109064	75,80
2,891976	52,139560	75,90
2,888009	48,952415	76,00
2,883946	44,922985	76,10
2,879956	42,397239	76,20
2,875972	38,909357	76,30
2,871973	35,842063	76,40
2,867993	32,233221	76,50
2,863909	28,264826	76,60
2,859927	25,858931	76,70
2,855929	23,092374	76,80
2,851941	19,303755	76,90
2,847937	16,837935	77,00
2,843945	12,809615	77,10
2,840012	10,824308	77,20
2,835959	8,178711	77,30
2,831955	4,870605	77,40
2,827978	3,006259	77,50
2,823968	0,962136	77,60
2,819907	-0,301847	77,70