File: Nanoindentation Datenauswertung/data/test
Quasi static measurement routine
Tip parameters (shape,radius, material...)
02.09.2022

Piezo position[nm]	MEMS displ.[nm]	Time[ms]	Cap [pf]	Temp [°C]	Rh [%]
eoh
1,367984	-0,325112	0,187	-0,134356	22,500000	46,420000
1,372077	-0,034351	0,387	-0,134240	22,500000	46,420000
1,375995	-0,041712	0,590	-0,134243	22,500000	46,420000
1,380028	-0,142313	0,790	-0,134283	22,500000	46,420000
1,384018	0,123911	0,990	-0,134177	22,500000	46,420000
1,388067	-0,224511	1,191	-0,134316	22,500000	46,420000
1,392062	-0,250275	1,391	-0,134326	22,490000	46,410000
1,396097	-0,150901	1,591	-0,134287	22,490000	46,410000
1,400016	-0,142313	1,792	-0,134283	22,490000	46,410000
1,404017	-0,041712	1,994	-0,134243	22,490000	46,410000
1,408065	-0,083425	2,197	-0,134260	22,490000	46,410000
1,412087	-0,008588	2,399	-0,134230	22,490000	46,410000
1,416020	-0,092013	2,600	-0,134263	22,490000	46,410000
1,420047	-0,083425	2,800	-0,134260	22,490000	46,410000
1,424073	-0,116550	3,001	-0,134273	22,490000	46,410000
1,428016	-0,175438	3,201	-0,134296	22,490000	46,410000
1,432065	-0,142313	3,402	-0,134283	22,510000	46,440000
1,436037	0,099374	3,602	-0,134187	22,510000	46,440000
1,440057	-0,067476	3,804	-0,134253	22,510000	46,440000
1,444050	-0,008588	4,005	-0,134230	22,510000	46,440000
1,448014	-0,150901	4,205	-0,134287	22,510000	46,440000
1,452031	-0,257636	4,405	-0,134329	22,510000	46,440000
1,456053	-0,266224	4,606	-0,134333	22,510000	46,440000
1,460002	-0,050300	4,806	-0,134247	22,510000	46,440000
1,464035	0,007361	5,007	-0,134224	22,510000	46,440000
1,468048	-0,233099	5,207	-0,134319	22,510000	46,440000
1,472000	-0,133725	5,407	-0,134280	22,500000	46,475000
1,476032	-0,224511	5,608	-0,134316	22,500000	46,475000
1,480025	0,000000	5,808	-0,134227	22,500000	46,475000
1,484085	-0,415898	6,009	-0,134392	22,500000	46,475000
1,488011	-0,050300	6,209	-0,134247	22,500000	46,475000
1,492059	-0,283399	6,410	-0,134339	22,500000	46,475000
1,496049	-0,158262	6,610	-0,134290	22,500000	46,475000
1,500006	-0,041712	6,811	-0,134243	22,500000	46,475000
1,504073	-0,133725	7,013	-0,134280	22,500000	46,475000
1,508022	-0,067476	7,215	-0,134253	22,500000	46,475000
1,512006	-0,109189	7,415	-0,134270	22,500000	46,460000
1,516010	-0,325112	7,615	-0,134356	22,500000	46,460000
1,520040	-0,291987	7,816	-0,134343	22,500000	46,460000
1,524054	-0,408537	8,017	-0,134389	22,500000	46,460000
1,528015	0,082198	8,218	-0,134194	22,500000	46,460000
1,532118	-0,224511	8,418	-0,134316	22,500000	46,460000
1,536026	-0,092013	8,618	-0,134263	22,500000	46,460000
1,540013	-0,008588	8,820	-0,134230	22,500000	46,460000
1,544068	0,148447	9,022	-0,134167	22,500000	46,460000
1,548076	0,198748	9,222	-0,134147	22,500000	46,460000
1,552053	-0,199974	9,422	-0,134306	22,490000	46,435000
1,556069	-0,224511	9,622	-0,134316	22,490000	46,435000
1,560051	-0,166850	9,822	-0,134293	22,490000	46,435000
1,563990	-0,291987	10,023	-0,134343	22,490000	46,435000
1,567994	-0,109189	10,225	-0,134270	22,490000	46,435000
1,572038	-0,133725	10,425	-0,134280	22,490000	46,435000
1,575949	-0,291987	10,625	-0,134343	22,490000	46,435000
1,580084	-0,133725	10,825	-0,134280	22,490000	46,435000
1,584029	-0,316524	11,026	-0,134353	22,490000	46,435000
1,588054	-0,224511	11,228	-0,134316	22,490000	46,435000
1,592031	-0,166850	11,431	-0,134293	22,500000	46,435000
1,596015	-0,100601	11,631	-0,134267	22,500000	46,435000
1,600037	-0,358236	11,832	-0,134369	22,500000	46,435000
1,604061	-0,399949	12,033	-0,134386	22,500000	46,435000
1,608019	-0,274812	12,234	-0,134336	22,500000	46,435000
1,612033	-0,158262	12,434	-0,134290	22,500000	46,435000
1,616037	-0,158262	12,635	-0,134290	22,500000	46,435000
1,620026	-0,133725	12,836	-0,134280	22,500000	46,435000
1,624013	-0,184026	13,037	-0,134300	22,500000	46,435000
1,628011	-0,175438	13,237	-0,134296	22,500000	46,435000
1,632027	0,107962	13,437	-0,134184	22,500000	46,435000
1,636012	-0,224511	13,637	-0,134316	22,500000	46,435000
1,640029	-0,150901	13,837	-0,134287	22,500000	46,435000
1,643990	-0,100601	14,037	-0,134267	22,500000	46,435000
1,648053	-0,041712	14,238	-0,134243	22,500000	46,435000
1,652056	-0,266224	14,439	-0,134333	22,500000	46,435000
1,656086	-0,391361	14,639	-0,134382	22,500000	46,435000
1,659979	-0,092013	14,839	-0,134263	22,500000	46,435000
1,664102	-0,133725	15,040	-0,134280	22,500000	46,435000
1,668045	0,057661	15,240	-0,134204	22,500000	46,435000
1,672045	-0,433074	15,442	-0,134399	22,490000	46,410000
1,676009	-0,158262	15,642	-0,134290	22,490000	46,410000
1,679976	-0,266224	15,843	-0,134333	22,490000	46,410000
1,684012	-0,408537	16,043	-0,134389	22,490000	46,410000
1,688050	-0,199974	16,243	-0,134306	22,490000	46,410000
1,692051	-0,457610	16,444	-0,134409	22,490000	46,410000
1,696023	0,073610	16,644	-0,134197	22,490000	46,410000
1,699984	-0,532447	16,844	-0,134438	22,490000	46,410000
1,704028	-0,283399	17,044	-0,134339	22,490000	46,410000
1,708009	-0,299348	17,245	-0,134346	22,490000	46,410000
1,712006	-0,074837	17,445	-0,134256	22,510000	46,465000
1,715975	-0,150901	17,647	-0,134287	22,510000	46,465000
1,719997	-0,067476	17,849	-0,134253	22,510000	46,465000
1,723977	-0,034351	18,051	-0,134240	22,510000	46,465000
1,728020	-0,325112	18,253	-0,134356	22,510000	46,465000
1,732023	-0,274812	18,454	-0,134336	22,510000	46,465000
1,736031	-0,274812	18,654	-0,134336	22,510000	46,465000
1,740060	-0,466198	18,855	-0,134412	22,510000	46,465000
1,744026	-0,507911	19,055	-0,134429	22,510000	46,465000
1,748037	-0,274812	19,256	-0,134336	22,510000	46,465000
1,752027	-0,150901	19,456	-0,134287	22,510000	46,465000
1,756005	-0,482147	19,657	-0,134418	22,510000	46,465000
1,760001	-0,241687	19,857	-0,134323	22,510000	46,465000
1,763940	-0,307936	20,057	-0,134349	22,510000	46,465000
1,768055	-0,424486	20,257	-0,134396	22,510000	46,465000
1,771999	-0,366824	20,459	-0,134373	22,510000	46,465000
1,776031	-0,074837	20,659	-0,134256	22,510000	46,465000
1,780049	-0,341061	20,859	-0,134362	22,510000	46,465000
1,784021	-0,291987	21,059	-0,134343	22,510000	46,465000
1,788040	-0,415898	21,259	-0,134392	22,510000	46,465000
1,791994	-0,391361	21,461	-0,134382	22,510000	46,425000
1,796015	-0,349649	21,662	-0,134366	22,510000	46,425000
1,799947	-0,532447	21,863	-0,134438	22,510000	46,425000
1,804023	-0,307936	22,065	-0,134349	22,510000	46,425000
1,808018	-0,217150	22,265	-0,134313	22,510000	46,425000
1,812054	-0,433074	22,465	-0,134399	22,510000	46,425000
1,816029	-0,441661	22,665	-0,134402	22,510000	46,425000
1,819988	-0,582748	22,865	-0,134458	22,510000	46,425000
1,824038	-41,453606	23,065	-0,150725	22,510000	46,425000
1,828008	-39,567957	23,265	-0,149975	22,510000	46,425000
1,832002	-35,602819	23,465	-0,148396	22,500000	46,435000
1,836016	-32,145591	23,665	-0,147021	22,500000	46,435000
1,839968	-28,157143	23,865	-0,145433	22,500000	46,435000
1,844001	-23,868120	24,065	-0,143726	22,500000	46,435000
1,848019	-19,871084	24,266	-0,142135	22,500000	46,435000
1,851994	-14,070597	24,466	-0,139827	22,500000	46,435000
1,856029	-11,967798	24,666	-0,138990	22,500000	46,435000
1,859989	-8,012474	24,866	-0,137416	22,500000	46,435000
1,864013	-2,851170	25,067	-0,135361	22,500000	46,435000
1,867984	1,728614	25,267	-0,133539	22,500000	46,435000
1,871958	6,033586	25,467	-0,131825	22,500000	46,435000
1,876033	10,088283	25,667	-0,130211	22,500000	46,435000
1,879952	13,836271	25,867	-0,128720	22,500000	46,435000
1,883960	15,813933	26,068	-0,127933	22,500000	46,435000
1,887954	20,019531	26,268	-0,126259	22,500000	46,435000
1,892037	23,584720	26,470	-0,124840	22,500000	46,435000
1,896040	28,330127	26,672	-0,122951	22,500000	46,435000
1,900002	32,659636	26,873	-0,121228	22,500000	46,435000
1,903946	36,774448	27,073	-0,119590	22,500000	46,435000
1,908012	40,439011	27,274	-0,118132	22,500000	46,435000
1,911986	44,453223	27,474	-0,116534	22,510000	46,465000
1,916003	48,184035	27,674	-0,115049	22,510000	46,465000
1,920012	52,464471	27,875	-0,113346	22,510000	46,465000
1,923973	56,370721	28,075	-0,111791	22,510000	46,465000
1,928009	60,085584	28,275	-0,110313	22,510000	46,465000
1,931956	65,969496	28,477	-0,107971	22,510000	46,465000
1,936018	68,163081	28,677	-0,107098	22,510000	46,465000
1,939993	72,102456	28,877	-0,105530	22,510000	46,465000
1,943999	75,975581	29,078	-0,103988	22,510000	46,465000
1,948008	79,689218	29,279	-0,102510	22,510000	46,465000
1,952007	84,127915	29,479	-0,100744	22,510000	46,425000
1,956012	89,986063	29,679	-0,098412	22,510000	46,425000
1,959991	91,764977	29,879	-0,097704	22,510000	46,425000
1,963994	95,895738	30,080	-0,096060	22,510000	46,425000
1,967974	100,251011	30,282	-0,094327	22,510000	46,425000
1,972013	104,239459	30,484	-0,092739	22,510000	46,425000
1,976019	109,940572	30,684	-0,090470	22,510000	46,425000
1,980016	113,813697	30,884	-0,088929	22,510000	46,425000
1,984004	117,910107	31,084	-0,087298	22,510000	46,425000
1,987982	121,907143	31,285	-0,085708	22,510000	46,425000
1,991976	125,888230	31,485	-0,084123	22,510000	46,425000
1,996020	128,124755	31,685	-0,083233	22,510000	46,425000
1,999982	131,838391	31,885	-0,081755	22,510000	46,425000
2,003984	135,927440	32,086	-0,080127	22,510000	46,425000
2,007995	141,097332	32,286	-0,078070	22,510000	46,425000
2,012029	143,631978	32,486	-0,077061	22,510000	46,425000
2,016016	149,407928	32,686	-0,074762	22,510000	46,425000
2,019992	153,164504	32,886	-0,073267	22,510000	46,425000
2,023954	156,205834	33,087	-0,072057	22,510000	46,425000
2,027985	159,953822	33,288	-0,070565	22,510000	46,425000
2,031991	164,034283	33,489	-0,068941	22,500000	46,450000
2,035993	168,231293	33,691	-0,067271	22,500000	46,450000
2,039996	172,195205	33,892	-0,065693	22,500000	46,450000
2,044018	175,602132	34,095	-0,064337	22,500000	46,450000
2,048028	179,858030	34,296	-0,062643	22,500000	46,450000
2,051974	184,129878	34,496	-0,060943	22,500000	46,450000
2,055996	188,177214	34,696	-0,059332	22,500000	46,450000
2,059966	192,231912	34,897	-0,057718	22,500000	46,450000
2,063969	198,397996	35,097	-0,055264	22,500000	46,450000
2,067939	202,255172	35,297	-0,053729	22,500000	46,450000
2,071926	204,332208	35,497	-0,052902	22,500000	46,460000
2,076020	208,288758	35,697	-0,051328	22,500000	46,460000
2,079993	212,376580	35,898	-0,049701	22,500000	46,460000
2,084016	218,103457	36,098	-0,047421	22,500000	46,460000
2,087971	222,183918	36,298	-0,045797	22,500000	46,460000
2,091954	226,222666	36,498	-0,044190	22,500000	46,460000
2,095993	228,092366	36,698	-0,043446	22,500000	46,460000
2,099958	234,416712	36,898	-0,040929	22,500000	46,460000
2,103966	236,535461	37,099	-0,040085	22,500000	46,460000
2,107938	240,325161	37,299	-0,038577	22,500000	46,460000
2,111987	246,501060	37,500	-0,036119	22,500000	46,380000
2,116030	250,231872	37,700	-0,034634	22,500000	46,380000
2,119923	254,470595	37,900	-0,032947	22,500000	46,380000
2,123941	257,927823	38,101	-0,031571	22,500000	46,380000
2,127982	262,166546	38,303	-0,029884	22,500000	46,380000
2,132012	264,925703	38,504	-0,028786	22,500000	46,380000
2,136010	268,715403	38,704	-0,027278	22,500000	46,380000
2,140020	272,613065	38,906	-0,025727	22,500000	46,380000
2,143962	277,432082	39,106	-0,023809	22,500000	46,380000
2,147927	280,681974	39,306	-0,022515	22,500000	46,380000
2,151947	284,746486	39,506	-0,020897	22,510000	46,440000
2,156013	289,042871	39,706	-0,019187	22,510000	46,440000
2,159950	293,114744	39,906	-0,017567	22,510000	46,440000
2,163922	297,120367	40,106	-0,015973	22,510000	46,440000
2,167997	300,777569	40,306	-0,014517	22,510000	46,440000
2,171969	304,525557	40,507	-0,013025	22,510000	46,440000
2,175932	310,691642	40,708	-0,010571	22,510000	46,440000
2,179973	312,818978	40,908	-0,009725	22,510000	46,440000
2,183978	316,658978	41,109	-0,008196	22,510000	46,440000
2,187967	320,755388	41,310	-0,006566	22,510000	46,440000
2,191957	325,517971	41,510	-0,004670	22,500000	46,460000
2,195980	328,601013	41,711	-0,003443	22,500000	46,460000
2,199994	334,718024	41,911	-0,001009	22,500000	46,460000
2,204023	336,587724	42,113	-0,000265	22,500000	46,460000
2,207971	340,452261	42,314	0,001273	22,500000	46,460000
2,211956	344,790358	42,515	0,003000	22,500000	46,460000
2,216011	348,371496	42,715	0,004425	22,500000	46,460000
2,219991	354,281171	42,915	0,006777	22,500000	46,460000
2,223959	356,607255	43,115	0,007703	22,500000	46,460000
2,227962	362,217582	43,317	0,009936	22,500000	46,460000
2,231951	365,840433	43,518	0,011378	22,500000	46,460000
2,235980	370,528178	43,718	0,013244	22,500000	46,460000
2,239948	374,292115	43,919	0,014742	22,500000	46,460000
2,243973	377,724806	44,120	0,016108	22,500000	46,460000
2,247992	380,991873	44,322	0,017408	22,500000	46,460000
2,251974	384,997497	44,523	0,019002	22,500000	46,460000
2,256014	388,969996	44,724	0,020583	22,500000	46,460000
2,259975	392,767058	44,925	0,022095	22,500000	46,460000
2,264020	397,188580	45,126	0,023854	22,500000	46,460000
2,267988	400,962331	45,327	0,025356	22,510000	46,425000
2,271932	404,875942	45,527	0,026914	22,510000	46,425000
2,275995	408,665643	45,727	0,028422	22,510000	46,425000
2,280011	414,939689	45,928	0,030919	22,510000	46,425000
2,283964	416,685478	46,128	0,031614	22,510000	46,425000
2,288022	421,048112	46,328	0,033351	22,510000	46,425000
2,292046	424,796100	46,528	0,034842	22,510000	46,425000
2,295996	428,768599	46,729	0,036423	22,510000	46,425000
2,299984	434,969035	46,931	0,038891	22,510000	46,425000
2,303930	438,791860	47,133	0,040413	22,510000	46,425000
2,307992	442,771720	47,334	0,041997	22,510000	46,440000
2,311948	446,561420	47,535	0,043505	22,510000	46,440000
2,315951	448,747644	47,736	0,044375	22,510000	46,440000
2,319967	454,100336	47,936	0,046505	22,510000	46,440000
2,324000	457,598049	48,137	0,047897	22,510000	46,440000
2,327943	461,163238	48,337	0,049316	22,510000	46,440000
2,332022	464,721066	48,538	0,050732	22,510000	46,440000
2,335967	469,989106	48,738	0,052829	22,510000	46,440000
2,340013	473,679432	48,939	0,054298	22,510000	46,440000
2,343946	477,718181	49,139	0,055905	22,510000	46,440000
2,347965	481,790054	49,339	0,057526	22,510000	46,440000
2,351994	484,907447	49,539	0,058767	22,510000	46,440000
2,355989	489,553480	49,740	0,060616	22,510000	46,440000
2,359997	492,935871	49,942	0,061962	22,510000	46,440000
2,363990	497,181955	50,143	0,063652	22,510000	46,440000
2,367996	500,731195	50,344	0,065064	22,510000	46,440000
2,372001	504,794480	50,544	0,066682	22,510000	46,440000
2,375908	510,603555	50,744	0,068994	22,510000	46,440000
2,379940	512,871977	50,944	0,069896	22,510000	46,440000
2,383982	518,773065	51,145	0,072245	22,510000	46,440000
2,387954	522,928363	51,345	0,073899	22,510000	46,455000
2,391951	524,606676	51,545	0,074567	22,510000	46,455000
2,395999	528,829450	51,745	0,076248	22,510000	46,455000
2,399959	532,635099	51,946	0,077762	22,510000	46,455000
2,404030	536,790397	52,146	0,079416	22,510000	46,455000
2,407925	540,746948	52,346	0,080991	22,510000	46,455000
2,411949	546,879907	52,547	0,083432	22,510000	46,455000
2,415959	551,026617	52,748	0,085082	22,510000	46,455000
2,419993	552,513544	52,948	0,085674	22,510000	46,455000
2,423983	556,927705	53,149	0,087431	22,510000	46,455000
2,428013	560,641341	53,350	0,088909	22,510000	46,455000
2,431985	564,805227	53,550	0,090566	22,510000	46,455000
2,436001	570,755388	53,750	0,092934	22,510000	46,455000
2,439965	574,727887	53,950	0,094515	22,510000	46,455000
2,443945	578,592425	54,150	0,096053	22,510000	46,455000
2,447999	582,274164	54,351	0,097519	22,510000	46,455000
2,451958	586,920197	54,552	0,099368	22,510000	46,455000
2,456043	589,089245	54,752	0,100231	22,510000	46,455000
2,459952	594,108236	54,954	0,102229	22,510000	46,455000
2,463958	597,009707	55,155	0,103383	22,510000	46,455000
2,467968	601,280327	55,356	0,105083	22,510000	46,400000
2,471968	605,752149	55,557	0,106863	22,510000	46,400000
2,476034	611,195627	55,758	0,109029	22,510000	46,400000
2,479951	615,076113	55,960	0,110574	22,510000	46,400000
2,484011	617,461085	56,160	0,111523	22,510000	46,400000
2,488005	621,250785	56,360	0,113031	22,510000	46,400000
2,491959	627,200946	56,560	0,115399	22,510000	46,400000
2,495990	629,012985	56,760	0,116121	22,510000	46,400000
2,500047	635,304207	56,962	0,118625	22,510000	46,400000
2,503990	636,980066	57,162	0,119292	22,510000	46,400000
2,507983	643,266381	57,363	0,121793	22,510000	46,400000
2,511974	646,814394	57,563	0,123206	22,510000	46,400000
2,515963	649,482765	57,764	0,124268	22,510000	46,400000
2,520007	653,612300	57,964	0,125911	22,510000	46,400000
2,523998	657,177489	58,165	0,127330	22,510000	46,400000
2,527947	661,026078	58,365	0,128862	22,510000	46,400000
2,531969	666,826564	58,565	0,131170	22,510000	46,400000
2,535934	671,073875	58,766	0,132861	22,510000	46,400000
2,539985	673,117786	58,967	0,133674	22,510000	46,400000
2,543976	677,738056	59,169	0,135513	22,510000	46,400000
2,547997	681,560881	59,370	0,137035	22,500000	46,410000
2,551925	687,495093	59,572	0,139396	22,500000	46,410000
2,556022	689,248243	59,773	0,140094	22,500000	46,410000
2,560031	694,052538	59,973	0,142006	22,500000	46,410000
2,564051	699,071530	60,173	0,144004	22,500000	46,410000
2,567988	701,663837	60,374	0,145036	22,500000	46,410000
2,571982	708,047071	60,575	0,147576	22,500000	46,410000
2,575898	711,961909	60,776	0,149134	22,500000	46,410000
2,579938	715,560223	60,976	0,150566	22,500000	46,410000
2,583937	717,588185	61,176	0,151374	22,500000	46,410000
2,587990	721,834269	61,377	0,153063	22,500000	46,410000
2,591984	725,449759	61,577	0,154502	22,500000	46,410000
2,595985	731,782693	61,777	0,157023	22,500000	46,410000
2,599993	733,511307	61,977	0,157711	22,500000	46,410000
2,603917	739,452880	62,177	0,160076	22,500000	46,410000
2,608035	743,275705	62,377	0,161597	22,500000	46,410000
2,611944	745,519590	62,578	0,162490	22,500000	46,410000
2,615940	749,533802	62,778	0,164088	22,500000	46,410000
2,619992	753,755349	62,978	0,165768	22,500000	46,410000
2,623933	757,403963	63,179	0,167220	22,500000	46,410000
2,627972	763,453498	63,380	0,169628	22,510000	46,465000
2,631983	767,326623	63,580	0,171169	22,510000	46,465000
2,635972	771,673308	63,780	0,172899	22,510000	46,465000
2,639960	773,393334	63,980	0,173584	22,510000	46,465000
2,643931	779,501757	64,181	0,176015	22,510000	46,465000
2,648014	783,498793	64,381	0,177606	22,510000	46,465000
2,651942	787,530180	64,581	0,179210	22,510000	46,465000
2,655985	791,302705	64,781	0,180712	22,510000	46,465000
2,659958	795,740175	64,981	0,182478	22,510000	46,465000
2,663966	797,569390	65,182	0,183206	22,510000	46,465000
2,667970	801,425340	65,383	0,184741	22,510000	46,440000
2,671926	805,754848	65,583	0,186464	22,510000	46,440000
2,675989	811,431425	65,784	0,188723	22,510000	46,440000
2,679968	815,370799	65,985	0,190291	22,510000	46,440000
2,683949	819,143324	66,185	0,191792	22,510000	46,440000
2,687924	822,417753	66,387	0,193096	22,510000	46,440000
2,691997	826,722725	66,587	0,194809	22,510000	46,440000
2,696012	830,379927	66,787	0,196265	22,510000	46,440000
2,700017	833,936528	66,987	0,197680	22,510000	46,440000
2,703939	838,648810	67,187	0,199556	22,510000	46,440000
2,707987	842,055738	67,388	0,200912	22,510000	46,440000
2,711982	846,094486	67,588	0,202519	22,510000	46,440000
2,715983	850,241196	67,788	0,204169	22,510000	46,440000
2,720004	854,214922	67,990	0,205751	22,510000	46,440000
2,723971	857,904022	68,192	0,207219	22,510000	46,440000
2,727956	861,860572	68,393	0,208794	22,510000	46,440000
2,731973	865,948394	68,594	0,210421	22,510000	46,440000
2,736006	870,054619	68,794	0,212055	22,510000	46,440000
2,739949	876,312716	68,994	0,214546	22,510000	46,440000
2,743939	877,467170	69,194	0,215005	22,510000	46,440000
2,748009	883,925241	69,394	0,217576	22,500000	46,435000
2,751949	887,015645	69,595	0,218806	22,500000	46,435000
2,755940	890,531760	69,795	0,220205	22,500000	46,435000
2,759954	896,066023	69,996	0,222408	22,500000	46,435000
2,764016	899,648388	70,196	0,223833	22,500000	46,435000
2,768008	901,700887	70,396	0,224650	22,500000	46,435000
2,771945	907,053578	70,596	0,226781	22,500000	46,435000
2,776006	911,757273	70,797	0,228653	22,500000	46,435000
2,779993	914,566730	70,997	0,229771	22,500000	46,435000
2,783939	919,826182	71,198	0,231864	22,500000	46,435000
2,787953	921,746182	71,399	0,232628	22,490000	46,395000
2,791948	925,661020	71,599	0,234187	22,490000	46,395000
2,795981	929,948816	71,800	0,235893	22,490000	46,395000
2,799956	933,938491	72,000	0,237481	22,490000	46,395000
2,803968	937,893815	72,200	0,239055	22,490000	46,395000
2,807950	943,652589	72,400	0,241347	22,490000	46,395000
2,811949	947,858187	72,601	0,243021	22,490000	46,395000
2,816009	951,348540	72,802	0,244410	22,490000	46,395000
2,819985	954,107697	73,002	0,245508	22,490000	46,395000
2,823973	957,697423	73,203	0,246937	22,490000	46,395000
2,827945	961,678510	73,404	0,248521	22,510000	46,465000
2,831995	967,612722	73,605	0,250883	22,510000	46,465000
2,835981	970,389055	73,806	0,251988	22,510000	46,465000
2,839928	973,745682	74,007	0,253324	22,510000	46,465000
2,843949	979,347421	74,207	0,255554	22,510000	46,465000
2,847945	983,976278	74,407	0,257396	22,510000	46,465000
2,851928	985,962527	74,607	0,258187	22,510000	46,465000
2,855933	990,093289	74,807	0,259831	22,510000	46,465000
2,859957	994,140625	75,008	0,261441	22,510000	46,465000
2,863930	998,129073	75,208	0,263029	22,510000	46,465000
2,867947	1003,722224	75,408	0,265255	22,490000	46,450000
2,867955	1003,863311	75,609	0,265311	22,490000	46,450000
2,867995	1003,997036	75,809	0,265364	22,490000	46,450000
2,867975	1003,713637	76,010	0,265251	22,490000	46,450000
2,867932	1003,622851	76,211	0,265215	22,490000	46,450000
2,867951	1003,788474	76,412	0,265281	22,490000	46,450000
2,863967	1001,594889	76,613	0,264408	22,490000	46,450000
2,859938	997,439591	76,813	0,262754	22,490000	46,450000
2,855991	993,183692	77,014	0,261061	22,490000	46,450000
2,851989	987,283831	77,214	0,258712	22,490000	46,450000
2,847932	985,106195	77,415	0,257846	22,500000	46,420000
2,844013	980,867472	77,616	0,256159	22,500000	46,420000
2,839918	974,868238	77,816	0,253771	22,500000	46,420000
2,835984	970,878563	78,016	0,252183	22,500000	46,420000
2,832007	967,031201	78,216	0,250652	22,500000	46,420000
2,827951	962,825603	78,416	0,248978	22,500000	46,420000
2,823985	960,374382	78,617	0,248002	22,500000	46,420000
2,819954	955,803186	78,819	0,246183	22,500000	46,420000
2,815983	951,465089	79,020	0,244457	22,500000	46,420000
2,811955	948,148948	79,220	0,243137	22,500000	46,420000
2,807959	944,202212	79,422	0,241566	22,520000	46,440000
2,803981	939,822403	79,624	0,239823	22,520000	46,440000
2,799943	934,104114	79,824	0,237547	22,520000	46,440000
2,795973	932,093328	80,025	0,236747	22,520000	46,440000
2,791949	927,396995	80,225	0,234877	22,520000	46,440000
2,787897	923,965531	80,425	0,233512	22,520000	46,440000
2,783943	919,968495	80,626	0,231921	22,520000	46,440000
2,779977	915,729772	80,826	0,230234	22,520000	46,440000
2,775956	909,804148	81,026	0,227875	22,520000	46,440000
2,771963	905,574013	81,228	0,226192	22,520000	46,440000
2,767941	901,136542	81,428	0,224426	22,510000	46,425000
2,763955	899,049692	81,628	0,223595	22,510000	46,425000
2,759958	895,501678	81,828	0,222183	22,510000	46,425000
2,755943	888,928284	82,029	0,219567	22,510000	46,425000
2,751974	885,071107	82,230	0,218032	22,510000	46,425000
2,747991	880,990647	82,430	0,216408	22,510000	46,425000
2,743926	878,929560	82,630	0,215587	22,510000	46,425000
2,739919	874,683476	82,830	0,213897	22,510000	46,425000
2,735942	870,561303	83,032	0,212257	22,510000	46,425000
2,731997	865,025813	83,233	0,210054	22,510000	46,425000
2,727957	862,184457	83,434	0,208923	22,500000	46,410000
2,723966	858,178834	83,634	0,207329	22,500000	46,410000
2,719906	853,657938	83,834	0,205529	22,500000	46,410000
2,715975	848,505221	84,034	0,203479	22,500000	46,410000
2,711993	844,781770	84,235	0,201997	22,500000	46,410000
2,707978	842,214000	84,437	0,200975	22,500000	46,410000
2,703989	837,376580	84,637	0,199049	22,500000	46,410000
2,699946	832,813972	84,837	0,197233	22,500000	46,410000
2,695923	827,645307	85,038	0,195176	22,500000	46,410000
2,691971	825,467670	85,239	0,194310	22,500000	46,410000
2,688006	821,677970	85,440	0,192801	22,500000	46,410000
2,683951	817,506723	85,640	0,191141	22,500000	46,410000
2,680024	813,393138	85,840	0,189504	22,500000	46,410000
2,675909	809,727348	86,040	0,188045	22,500000	46,410000
2,671983	805,589225	86,242	0,186398	22,500000	46,410000
2,668020	801,416752	86,442	0,184737	22,500000	46,410000
2,663962	797,470016	86,642	0,183167	22,500000	46,410000
2,659946	793,605479	86,842	0,181628	22,500000	46,410000
2,655934	789,058819	87,042	0,179819	22,500000	46,410000
2,651985	784,969771	87,243	0,178191	22,500000	46,410000
2,648004	780,997272	87,443	0,176610	22,510000	46,425000
2,643985	777,116785	87,643	0,175066	22,510000	46,425000
2,639917	772,521053	87,844	0,173237	22,510000	46,425000
2,635980	768,839314	88,044	0,171771	22,510000	46,425000
2,632014	762,539504	88,244	0,169264	22,510000	46,425000
2,628011	758,784155	88,445	0,167770	22,510000	46,425000
2,623965	754,860729	88,645	0,166208	22,510000	46,425000
2,619957	752,209534	88,845	0,165153	22,510000	46,425000
2,615997	748,611220	89,045	0,163721	22,510000	46,425000
2,611975	744,497635	89,246	0,162083	22,510000	46,425000
2,607941	738,331550	89,447	0,159629	22,510000	46,425000
2,604016	734,416712	89,648	0,158071	22,510000	46,425000
2,599948	730,503101	89,848	0,156514	22,510000	46,425000
2,595966	728,475139	90,048	0,155707	22,510000	46,425000
2,591992	724,311254	90,248	0,154049	22,510000	46,425000
2,587996	718,676390	90,448	0,151807	22,510000	46,425000
2,584034	714,437667	90,648	0,150120	22,510000	46,425000
2,579973	710,914190	90,850	0,148717	22,510000	46,425000
2,575979	706,318458	91,051	0,146888	22,510000	46,425000
2,571968	702,363134	91,252	0,145314	22,510000	46,425000
2,567967	698,855606	91,453	0,143918	22,510000	46,400000
2,563971	694,708896	91,653	0,142268	22,510000	46,400000
2,559964	689,431042	91,854	0,140167	22,510000	46,400000
2,555983	687,228869	92,055	0,139291	22,510000	46,400000
2,551920	683,938491	92,255	0,137981	22,510000	46,400000
2,547956	679,417596	92,456	0,136182	22,510000	46,400000
2,543977	675,344496	92,656	0,134561	22,510000	46,400000
2,539969	671,239498	92,857	0,132927	22,510000	46,400000
2,536028	667,500098	93,057	0,131438	22,510000	46,400000
2,532019	663,269963	93,259	0,129755	22,510000	46,400000
2,527976	659,180914	93,460	0,128127	22,510000	46,400000
2,523987	655,324965	93,660	0,126593	22,510000	46,400000
2,520003	649,258254	93,860	0,124178	22,510000	46,400000
2,515960	645,177793	94,060	0,122554	22,510000	46,400000
2,511967	640,773447	94,261	0,120801	22,510000	46,400000
2,507967	637,132194	94,462	0,119352	22,510000	46,400000
2,503981	635,037983	94,662	0,118519	22,510000	46,400000
2,500006	631,082659	94,862	0,116944	22,510000	46,400000
2,496025	626,793636	95,063	0,115237	22,510000	46,400000
2,492006	621,201712	95,265	0,113012	22,510000	46,400000
2,487978	616,904101	95,466	0,111301	22,500000	46,450000
2,483958	613,098451	95,667	0,109787	22,500000	46,450000
2,480019	609,458425	95,867	0,108338	22,500000	46,450000
2,475964	605,386552	96,067	0,106717	22,500000	46,450000
2,472026	601,039867	96,268	0,104987	22,500000	46,450000
2,467968	597,556876	96,469	0,103601	22,500000	46,450000
2,463962	593,286255	96,669	0,101901	22,500000	46,450000
2,459995	589,355469	96,869	0,100337	22,500000	46,450000
2,456038	586,096989	97,069	0,099040	22,500000	46,450000
2,451945	581,601857	97,269	0,097251	22,500000	46,450000
2,447973	578,185115	97,470	0,095891	22,510000	46,415000
2,443968	574,296041	97,670	0,094343	22,510000	46,415000
2,439983	569,583759	97,870	0,092468	22,510000	46,415000
2,435991	564,223706	98,071	0,090334	22,510000	46,415000
2,432007	562,138083	98,273	0,089504	22,510000	46,415000
2,428060	556,129034	98,473	0,087113	22,510000	46,415000
2,424011	553,818899	98,674	0,086193	22,510000	46,415000
2,420006	549,888112	98,874	0,084629	22,510000	46,415000
2,415955	545,624853	99,074	0,082932	22,510000	46,415000
2,411975	539,607216	99,275	0,080537	22,510000	46,415000
2,407929	535,951241	99,475	0,079082	22,500000	46,420000
2,403972	531,778767	99,675	0,077421	22,500000	46,420000
2,399994	527,881105	99,875	0,075870	22,500000	46,420000
2,395996	526,161079	100,076	0,075186	22,500000	46,420000
2,391997	521,897819	100,276	0,073489	22,500000	46,420000
2,387988	517,817358	100,477	0,071865	22,500000	46,420000
2,384024	513,554099	100,679	0,070168	22,500000	46,420000
2,379957	507,711899	100,880	0,067843	22,500000	46,420000
2,376027	503,332090	101,081	0,066100	22,500000	46,420000
2,372013	499,849099	101,281	0,064713	22,500000	46,420000
2,367976	497,589265	101,482	0,063814	22,500000	46,420000
2,363947	492,610759	101,682	0,061833	22,500000	46,420000
2,360003	488,197825	101,883	0,060076	22,500000	46,420000
2,355978	483,519894	102,084	0,058214	22,500000	46,420000
2,351952	480,087204	102,284	0,056848	22,500000	46,420000
2,347998	476,081580	102,484	0,055254	22,500000	46,420000
2,344042	473,613183	102,684	0,054271	22,500000	46,420000
2,340021	468,119406	102,884	0,052085	22,500000	46,420000
2,336008	464,014408	103,085	0,050451	22,500000	46,420000
2,331945	461,155877	103,286	0,049313	22,500000	46,420000
2,328000	456,476720	103,486	0,047451	22,510000	46,425000
2,323978	453,259952	103,686	0,046171	22,510000	46,425000
2,320019	449,421178	103,887	0,044643	22,510000	46,425000
2,316003	444,600934	104,087	0,042725	22,510000	46,425000
2,312011	440,802646	104,287	0,041213	22,510000	46,425000
2,307972	436,755310	104,488	0,039602	22,510000	46,425000
2,304023	432,974197	104,688	0,038097	22,510000	46,425000
2,300013	426,890311	104,888	0,035676	22,510000	46,425000
2,295990	425,012023	105,089	0,034928	22,510000	46,425000
2,292017	420,856725	105,290	0,033274	22,510000	46,425000
2,287984	417,000775	105,490	0,031740	22,500000	46,420000
2,284027	412,712979	105,691	0,030033	22,500000	46,420000
2,279963	408,740480	105,892	0,028452	22,500000	46,420000
2,275980	402,781731	106,092	0,026081	22,500000	46,420000
2,272043	400,720644	106,293	0,025260	22,500000	46,420000
2,268002	396,997193	106,493	0,023778	22,500000	46,420000
2,263977	392,908144	106,694	0,022151	22,500000	46,420000
2,260024	386,766597	106,895	0,019707	22,500000	46,420000
2,256015	382,868935	107,097	0,018155	22,500000	46,420000
2,252015	378,997036	107,297	0,016614	22,500000	46,420000
2,248009	376,810812	107,498	0,015744	22,500000	46,410000
2,243954	372,780651	107,698	0,014140	22,500000	46,410000
2,239956	366,896740	107,898	0,011798	22,500000	46,410000
2,236031	362,732854	108,098	0,010141	22,500000	46,410000
2,232015	360,422719	108,298	0,009222	22,500000	46,410000
2,227986	356,424456	108,499	0,007630	22,500000	46,410000
2,224007	351,255791	108,699	0,005573	22,500000	46,410000
2,220047	348,031662	108,899	0,004290	22,500000	46,410000
2,216047	343,394217	109,100	0,002444	22,500000	46,410000
2,211996	339,205795	109,300	0,000777	22,500000	46,410000
2,208018	335,266420	109,500	-0,000791	22,500000	46,450000
2,204022	331,276745	109,700	-0,002378	22,500000	46,450000
2,200001	328,326201	109,900	-0,003553	22,500000	46,450000
2,195993	323,947619	110,100	-0,005295	22,500000	46,450000
2,192009	319,169088	110,300	-0,007197	22,500000	46,450000
2,187997	315,711860	110,500	-0,008573	22,500000	46,450000
2,184007	311,215501	110,700	-0,010363	22,500000	46,450000
2,180014	308,331207	110,901	-0,011511	22,500000	46,450000
2,175980	303,411589	111,101	-0,013469	22,500000	46,450000
2,171977	300,370260	111,302	-0,014679	22,500000	46,450000
2,167979	296,239498	111,503	-0,016323	22,510000	46,455000
2,164004	292,383549	111,705	-0,017858	22,510000	46,455000
2,159997	288,136238	111,906	-0,019548	22,510000	46,455000
2,156031	282,368876	112,106	-0,021844	22,510000	46,455000
2,152025	279,825642	112,307	-0,022856	22,510000	46,455000
2,148037	276,568389	112,508	-0,024152	22,510000	46,455000
2,143965	272,164043	112,708	-0,025905	22,510000	46,455000
2,139995	266,031083	112,909	-0,028346	22,510000	46,455000
2,136011	264,234993	113,110	-0,029061	22,510000	46,455000
2,132000	260,204833	113,311	-0,030665	22,510000	46,455000
2,127997	256,190621	113,513	-0,032263	22,510000	46,455000
2,123969	250,073610	113,713	-0,034697	22,510000	46,455000
2,119954	246,267961	113,913	-0,036212	22,510000	46,455000
2,116020	242,394836	114,113	-0,037753	22,510000	46,455000
2,112020	240,582797	114,314	-0,038475	22,510000	46,455000
2,108011	236,028777	114,514	-0,040287	22,510000	46,455000
2,103973	230,452801	114,714	-0,042506	22,510000	46,455000
2,100008	226,231254	114,915	-0,044187	22,510000	46,455000
2,095932	222,715138	115,115	-0,045586	22,510000	46,455000
2,091981	218,951201	115,315	-0,047084	22,510000	46,455000
2,088046	215,078076	115,516	-0,048625	22,510000	46,440000
2,083983	211,745986	115,717	-0,049952	22,510000	46,440000
2,080008	207,989410	115,917	-0,051447	22,510000	46,440000
2,076021	203,708975	116,118	-0,053150	22,510000	46,440000
2,071985	199,687402	116,318	-0,054751	22,510000	46,440000
2,068031	195,648653	116,518	-0,056358	22,510000	46,440000
2,063942	192,290800	116,719	-0,057695	22,510000	46,440000
2,060020	188,252051	116,920	-0,059302	22,510000	46,440000
2,056040	184,062402	117,121	-0,060970	22,510000	46,440000
2,052017	180,272701	117,323	-0,062478	22,510000	46,415000
2,048043	176,076918	117,524	-0,064148	22,510000	46,415000
2,044032	172,095831	117,724	-0,065732	22,510000	46,415000
2,040032	168,297542	117,924	-0,067244	22,510000	46,415000
2,035957	164,466129	118,125	-0,068769	22,510000	46,415000
2,031973	160,635943	118,326	-0,070293	22,510000	46,415000
2,028005	156,197246	118,526	-0,072060	22,510000	46,415000
2,023961	150,421296	118,726	-0,074359	22,510000	46,415000
2,020037	146,340835	118,927	-0,075983	22,510000	46,415000
2,015983	142,302087	119,127	-0,077590	22,510000	46,415000
2,011992	138,270699	119,328	-0,079195	22,510000	46,440000
2,007981	136,043989	119,529	-0,080081	22,510000	46,440000
2,004027	132,071490	119,729	-0,081662	22,510000	46,440000
1,999958	126,046492	119,929	-0,084060	22,510000	46,440000
1,996026	122,206491	120,129	-0,085588	22,510000	46,440000
1,992048	118,284293	120,330	-0,087149	22,510000	46,440000
1,988003	115,949621	120,530	-0,088079	22,510000	46,440000
1,984027	109,931984	120,731	-0,090474	22,510000	46,440000
1,979991	106,258833	120,932	-0,091936	22,510000	46,440000
1,976036	103,050654	121,132	-0,093212	22,510000	46,440000
1,972017	98,305247	121,332	-0,095101	22,510000	46,440000
1,968043	94,491010	121,533	-0,096619	22,510000	46,440000
1,964020	90,377424	121,733	-0,098256	22,510000	46,440000
1,959976	85,906829	121,933	-0,100036	22,510000	46,440000
1,955941	82,507263	122,133	-0,101389	22,510000	46,440000
1,952001	79,349384	122,333	-0,102646	22,510000	46,440000
1,948021	74,520552	122,534	-0,104567	22,510000	46,440000
1,944059	70,448679	122,734	-0,106188	22,510000	46,440000
1,940012	66,035745	122,934	-0,107944	22,510000	46,440000
1,936024	62,686479	123,136	-0,109277	22,510000	46,440000
1,932004	56,635718	123,337	-0,111686	22,500000	46,450000
1,927971	54,541506	123,537	-0,112519	22,500000	46,450000
1,924031	50,004662	123,738	-0,114325	22,500000	46,450000
1,920019	46,514310	123,939	-0,115714	22,500000	46,450000
1,915996	42,441210	124,141	-0,117335	22,500000	46,450000
1,912024	38,186538	124,341	-0,119028	22,500000	46,450000
1,907995	31,862192	124,541	-0,121545	22,500000	46,450000
1,904017	27,881105	124,741	-0,123130	22,500000	46,450000
1,900018	23,460810	124,942	-0,124889	22,500000	46,450000
1,895990	19,554560	125,143	-0,126444	22,500000	46,450000
1,892002	15,739096	125,344	-0,127962	22,500000	46,410000
1,888004	11,559261	125,545	-0,129626	22,500000	46,410000
1,884001	7,445676	125,745	-0,131263	22,500000	46,410000
1,879970	4,944154	125,945	-0,132259	22,500000	46,410000
1,876041	1,253828	126,145	-0,133728	22,500000	46,410000
1,872035	-2,543234	126,345	-0,135239	22,500000	46,410000
1,868026	-8,809919	126,545	-0,137733	22,500000	46,410000
1,864013	-13,073178	126,745	-0,139430	22,500000	46,410000
1,860011	-17,070214	126,945	-0,141021	22,500000	46,410000
1,856043	-18,974266	127,145	-0,141778	22,500000	46,410000
1,851995	-23,028963	127,346	-0,143392	22,500000	46,435000
1,848037	-28,872389	127,546	-0,145718	22,500000	46,435000
1,844010	-33,217847	127,747	-0,147447	22,500000	46,435000
1,839984	-36,326653	127,948	-0,148685	22,500000	46,435000
1,836046	-41,005810	128,148	-0,150547	22,500000	46,435000
1,832011	-44,271651	128,348	-0,151847	22,500000	46,435000
1,828020	-48,177901	128,548	-0,153401	22,500000	46,435000
1,824025	-52,523359	128,749	-0,155131	22,500000	46,435000
1,819997	-56,471321	128,950	-0,156702	22,500000	46,435000
1,815979	-60,459770	129,151	-0,158290	22,500000	46,435000
1,812013	-63,950122	129,351	-0,159679	22,520000	46,455000
1,808036	-68,704116	129,552	-0,161571	22,520000	46,455000
1,804038	-72,352730	129,754	-0,163023	22,520000	46,455000
1,800036	-76,076182	129,954	-0,164505	22,520000	46,455000
1,796001	-80,015556	130,155	-0,166073	22,520000	46,455000
1,792046	-84,545040	130,356	-0,167875	22,520000	46,455000
1,788029	-88,192427	130,556	-0,169327	22,520000	46,455000
1,784038	-94,176939	130,757	-0,171709	22,520000	46,455000
1,780049	-96,819547	130,957	-0,172761	22,520000	46,455000
1,776024	-100,734385	131,157	-0,174319	22,520000	46,455000
1,772012	-104,714245	131,359	-0,175903	22,500000	46,435000
1,767995	-108,878131	131,559	-0,177560	22,500000	46,435000
1,764071	-113,057966	131,760	-0,179224	22,500000	46,435000
1,760009	-119,300114	131,960	-0,181708	22,500000	46,435000
1,756059	-123,180600	132,161	-0,183252	22,500000	46,435000
1,752067	-126,472205	132,364	-0,184562	22,500000	46,435000
1,748064	-129,106224	132,564	-0,185611	22,500000	46,435000
1,744005	-133,818507	132,764	-0,187486	22,500000	46,435000
1,740068	-138,530789	132,964	-0,189362	22,500000	46,435000
1,736032	-142,719211	133,165	-0,191029	22,500000	46,435000
1,731973	-145,851327	133,366	-0,192275	22,500000	46,435000
1,728003	-150,131762	133,566	-0,193979	22,500000	46,435000
1,724055	-153,979124	133,766	-0,195510	22,500000	46,435000
1,720033	-157,378690	133,966	-0,196863	22,500000	46,435000
1,716022	-162,498282	134,166	-0,198901	22,500000	46,435000
1,712054	-165,955510	134,366	-0,200277	22,500000	46,435000
1,708003	-169,820048	134,567	-0,201815	22,500000	46,435000
1,704037	-174,365480	134,767	-0,203624	22,500000	46,435000
1,700060	-180,000344	134,969	-0,205867	22,500000	46,435000
1,696049	-181,970644	135,170	-0,206651	22,500000	46,435000
1,692031	-186,639987	135,371	-0,208509	22,510000	46,440000
1,687996	-189,923004	135,571	-0,209816	22,510000	46,440000
1,683945	-194,012052	135,772	-0,211443	22,510000	46,440000
1,680016	-198,217651	135,974	-0,213117	22,510000	46,440000
1,676011	-202,139850	136,174	-0,214678	22,510000	46,440000
1,672077	-206,204362	136,374	-0,216296	22,510000	46,440000
1,668018	-210,367021	136,574	-0,217953	22,510000	46,440000
1,664043	-214,422945	136,775	-0,219567	22,510000	46,440000
1,660004	-220,315444	136,975	-0,221912	22,510000	46,440000
1,656027	-224,371369	137,175	-0,223526	22,510000	46,440000
1,652033	-228,542615	137,376	-0,225187	22,510000	46,440000
1,648024	-232,506527	137,576	-0,226764	22,510000	46,440000
1,644050	-234,484189	137,776	-0,227551	22,510000	46,440000
1,640033	-239,454106	137,976	-0,229529	22,510000	46,440000
1,635996	-242,603398	138,176	-0,230783	22,510000	46,440000
1,632098	-248,446824	138,376	-0,233108	22,510000	46,440000
1,628069	-253,042557	138,577	-0,234937	22,510000	46,440000
1,624045	-254,846007	138,779	-0,235655	22,510000	46,440000
1,620034	-260,230596	138,979	-0,237798	22,510000	46,440000
1,615980	-263,821549	139,180	-0,239228	22,510000	46,440000
1,612020	-266,737741	139,382	-0,240388	22,510000	46,455000
1,608016	-270,884452	139,582	-0,242039	22,510000	46,455000
1,604075	-274,766165	139,782	-0,243583	22,510000	46,455000
1,600092	-279,337361	139,983	-0,245403	22,510000	46,455000
1,596069	-0,166850	140,183	-0,134293	22,510000	46,455000
1,592065	-0,250275	140,384	-0,134326	22,510000	46,455000
1,588045	-0,291987	140,584	-0,134343	22,510000	46,455000
1,583991	-0,184026	140,785	-0,134300	22,510000	46,455000
1,580028	-0,274812	140,985	-0,134336	22,510000	46,455000
1,576062	-0,083425	141,185	-0,134260	22,510000	46,455000
1,572009	0,000000	141,385	-0,134227	22,510000	46,465000
1,568010	-0,074837	141,585	-0,134256	22,510000	46,465000
1,564071	0,031898	141,785	-0,134214	22,510000	46,465000
1,560064	-0,041712	141,985	-0,134243	22,510000	46,465000
1,556054	-0,074837	142,185	-0,134256	22,510000	46,465000
1,552038	-0,266224	142,385	-0,134333	22,510000	46,465000
1,547994	-0,208562	142,585	-0,134310	22,510000	46,465000
1,544065	0,224511	142,786	-0,134137	22,510000	46,465000
1,539997	-0,241687	142,987	-0,134323	22,510000	46,465000
1,536115	-0,175438	143,187	-0,134296	22,510000	46,465000
1,532013	-0,083425	143,388	-0,134260	22,510000	46,465000
1,528054	-0,092013	143,588	-0,134263	22,510000	46,465000
1,524049	-0,217150	143,789	-0,134313	22,510000	46,465000
1,520037	0,141086	143,990	-0,134170	22,510000	46,465000
1,516059	0,157035	144,190	-0,134164	22,510000	46,465000
1,512035	-0,316524	144,391	-0,134353	22,510000	46,465000
1,508056	-0,424486	144,591	-0,134396	22,510000	46,465000
1,504042	-0,025764	144,791	-0,134237	22,510000	46,465000
1,500044	-0,217150	144,993	-0,134313	22,510000	46,465000
1,496014	-0,083425	145,193	-0,134260	22,510000	46,465000
1,491992	-0,083425	145,393	-0,134260	22,510000	46,425000
1,488046	-0,008588	145,594	-0,134230	22,510000	46,425000
1,484064	-0,050300	145,795	-0,134247	22,510000	46,425000
1,480047	-0,067476	145,998	-0,134253	22,510000	46,425000
1,476063	-0,041712	146,198	-0,134243	22,510000	46,425000
1,472103	0,099374	146,399	-0,134187	22,510000	46,425000
1,468040	-0,092013	146,601	-0,134263	22,510000	46,425000
1,464058	-0,208562	146,802	-0,134310	22,510000	46,425000
1,460085	-0,133725	147,003	-0,134280	22,510000	46,425000
1,456054	-0,067476	147,204	-0,134253	22,510000	46,425000
1,452084	-0,034351	147,404	-0,134240	22,510000	46,425000
1,448040	-0,058888	147,604	-0,134250	22,510000	46,425000
1,444037	-0,250275	147,804	-0,134326	22,510000	46,425000
1,440032	-0,125137	148,005	-0,134276	22,510000	46,425000
1,436068	-0,175438	148,206	-0,134296	22,510000	46,425000
1,432038	-0,184026	148,406	-0,134300	22,510000	46,425000
1,428076	-0,158262	148,608	-0,134290	22,510000	46,425000
1,424048	-0,233099	148,809	-0,134319	22,510000	46,425000
1,420077	-0,191387	149,010	-0,134303	22,510000	46,425000
1,416101	-0,116550	149,210	-0,134273	22,510000	46,425000
1,411996	-0,191387	149,410	-0,134303	22,510000	46,425000
1,408088	-0,175438	149,610	-0,134296	22,510000	46,425000
1,404082	-0,008588	149,811	-0,134230	22,510000	46,425000
1,400117	-0,083425	150,011	-0,134260	22,510000	46,425000
1,396070	-0,166850	150,211	-0,134293	22,510000	46,425000
1,391994	-0,257636	150,412	-0,134329	22,510000	46,425000
1,388044	-0,092013	150,612	-0,134263	22,510000	46,425000
1,384011	-0,092013	150,814	-0,134263	22,510000	46,425000
1,380089	-0,074837	151,015	-0,134256	22,510000	46,425000
1,376051	-0,133725	151,216	-0,134280	22,510000	46,425000
1,372036	0,015949	151,417	-0,134220	22,520000	46,415000
1,368026	-0,100601	151,617	-0,134267	22,520000	46,415000