File: Nanoindentation Datenauswertung/data/MEMS Dynamik/test-2,1nm,20nms,0,2um
Quasi static measurement routine
Tip parameters (shape,radius, material...)
15.07.2022

Piezo position[nm]	MEMS displ.[nm]	Time[ms]	Cap [pf]
eoh
2,803928	0,060754	0,180	-0,092693
2,804952	0,913558	0,230	-0,092323
2,805890	1,585226	0,280	-0,092031
2,806923	2,072383	0,331	-0,091820
2,807985	3,169328	0,381	-0,091344
2,808977	3,962504	0,431	-0,091000
2,809856	4,206644	0,481	-0,090894
2,810909	5,059449	0,531	-0,090523
2,811931	5,731117	0,581	-0,090232
2,812950	6,462414	0,631	-0,089915
2,813930	7,681992	0,682	-0,089385
2,814892	7,621238	0,732	-0,089412
2,815966	7,681992	0,782	-0,089385
2,816911	9,023077	0,833	-0,088803
2,817963	9,572113	0,884	-0,088565
2,818959	10,181902	0,934	-0,088300
2,819883	10,608304	0,985	-0,088115
2,820946	9,998515	1,036	-0,088380
2,821935	10,730937	1,086	-0,088062
2,822979	11,157339	1,136	-0,087877
2,823915	11,767128	1,187	-0,087612
2,824885	12,254284	1,237	-0,087401
2,825907	12,742566	1,287	-0,087189
2,826874	12,924827	1,339	-0,087110
2,827914	13,657249	1,389	-0,086792
2,828915	14,449300	1,440	-0,086448
2,829952	15,242476	1,490	-0,086104
2,830940	15,729632	1,540	-0,085893
2,831904	15,913018	1,590	-0,085813
2,832922	16,522807	1,640	-0,085548
2,833917	17,009964	1,690	-0,085337
2,834907	17,742386	1,741	-0,085019
2,835980	18,412928	1,791	-0,084728
2,836944	18,961964	1,841	-0,084490
2,837913	19,204979	1,891	-0,084384
2,838959	19,631381	1,942	-0,084199
2,839924	20,241170	1,993	-0,083935
2,840914	21,399995	2,043	-0,083432
2,841930	21,521502	2,093	-0,083379
2,842946	21,887151	2,144	-0,083220
2,843940	22,253924	2,194	-0,083061
2,844917	23,290116	2,244	-0,082611
2,845906	24,387061	2,295	-0,082135
2,846934	24,326307	2,345	-0,082162
2,847924	25,240990	2,395	-0,081765
2,848922	25,973412	2,446	-0,081447
2,849914	26,642830	2,496	-0,081156
2,850929	26,704709	2,546	-0,081129
2,851886	27,070358	2,596	-0,080971
2,852913	27,496760	2,646	-0,080786
2,853973	27,862408	2,696	-0,080627
2,854907	28,838971	2,746	-0,080203
2,855903	28,472197	2,796	-0,080362
2,857000	30,240810	2,846	-0,079595
2,857949	30,545705	2,896	-0,079462
2,858895	29,996670	2,946	-0,079701
2,859957	30,606459	2,996	-0,079436
2,860981	31,826037	3,046	-0,078907
2,861902	31,765283	3,097	-0,078933
2,862947	32,801474	3,147	-0,078483
2,863935	32,922982	3,197	-0,078431
2,864937	33,106369	3,247	-0,078351
2,865879	34,265193	3,299	-0,077848
2,866927	34,873857	3,349	-0,077584
2,867907	34,873857	3,399	-0,077584
2,868923	34,996490	3,449	-0,077531
2,869954	35,850419	3,500	-0,077160
2,870955	35,911173	3,551	-0,077134
2,871936	36,886611	3,601	-0,076710
2,872924	37,435646	3,651	-0,076472
2,873937	38,106189	3,701	-0,076181
2,874945	38,715978	3,751	-0,075917
2,875938	39,081626	3,801	-0,075758
2,876951	39,752169	3,851	-0,075467
2,877947	40,361958	3,901	-0,075202
2,878914	41,154009	3,951	-0,074858
2,879924	42,007939	4,001	-0,074488
2,880900	42,495095	4,051	-0,074276
2,881944	42,739235	4,101	-0,074170
2,882891	43,288270	4,152	-0,073932
2,883849	43,714673	4,202	-0,073747
2,884966	44,324462	4,253	-0,073482
2,885960	45,117638	4,303	-0,073138
2,886940	45,604794	4,354	-0,072927
2,887955	46,214583	4,405	-0,072662
2,888938	46,885126	4,455	-0,072371
2,889931	46,580231	4,505	-0,072503
2,890951	47,922442	4,556	-0,071921
2,891914	48,775247	4,606	-0,071551
2,892928	48,958633	4,656	-0,071471
2,893944	49,263528	4,706	-0,071339
2,894909	49,873317	4,756	-0,071074
2,895997	49,689930	4,806	-0,071154
2,896917	50,726121	4,856	-0,070704
2,897911	51,701559	4,906	-0,070281
2,898899	51,884946	4,956	-0,070201
2,899944	51,945700	5,006	-0,070175
2,900913	52,799629	5,057	-0,069804
2,901932	53,287910	5,108	-0,069592
2,902922	53,348664	5,159	-0,069566
2,903893	53,897699	5,209	-0,069328
2,904904	54,568242	5,259	-0,069037
2,905873	53,835820	5,309	-0,069354
2,906920	55,116152	5,359	-0,068799
2,907903	55,178031	5,409	-0,068772
2,908879	55,725941	5,459	-0,068534
2,909897	55,847449	5,509	-0,068481
2,910952	56,640625	5,560	-0,068137
2,911912	56,884766	5,611	-0,068031
2,912940	57,067027	5,661	-0,067952
2,913863	57,981711	5,711	-0,067555
2,914940	58,530746	5,762	-0,067317
2,915909	58,347359	5,813	-0,067396
2,916868	58,409238	5,863	-0,067370
2,917915	59,079781	5,914	-0,067079
2,918926	59,932586	5,965	-0,066708
2,919949	60,420867	6,015	-0,066497
2,920921	59,994465	6,065	-0,066682
2,921910	60,481621	6,115	-0,066470
2,922938	61,578566	6,165	-0,065994
2,923934	61,701199	6,216	-0,065941
2,924855	62,860023	6,266	-0,065438
2,925928	62,615882	6,316	-0,065544
2,926931	62,555129	6,366	-0,065570
2,927958	63,835460	6,417	-0,065015
2,928852	64,506003	6,467	-0,064724
2,929919	64,810898	6,519	-0,064591
2,930922	66,030476	6,569	-0,064062
2,931971	65,847089	6,619	-0,064142
2,932941	66,030476	6,670	-0,064062
2,933929	66,883281	6,726	-0,063692
2,934900	67,615702	6,776	-0,063374
2,935907	67,553823	6,826	-0,063401
2,936885	68,346999	6,877	-0,063057
2,937988	68,956788	6,927	-0,062792
2,938909	70,176366	6,977	-0,062263
2,939946	70,663522	7,028	-0,062051
2,940963	70,602769	7,078	-0,062078
2,941923	71,334065	7,133	-0,061760
2,942925	72,492890	7,183	-0,061257
2,943894	72,737030	7,234	-0,061151
2,944909	73,346819	7,284	-0,060887
2,945944	73,956608	7,334	-0,060622
2,946892	74,687905	7,384	-0,060305
2,947939	75,053553	7,436	-0,060146
2,948914	75,053553	7,487	-0,060146
2,949878	75,297694	7,537	-0,060040
2,950872	76,151624	7,587	-0,059669
2,951886	76,943674	7,637	-0,059326
2,952915	77,614217	7,688	-0,059035
2,953959	78,040620	7,739	-0,058850
2,954978	78,528901	7,790	-0,058638
2,955917	79,382831	7,840	-0,058267
2,956927	79,748479	7,891	-0,058108
2,957891	80,236760	7,942	-0,057896
2,958903	80,540530	7,992	-0,057765
2,959923	80,845424	8,042	-0,057632
2,960927	81,882740	8,092	-0,057182
2,961959	81,760108	8,142	-0,057235
2,962964	83,040440	8,193	-0,056680
2,963978	83,467967	8,243	-0,056494
2,964865	84,076631	8,293	-0,056230
2,965912	84,686420	8,343	-0,055965
2,966941	85,174701	8,393	-0,055753
2,967946	85,905998	8,443	-0,055436
2,968927	85,174701	8,493	-0,055753
2,969940	86,515787	8,543	-0,055171
2,970961	87,491224	8,594	-0,054748
2,971951	88,954943	8,644	-0,054113
2,972923	89,138330	8,694	-0,054033
2,973842	89,199084	8,744	-0,054007
2,974891	90,051888	8,795	-0,053637
2,975929	90,235275	8,845	-0,053557
2,976973	91,089205	8,895	-0,053187
2,977893	91,942009	8,945	-0,052816
2,978901	92,856693	8,995	-0,052419
2,979901	93,100833	9,045	-0,052313
2,980926	93,954763	9,095	-0,051943
2,981905	94,564552	9,146	-0,051678
2,982936	94,930201	9,197	-0,051520
2,983938	95,539990	9,247	-0,051255
2,984915	95,661497	9,298	-0,051202
2,985921	96,454673	9,349	-0,050858
2,986876	97,307478	9,399	-0,050488
2,987938	98,282915	9,450	-0,050064
2,988917	98,100653	9,500	-0,050144
2,989912	99,197599	9,560	-0,049667
2,990935	99,685880	9,610	-0,049456
2,991885	100,112282	9,661	-0,049271
2,992921	99,928895	9,711	-0,049350
2,993920	101,148474	9,761	-0,048821
2,994917	101,576001	9,811	-0,048635
2,995924	102,794454	9,861	-0,048106
2,996937	102,672946	9,911	-0,048159
2,997944	104,075911	9,963	-0,047550
2,998874	104,318926	10,014	-0,047445
2,999954	104,990594	10,064	-0,047153
3,000901	106,148293	10,114	-0,046651
3,001913	105,782645	10,164	-0,046810
3,002880	106,513942	10,214	-0,046492
3,003977	107,062977	10,264	-0,046254
3,003877	106,697329	10,325	-0,046413
3,003895	106,941469	10,375	-0,046307
3,003912	106,331680	10,425	-0,046571
3,003906	106,209047	10,475	-0,046625
3,003886	106,818836	10,525	-0,046360
3,003963	105,904153	10,576	-0,046757
3,003952	106,209047	10,626	-0,046625
3,003922	106,331680	10,676	-0,046571
3,003906	105,782645	10,732	-0,046810
3,003891	106,331680	10,782	-0,046571
3,003885	106,026786	10,832	-0,046704
3,003932	106,087540	10,883	-0,046677
3,003958	105,843399	10,933	-0,046783
3,003898	105,721891	10,983	-0,046836
3,003917	105,660012	11,033	-0,046863
3,003919	105,538504	11,083	-0,046916
3,003884	105,843399	11,134	-0,046783
3,003878	105,477751	11,185	-0,046942
3,003909	105,538504	11,235	-0,046916
3,003914	105,356243	11,285	-0,046995
3,003942	105,477751	11,336	-0,046942
3,003884	105,416997	11,386	-0,046968
3,003937	106,026786	11,436	-0,046704
3,003898	105,233610	11,487	-0,047048
3,003933	105,782645	11,543	-0,046810
3,003894	105,904153	11,593	-0,046757
3,003909	104,990594	11,643	-0,047153
3,003863	105,233610	11,693	-0,047048
3,003875	104,807208	11,743	-0,047233
3,003946	104,563067	11,793	-0,047339
3,003954	104,563067	11,844	-0,047339
3,003909	104,990594	11,894	-0,047153
3,003865	104,684575	11,944	-0,047286
3,003891	104,502313	11,995	-0,047365
3,003900	104,807208	12,046	-0,047233
3,003942	105,051348	12,096	-0,047127
3,003935	104,379680	12,146	-0,047418
3,003945	104,684575	12,196	-0,047286
3,003901	104,928715	12,247	-0,047180
3,003919	103,710262	12,297	-0,047709
3,003904	104,136665	12,347	-0,047524
3,003875	104,136665	12,397	-0,047524
3,003889	103,769891	12,447	-0,047683
3,003836	104,379680	12,497	-0,047418
3,003931	103,587630	12,547	-0,047762
3,003891	103,769891	12,597	-0,047683
3,003917	103,161227	12,647	-0,047947
3,003914	103,343489	12,698	-0,047868
3,003892	103,953278	12,749	-0,047604
3,003938	103,587630	12,799	-0,047762
3,003890	103,100473	12,850	-0,047974
3,003886	103,221981	12,900	-0,047921
3,003952	102,856333	12,951	-0,048080
3,003929	102,794454	13,001	-0,048106
3,003906	102,977841	13,052	-0,048027
3,003886	102,917087	13,103	-0,048053
3,003931	102,733700	13,153	-0,048133
3,003943	102,551438	13,204	-0,048212
3,003870	102,794454	13,255	-0,048106
3,003897	102,612192	13,305	-0,048186
3,003890	102,551438	13,355	-0,048212
3,003902	103,343489	13,406	-0,047868
3,003887	103,038594	13,457	-0,048000
3,003909	103,221981	13,508	-0,047921
3,003919	103,282735	13,560	-0,047895
3,003916	102,612192	13,611	-0,048186
3,003896	103,038594	13,661	-0,048000
3,003946	102,794454	13,711	-0,048106
3,003907	102,672946	13,761	-0,048159
3,003954	102,368052	13,811	-0,048292
3,003895	102,733700	13,861	-0,048133
3,003883	102,490684	13,911	-0,048238
3,003939	102,856333	13,964	-0,048080
3,003966	101,514122	14,014	-0,048662
3,003941	102,733700	14,065	-0,048133
3,003916	102,977841	14,115	-0,048027
3,003885	102,490684	14,165	-0,048238
3,003878	102,002403	14,215	-0,048450
3,003900	101,941649	14,266	-0,048477
3,003894	102,246544	14,316	-0,048344
3,003888	102,490684	14,372	-0,048238
3,003873	102,185790	14,423	-0,048371
3,003934	102,733700	14,474	-0,048133
3,003890	102,185790	14,524	-0,048371
3,003884	101,880895	14,575	-0,048503
3,003944	102,368052	14,625	-0,048292
3,003886	102,185790	14,675	-0,048371
3,003886	102,428805	14,726	-0,048265
3,003913	102,246544	14,786	-0,048344
3,003853	102,307298	14,836	-0,048318
3,003964	102,185790	14,886	-0,048371
3,003925	102,490684	14,936	-0,048238
3,003878	102,428805	14,987	-0,048265
3,003940	102,733700	15,037	-0,048133
3,003924	102,307298	15,088	-0,048318
3,003931	101,514122	15,142	-0,048662
3,003965	102,123911	15,193	-0,048397
3,003944	102,307298	15,243	-0,048318
3,003891	102,063157	15,294	-0,048424
3,003946	102,551438	15,345	-0,048212
3,003909	102,368052	15,395	-0,048292
3,002909	101,941649	15,427	-0,048477
3,001943	101,392614	15,477	-0,048715
3,000875	100,234915	15,534	-0,049217
2,999941	99,076091	15,584	-0,049720
2,998922	98,648564	15,635	-0,049906
2,997845	98,038774	15,686	-0,050170
2,996907	96,515427	15,737	-0,050832
2,995943	96,027146	15,787	-0,051043
2,994930	95,235095	15,837	-0,051387
2,993901	94,746814	15,887	-0,051599
2,992975	94,441919	15,942	-0,051731
2,991951	94,015517	15,993	-0,051917
2,990892	93,040080	16,043	-0,052340
2,989929	92,064642	16,093	-0,052763
2,988924	91,820502	16,143	-0,052869
2,987933	90,113767	16,194	-0,053610
2,986946	89,991134	16,245	-0,053663
2,985915	89,442099	16,295	-0,053901
2,984882	88,833435	16,346	-0,054166
2,983897	88,040260	16,396	-0,054510
2,982890	87,004068	16,446	-0,054959
2,981954	86,455033	16,497	-0,055198
2,980927	85,845244	16,547	-0,055462
2,979934	85,113947	16,597	-0,055780
2,978953	84,748299	16,647	-0,055938
2,977902	83,528721	16,698	-0,056468
2,976927	83,040440	16,748	-0,056680
2,975906	82,248389	16,798	-0,057023
2,974905	80,602409	16,849	-0,057738
2,973903	80,540530	16,899	-0,057765
2,972985	79,930741	16,949	-0,058029
2,971957	79,809233	16,999	-0,058082
2,970951	78,955303	17,049	-0,058453
2,969873	77,614217	17,100	-0,059035
2,968992	77,797604	17,151	-0,058955
2,967925	76,578026	17,202	-0,059484
2,966914	75,784850	17,253	-0,059829
2,965902	75,541835	17,303	-0,059934
2,964961	74,871292	17,354	-0,060225
2,963927	73,589835	17,404	-0,060781
2,962912	73,102679	17,454	-0,060993
2,961933	72,492890	17,504	-0,061257
2,960917	71,517452	17,554	-0,061681
2,959898	70,663522	17,605	-0,062051
2,958952	70,481261	17,655	-0,062130
2,957964	69,322437	17,706	-0,062633
2,956944	68,468507	17,757	-0,063004
2,955976	67,981351	17,808	-0,063215
2,954905	67,432316	17,859	-0,063454
2,953880	66,212738	17,909	-0,063983
2,952981	65,664828	17,959	-0,064221
2,951899	64,627511	18,010	-0,064671
2,950883	64,384496	18,060	-0,064776
2,949920	63,835460	18,110	-0,065015
2,948899	62,432496	18,161	-0,065624
2,947961	62,432496	18,212	-0,065624
2,946845	61,152164	18,262	-0,066179
2,945930	60,725761	18,312	-0,066364
2,944945	59,628816	18,363	-0,066840
2,943909	59,201289	18,414	-0,067026
2,942922	59,506183	18,464	-0,066894
2,941952	58,165098	18,514	-0,067476
2,940946	57,799449	18,564	-0,067634
2,939942	56,396484	18,614	-0,068243
2,938935	56,153469	18,664	-0,068349
2,937894	55,116152	18,714	-0,068799
2,936940	54,324102	18,764	-0,069143
2,935877	53,165278	18,815	-0,069646
2,934919	53,043770	18,865	-0,069698
2,933938	52,189840	18,915	-0,070069
2,932893	51,519297	18,965	-0,070360
2,931946	50,788000	19,016	-0,070677
2,930924	49,812563	19,066	-0,071101
2,929924	49,629176	19,116	-0,071180
2,928906	48,592985	19,174	-0,071630
2,927966	47,739055	19,224	-0,072000
2,926936	47,434161	19,274	-0,072133
2,925943	46,458723	19,324	-0,072556
2,924912	45,970442	19,374	-0,072768
2,923940	44,995005	19,425	-0,073191
2,922907	44,263708	19,475	-0,073509
2,921924	43,227517	19,525	-0,073958
2,920900	43,349024	19,578	-0,073906
2,919952	42,495095	19,628	-0,074276
2,918941	41,214763	19,678	-0,074832
2,917941	40,971747	19,729	-0,074938
2,916953	40,117818	19,779	-0,075308
2,915977	39,691415	19,829	-0,075493
2,914934	39,081626	19,879	-0,075758
2,913971	37,862048	19,929	-0,076287
2,912932	37,313013	19,980	-0,076525
2,911947	36,886611	20,030	-0,076710
2,910961	36,093435	20,081	-0,077055
2,909944	35,057244	20,132	-0,077504
2,908958	34,813103	20,182	-0,077610
2,907948	34,021052	20,233	-0,077954
2,906925	33,167123	20,283	-0,078325
2,905908	32,373947	20,333	-0,078669
2,904971	32,435826	20,386	-0,078642
2,903944	31,642650	20,436	-0,078986
2,902936	30,667213	20,487	-0,079410
2,901916	30,180057	20,538	-0,079621
2,900940	29,386881	20,588	-0,079965
2,899940	28,106549	20,639	-0,080521
2,898980	27,375252	20,690	-0,080838
2,897959	26,094920	20,746	-0,081394
2,896896	26,034166	20,796	-0,081420
2,895925	25,606639	20,846	-0,081606
2,894971	24,752709	20,896	-0,081977
2,893952	24,448940	20,946	-0,082108
2,892944	23,290116	20,996	-0,082611
2,891920	22,436186	21,046	-0,082982
2,890893	21,704889	21,096	-0,083299
2,889936	21,155854	21,146	-0,083538
2,888917	21,460748	21,196	-0,083405
2,887979	19,875522	21,246	-0,084093
2,886947	18,290296	21,296	-0,084781
2,885918	19,083471	21,347	-0,084437
2,884973	19,021592	21,397	-0,084464
2,883939	17,680507	21,447	-0,085046
2,882867	18,900085	21,497	-0,084517
2,881940	17,193350	21,548	-0,085257
2,880930	17,375612	21,599	-0,085178
2,879939	16,705069	21,649	-0,085469
2,878935	17,070718	21,700	-0,085311
2,877907	16,339421	21,750	-0,085628
2,876998	15,852265	21,800	-0,085839
2,875966	15,180597	21,850	-0,086131
2,874934	15,547370	21,900	-0,085972
2,873939	15,852265	21,961	-0,085839
2,872930	14,937581	22,011	-0,086236
2,871931	14,693440	22,061	-0,086342
2,870906	15,180597	22,111	-0,086131
2,869942	14,327792	22,162	-0,086501
2,868910	14,022897	22,213	-0,086633
2,867952	13,534616	22,263	-0,086845
2,866919	13,718003	22,313	-0,086766
2,865905	13,596495	22,363	-0,086818
2,864962	13,168968	22,415	-0,087004
2,863922	13,290476	22,465	-0,086951
2,862956	13,108214	22,516	-0,087030
2,861920	11,767128	22,566	-0,087612
2,860906	12,072023	22,616	-0,087480
2,859928	11,522987	22,666	-0,087718
2,858883	11,400355	22,716	-0,087771
2,857938	10,852445	22,766	-0,088009
2,856937	10,303409	22,817	-0,088248
2,855915	10,242656	22,867	-0,088274
2,854920	10,059269	22,917	-0,088354
2,853977	9,693620	22,968	-0,088512
2,852922	9,449480	23,018	-0,088618
2,851920	8,778937	23,068	-0,088909
2,850917	7,681992	23,118	-0,089385
2,849891	8,108394	23,180	-0,089200
2,848959	8,108394	23,230	-0,089200
2,847908	7,865378	23,280	-0,089306
2,846955	7,377097	23,331	-0,089518
2,845977	6,888816	23,381	-0,089729
2,844957	7,072203	23,431	-0,089650
2,843924	6,218273	23,481	-0,090021
2,842919	6,644675	23,532	-0,089835
2,841945	6,096765	23,594	-0,090073
2,840952	5,731117	23,645	-0,090232
2,839907	5,365468	23,695	-0,090391
2,838926	5,426222	23,746	-0,090364
2,837916	5,426222	23,796	-0,090364
2,836939	4,816433	23,846	-0,090629
2,835968	4,755679	23,896	-0,090655
2,834896	4,206644	23,960	-0,090894
2,833872	4,755679	24,010	-0,090655
2,832892	2,926312	24,060	-0,091449
2,831904	3,718363	24,111	-0,091105
2,830921	3,413468	24,162	-0,091238
2,829989	3,413468	24,212	-0,091238
2,828961	2,926312	24,263	-0,091449
2,827937	2,560664	24,313	-0,091608
2,826923	2,072383	24,366	-0,091820
2,825932	1,585226	24,416	-0,092031
2,824929	1,219578	24,466	-0,092190
2,823913	1,585226	24,516	-0,092031
2,822945	0,975437	24,566	-0,092296
2,821914	0,792051	24,616	-0,092375
2,820873	0,913558	24,667	-0,092323
2,819912	0,121508	24,717	-0,092667
2,818925	-0,427527	24,767	-0,092905
2,817933	-1,768613	24,818	-0,093487
2,816946	-1,219578	24,868	-0,093249
2,815991	-1,829367	24,919	-0,093513
2,814992	-2,134262	24,970	-0,093646
2,813958	-1,707859	25,020	-0,093460
2,812885	-2,073508	25,070	-0,093619
2,811904	-2,439156	25,120	-0,093778
2,810909	-2,683297	25,171	-0,093884
2,809929	-2,927437	25,222	-0,093990
2,808951	-3,170453	25,273	-0,094095
2,807933	-2,988191	25,323	-0,094016
2,806939	-3,902875	25,373	-0,094413
2,805937	-4,024383	25,424	-0,094466
2,804911	-4,999820	25,474	-0,094889
2,803944	-4,451910	25,524	-0,094651