File: Nanoindentation Datenauswertung/data/S_calib/S_calib_2308-3x3
Quasi static measurement routine
Tip parameters (shape,radius, material...)
23.08.2022

Piezo position[nm]	MEMS displ.[nm]	Time[ms]	Cap [pf]	Temp [°C]	Rh [%]
eoh

X-Pos [um]	Y-Pos [um]
0,000242	0,000000

POC
2,591967
2,194839	0,304415	0,301	-0,134548	22,340000	51,645000
2,198880	-0,024353	0,505	-0,134680	22,340000	51,645000
2,202880	0,090107	0,705	-0,134634	22,340000	51,645000
2,206840	0,230138	0,910	-0,134578	22,340000	51,645000
2,210809	-0,231355	1,110	-0,134763	22,340000	51,645000
2,214865	0,247185	1,311	-0,134571	22,340000	51,645000
2,218821	0,140031	1,511	-0,134614	22,340000	51,645000
2,222895	0,007306	1,714	-0,134667	22,340000	51,645000
2,226841	0,329986	1,916	-0,134538	22,340000	51,645000
2,230849	0,238661	2,116	-0,134574	22,340000	51,645000
2,234889	0,518723	2,317	-0,134462	22,340000	51,645000
2,238867	0,131507	2,518	-0,134617	22,340000	51,645000
2,242844	0,157078	2,718	-0,134607	22,340000	51,645000
2,246880	0,122984	2,918	-0,134621	22,340000	51,645000
2,250835	0,214308	3,118	-0,134584	22,340000	51,645000
2,254818	0,157078	3,320	-0,134607	22,340000	51,645000
2,258849	0,271538	3,521	-0,134561	22,340000	51,645000
2,262883	0,048706	3,724	-0,134650	22,340000	51,645000
2,266833	0,081583	3,928	-0,134637	22,340000	51,645000
2,270848	0,122984	4,129	-0,134621	22,340000	51,645000
2,274852	0,362862	4,329	-0,134524	22,340000	51,645000
2,278834	0,057230	4,529	-0,134647	22,340000	51,645000
2,282796	0,304415	4,730	-0,134548	22,340000	51,645000
2,286849	0,000000	4,931	-0,134670	22,340000	51,645000
2,290867	0,238661	5,132	-0,134574	22,340000	51,645000
2,294845	0,247185	5,332	-0,134571	22,340000	51,645000
2,298808	-0,165602	5,535	-0,134736	22,340000	51,645000
2,302840	0,041400	5,736	-0,134653	22,340000	51,645000
2,306850	0,090107	5,937	-0,134634	22,340000	51,645000
2,310819	0,148554	6,137	-0,134610	22,340000	51,645000
2,314848	0,189955	6,337	-0,134594	22,340000	51,620000
2,318861	0,271538	6,537	-0,134561	22,340000	51,620000
2,322837	0,205784	6,738	-0,134587	22,340000	51,620000
2,326832	0,181431	6,938	-0,134597	22,340000	51,620000
2,330836	0,247185	7,138	-0,134571	22,340000	51,620000
2,334837	0,263014	7,341	-0,134564	22,340000	51,620000
2,338845	0,032877	7,544	-0,134657	22,340000	51,620000
2,342905	0,098630	7,747	-0,134630	22,340000	51,620000
2,346821	0,338509	7,949	-0,134534	22,340000	51,620000
2,350811	0,189955	8,149	-0,134594	22,340000	51,620000
2,354835	0,065754	8,354	-0,134644	22,340000	51,655000
2,358820	0,181431	8,555	-0,134597	22,340000	51,655000
2,362886	-0,174125	8,755	-0,134740	22,340000	51,655000
2,366834	0,098630	8,956	-0,134630	22,340000	51,655000
2,370845	0,263014	9,158	-0,134564	22,340000	51,655000
2,374840	0,122984	9,360	-0,134621	22,340000	51,655000
2,378885	0,090107	9,561	-0,134634	22,340000	51,655000
2,382866	0,148554	9,764	-0,134610	22,340000	51,655000
2,386836	-0,157078	9,964	-0,134733	22,340000	51,655000
2,390834	0,304415	10,164	-0,134548	22,340000	51,655000
2,394861	0,122984	10,366	-0,134621	22,350000	51,630000
2,398852	-0,082801	10,566	-0,134703	22,350000	51,630000
2,402834	0,098630	10,767	-0,134630	22,350000	51,630000
2,406796	-0,049924	10,968	-0,134690	22,350000	51,630000
2,410821	0,189955	11,184	-0,134594	22,350000	51,630000
2,414829	-0,041400	11,387	-0,134687	22,350000	51,630000
2,418826	0,205784	11,588	-0,134587	22,350000	51,630000
2,422847	0,007306	11,789	-0,134667	22,350000	51,630000
2,426865	0,107154	11,991	-0,134627	22,350000	51,630000
2,430841	-0,124201	12,192	-0,134720	22,350000	51,630000
2,434846	-0,132725	12,392	-0,134723	22,350000	51,630000
2,438799	0,090107	12,593	-0,134634	22,350000	51,630000
2,442868	-0,074277	12,795	-0,134700	22,350000	51,630000
2,446870	-0,074277	12,996	-0,134700	22,350000	51,630000
2,450840	0,098630	13,196	-0,134630	22,350000	51,630000
2,454839	-0,074277	13,396	-0,134700	22,350000	51,630000
2,458810	-0,107154	13,596	-0,134713	22,350000	51,630000
2,462861	-0,041400	13,797	-0,134687	22,350000	51,630000
2,466870	-0,124201	14,000	-0,134720	22,350000	51,630000
2,470870	-0,082801	14,201	-0,134703	22,350000	51,630000
2,474839	0,081583	14,402	-0,134637	22,350000	51,630000
2,478857	0,122984	14,603	-0,134621	22,350000	51,630000
2,482854	-0,247185	14,822	-0,134769	22,350000	51,630000
2,486845	-0,091324	15,023	-0,134707	22,350000	51,630000
2,490836	0,015830	15,224	-0,134664	22,350000	51,630000
2,494792	-0,024353	15,427	-0,134680	22,350000	51,630000
2,498851	0,041400	15,627	-0,134653	22,350000	51,630000
2,502825	-0,099848	15,828	-0,134710	22,350000	51,630000
2,506873	0,065754	16,030	-0,134644	22,350000	51,630000
2,510862	-0,255708	16,231	-0,134772	22,350000	51,655000
2,514835	-0,222832	16,432	-0,134759	22,350000	51,655000
2,518843	-0,115678	16,633	-0,134716	22,350000	51,655000
2,522850	-0,247185	16,834	-0,134769	22,350000	51,655000
2,526802	-0,140031	17,035	-0,134726	22,350000	51,655000
2,530861	-0,347033	17,238	-0,134809	22,350000	51,655000
2,534804	-0,445663	17,441	-0,134849	22,350000	51,655000
2,538865	-0,379910	17,641	-0,134822	22,350000	51,655000
2,542746	-0,157078	17,842	-0,134733	22,350000	51,655000
2,546851	-0,355556	18,044	-0,134813	22,350000	51,655000
2,550861	-0,421310	18,251	-0,134839	22,350000	51,620000
2,554865	-0,495587	18,451	-0,134869	22,350000	51,620000
2,558889	-0,487064	18,655	-0,134865	22,350000	51,620000
2,562843	-0,767125	18,856	-0,134978	22,350000	51,620000
2,566822	-0,800002	19,059	-0,134991	22,350000	51,620000
2,570786	-1,081281	19,261	-0,135104	22,350000	51,620000
2,574862	-1,658452	19,462	-0,135335	22,350000	51,620000
2,578853	-6,549788	19,677	-0,137296	22,350000	51,620000
2,582843	-2,829839	19,878	-0,135805	22,350000	51,620000
2,586877	1,393002	20,078	-0,134111	22,350000	51,620000
2,590803	4,148564	20,283	-0,133006	22,350000	51,630000
2,594842	8,899869	20,485	-0,131101	22,350000	51,630000
2,598828	11,844169	20,687	-0,129920	22,350000	51,630000
2,602812	15,572641	20,890	-0,128425	22,350000	51,630000
2,606881	18,806743	21,093	-0,127128	22,350000	51,630000
2,610875	22,806753	21,296	-0,125524	22,350000	51,630000
2,614835	27,368103	21,496	-0,123695	22,350000	51,630000
2,618897	31,368113	21,696	-0,122091	22,350000	51,630000
2,622810	34,890800	21,896	-0,120679	22,350000	51,630000
2,626829	39,295073	22,098	-0,118913	22,350000	51,630000
2,630825	43,163575	22,299	-0,117361	22,350000	51,655000
2,634808	46,760540	22,500	-0,115919	22,350000	51,655000
2,638863	50,594948	22,700	-0,114381	22,350000	51,655000
2,642852	53,944728	22,900	-0,113038	22,350000	51,655000
2,646822	57,944738	23,100	-0,111434	22,350000	51,655000
2,650788	62,613242	23,301	-0,109562	22,350000	51,655000
2,654848	65,945975	23,503	-0,108226	22,350000	51,655000
2,658862	69,748724	23,704	-0,106701	22,350000	51,655000
2,662805	74,285721	23,908	-0,104881	22,350000	51,655000
2,666822	78,401409	24,108	-0,103231	22,350000	51,655000
2,670803	81,527139	24,325	-0,101978	22,350000	51,630000
2,674812	85,041303	24,525	-0,100568	22,350000	51,630000
2,678827	88,794128	24,727	-0,099063	22,350000	51,630000
2,682846	93,042540	24,930	-0,097360	22,350000	51,630000
2,686816	97,116827	25,136	-0,095726	22,350000	51,630000
2,690839	100,886699	25,343	-0,094214	22,350000	51,630000
2,694815	105,026740	25,545	-0,092554	22,350000	51,630000
2,698801	109,596614	25,745	-0,090722	22,350000	51,630000
2,702866	112,540913	25,947	-0,089541	22,350000	51,630000
2,706755	116,739401	26,148	-0,087857	22,350000	51,630000
2,710801	120,319319	26,349	-0,086422	22,350000	51,630000
2,714888	124,971994	26,551	-0,084556	22,350000	51,630000
2,718821	129,211882	26,753	-0,082856	22,350000	51,630000
2,722748	133,013414	26,954	-0,081332	22,350000	51,630000
2,726838	136,973241	27,156	-0,079744	22,350000	51,630000
2,730855	140,618912	27,356	-0,078282	22,350000	51,630000
2,734841	143,993045	27,557	-0,076929	22,350000	51,630000
2,738888	148,248763	27,757	-0,075222	22,350000	51,630000
2,742817	151,968711	27,959	-0,073730	22,350000	51,630000
2,746869	155,985768	28,163	-0,072120	22,350000	51,630000
2,750807	160,134332	28,371	-0,070456	22,340000	51,645000
2,754801	163,978482	28,578	-0,068915	22,340000	51,645000
2,758809	168,944095	28,781	-0,066923	22,340000	51,645000
2,762799	171,839688	28,982	-0,065762	22,340000	51,645000
2,766786	175,708190	29,182	-0,064211	22,340000	51,645000
2,770857	180,632403	29,383	-0,062236	22,340000	51,645000
2,774809	184,732261	29,584	-0,060592	22,340000	51,645000
2,778828	188,616593	29,785	-0,059035	22,340000	51,645000
2,782840	192,493619	29,987	-0,057480	22,340000	51,645000
2,786857	195,792258	30,190	-0,056157	22,340000	51,645000
2,790806	199,620577	30,392	-0,054622	22,340000	51,645000
2,794850	203,347832	30,593	-0,053127	22,340000	51,645000
2,798837	207,497613	30,801	-0,051463	22,340000	51,645000
2,802820	212,380426	31,002	-0,049505	22,340000	51,645000
2,806896	215,564604	31,204	-0,048229	22,340000	51,645000
2,810876	220,323215	31,404	-0,046320	22,340000	51,645000
2,814773	223,755796	31,614	-0,044944	22,340000	51,645000
2,818825	227,013034	31,816	-0,043638	22,340000	51,645000
2,822777	231,211522	32,017	-0,041954	22,340000	51,645000
2,826814	235,252932	32,217	-0,040333	22,340000	51,655000
2,830805	239,105605	32,418	-0,038789	22,340000	51,655000
2,834785	243,072738	32,620	-0,037198	22,340000	51,655000
2,838857	246,711103	32,821	-0,035739	22,340000	51,655000
2,842769	250,958298	33,021	-0,034036	22,340000	51,655000
2,846801	254,645369	33,222	-0,032557	22,340000	51,655000
2,850844	258,926658	33,422	-0,030840	22,340000	51,655000
2,854803	262,786637	33,623	-0,029292	22,340000	51,655000
2,858863	266,597910	33,825	-0,027764	22,340000	51,655000
2,862867	270,639320	34,027	-0,026144	22,340000	51,655000
2,866818	274,409192	34,228	-0,024632	22,340000	51,655000
2,870819	279,143450	34,429	-0,022733	22,340000	51,655000
2,874869	282,681967	34,631	-0,021314	22,340000	51,655000
2,878799	286,773301	34,833	-0,019674	22,340000	51,655000
2,882895	290,740434	35,034	-0,018083	22,340000	51,655000
2,886828	294,444553	35,235	-0,016598	22,340000	51,655000
2,890852	298,857349	35,436	-0,014828	22,340000	51,655000
2,894828	302,552944	35,637	-0,013346	22,340000	51,655000
2,898800	307,311555	35,837	-0,011438	22,340000	51,655000
2,902800	311,254335	36,038	-0,009857	22,340000	51,655000
2,906781	314,355712	36,240	-0,008613	22,350000	51,630000
2,910813	317,985554	36,440	-0,007158	22,350000	51,630000
2,914860	322,142641	36,642	-0,005491	22,350000	51,630000
2,918813	326,035497	36,843	-0,003930	22,350000	51,630000
2,922820	330,085431	37,044	-0,002306	22,350000	51,630000
2,926831	334,020905	37,245	-0,000728	22,350000	51,630000
2,930821	338,796563	37,446	0,001187	22,350000	51,630000
2,934811	342,755173	37,646	0,002775	22,350000	51,630000
2,938797	346,763706	37,846	0,004382	22,350000	51,630000
2,942779	350,574979	38,050	0,005911	22,350000	51,630000
2,946859	353,956418	38,252	0,007267	22,350000	51,645000
2,950740	357,949121	38,452	0,008868	22,350000	51,645000
2,954809	362,427671	38,652	0,010664	22,350000	51,645000
2,958775	365,670297	38,852	0,011964	22,350000	51,645000
2,962813	369,687354	39,055	0,013575	22,350000	51,645000
2,966832	373,934548	39,255	0,015278	22,350000	51,645000
2,970843	378,504423	39,456	0,017110	22,350000	51,645000
2,974871	381,663030	39,658	0,018377	22,350000	51,645000
2,978765	385,631381	39,859	0,019968	22,350000	51,645000
2,982824	389,565637	40,059	0,021546	22,350000	51,645000
2,986806	394,555603	40,262	0,023547	22,350000	51,630000
2,990821	397,904165	40,465	0,024890	22,350000	51,630000
2,994827	402,441163	40,666	0,026709	22,350000	51,630000
2,998795	406,334018	40,867	0,028270	22,350000	51,630000
3,002836	410,112414	41,068	0,029785	22,350000	51,630000
3,006756	413,716685	41,270	0,031230	22,350000	51,630000
3,010809	417,395233	41,471	0,032706	22,350000	51,630000
3,014809	421,099351	41,672	0,034191	22,350000	51,630000
3,018754	426,254919	41,872	0,036258	22,350000	51,630000
3,022742	429,199219	42,072	0,037439	22,350000	51,630000
3,026813	433,381877	42,272	0,039116	22,350000	51,630000
3,030792	437,034854	42,474	0,040581	22,350000	51,630000
3,034790	442,166069	42,675	0,042639	22,350000	51,630000
3,038840	446,190432	42,878	0,044252	22,350000	51,630000
3,042802	450,314643	43,078	0,045906	22,350000	51,630000
3,046810	453,011758	43,279	0,046988	22,350000	51,630000
3,050762	457,557279	43,481	0,048811	22,350000	51,630000
3,054837	462,127153	43,682	0,050643	22,350000	51,630000
3,058777	464,955775	43,883	0,051777	22,350000	51,630000
3,062762	469,435542	44,084	0,053574	22,350000	51,630000
3,066780	473,929921	44,289	0,055376	22,350000	51,620000
3,070790	476,742714	44,495	0,056504	22,350000	51,620000
3,074762	481,494019	44,695	0,058409	22,350000	51,620000
3,078743	484,579567	44,908	0,059646	22,350000	51,620000
3,082785	489,709564	45,109	0,061704	22,350000	51,620000
3,086791	492,646557	45,309	0,062881	22,350000	51,620000
3,090797	497,075183	45,524	0,064657	22,350000	51,620000
3,094843	500,845055	45,724	0,066169	22,350000	51,620000
3,098811	504,573527	45,925	0,067664	22,350000	51,620000
3,102760	508,343399	46,129	0,069176	22,350000	51,620000
3,106822	512,426210	46,332	0,070813	22,350000	51,620000
3,110809	516,624698	46,535	0,072497	22,350000	51,620000
3,114816	521,317556	46,739	0,074378	22,350000	51,620000
3,118760	525,640245	46,940	0,076112	22,350000	51,620000
3,122739	528,337360	47,140	0,077193	22,350000	51,620000
3,126764	533,097189	47,342	0,079102	22,350000	51,620000
3,130808	536,461580	47,542	0,080451	22,350000	51,620000
3,134742	540,305730	47,753	0,081993	22,350000	51,620000
3,138765	544,067078	47,954	0,083501	22,350000	51,620000
3,142830	549,081398	48,155	0,085512	22,350000	51,620000
3,146800	552,982777	48,355	0,087076	22,340000	51,645000
3,150760	556,736820	48,556	0,088582	22,340000	51,645000
3,154771	561,363924	48,756	0,090437	22,340000	51,645000
3,158745	565,059519	48,957	0,091919	22,340000	51,645000
3,162769	567,929541	49,162	0,093070	22,340000	51,645000
3,166775	572,772171	49,364	0,095012	22,340000	51,645000
3,170778	576,276594	49,569	0,096417	22,340000	51,645000
3,174798	580,813591	49,769	0,098236	22,340000	51,645000
3,178785	584,904925	49,973	0,099877	22,340000	51,645000
3,182755	588,146333	50,173	0,101177	22,340000	51,645000
3,186717	592,864762	50,375	0,103069	22,350000	51,630000
3,190750	596,816065	50,587	0,104653	22,350000	51,630000
3,194835	599,933272	50,789	0,105903	22,350000	51,630000
3,198735	603,834652	50,990	0,107468	22,350000	51,630000
3,202768	607,785955	51,196	0,109052	22,350000	51,630000
3,206723	611,522950	51,400	0,110551	22,350000	51,630000
3,210690	615,729962	51,602	0,112238	22,350000	51,630000
3,214788	620,010034	51,805	0,113954	22,350000	51,630000
3,218753	623,664228	52,006	0,115419	22,350000	51,630000
3,222739	627,624055	52,206	0,117007	22,350000	51,645000
3,226723	632,284036	52,414	0,118876	22,350000	51,645000
3,230789	636,523925	52,614	0,120576	22,350000	51,645000
3,234757	640,540982	52,815	0,122187	22,350000	51,645000
3,238759	644,302330	53,016	0,123695	22,350000	51,645000
3,242766	647,873724	53,218	0,125127	22,350000	51,645000
3,246741	651,980888	53,419	0,126774	22,350000	51,645000
3,250759	656,229300	53,620	0,128478	22,350000	51,645000
3,254798	659,932201	53,822	0,129963	22,350000	51,645000
3,258753	663,446365	54,024	0,131372	22,350000	51,645000
3,262723	668,114869	54,226	0,133244	22,350000	51,630000
3,266721	671,176064	54,427	0,134472	22,350000	51,630000
3,270736	675,117626	54,629	0,136052	22,350000	51,630000
3,274723	680,273194	54,829	0,138120	22,350000	51,630000
3,278722	683,903035	55,038	0,139575	22,350000	51,630000
3,282752	687,408676	55,241	0,140981	22,350000	51,630000
3,286735	691,375809	55,441	0,142572	22,350000	51,630000
3,290848	694,872925	55,643	0,143974	22,350000	51,630000
3,294772	698,626968	55,845	0,145479	22,350000	51,630000
3,298771	703,839766	56,045	0,147570	22,350000	51,630000
3,302753	706,759712	56,246	0,148741	22,360000	51,650000
3,306703	711,559724	56,448	0,150666	22,360000	51,650000
3,310722	715,114070	56,649	0,152091	22,360000	51,650000
3,314779	718,909513	56,851	0,153613	22,360000	51,650000
3,318746	723,280909	57,053	0,155366	22,360000	51,650000
3,322756	726,670872	57,263	0,156725	22,360000	51,650000
3,326725	730,423697	57,465	0,158230	22,360000	51,650000
3,330753	735,504988	57,669	0,160268	22,360000	51,650000
3,334734	739,447767	57,872	0,161849	22,360000	51,650000
3,338735	742,599069	58,075	0,163112	22,360000	51,650000
3,342757	747,242002	58,275	0,164974	22,340000	51,630000
3,346769	750,871844	58,477	0,166430	22,340000	51,630000
3,350672	755,053285	58,677	0,168106	22,340000	51,630000
3,354733	758,923005	58,878	0,169658	22,340000	51,630000
3,358688	762,625906	59,079	0,171143	22,340000	51,630000
3,362756	766,205823	59,280	0,172579	22,340000	51,630000
3,366754	769,983001	59,482	0,174093	22,340000	51,630000
3,370748	774,115736	59,685	0,175750	22,340000	51,630000
3,374757	778,034163	59,886	0,177322	22,340000	51,630000
3,378745	782,884098	60,086	0,179267	22,340000	51,630000
3,382755	787,008309	60,286	0,180920	22,340000	51,655000
3,386766	790,175440	60,486	0,182190	22,340000	51,655000
3,390710	795,116700	60,689	0,184172	22,340000	51,655000
3,394799	798,192507	60,889	0,185405	22,340000	51,655000
3,398740	801,393732	61,090	0,186689	22,340000	51,655000
3,402694	805,830882	61,291	0,188468	22,340000	51,655000
3,406737	810,384926	61,494	0,190294	22,340000	51,655000
3,410681	813,956320	61,695	0,191727	22,340000	51,655000
3,414711	818,607777	61,897	0,193592	22,340000	51,655000
3,418716	821,494847	62,104	0,194750	22,340000	51,655000
3,422703	826,534737	62,306	0,196771	22,350000	51,645000
3,426767	829,471731	62,506	0,197948	22,350000	51,645000
3,430680	833,198985	62,707	0,199443	22,350000	51,645000
3,434694	837,488798	62,909	0,201163	22,350000	51,645000
3,438689	841,530208	63,109	0,202784	22,350000	51,645000
3,442733	846,338743	63,311	0,204712	22,350000	51,645000
3,446752	849,474215	63,511	0,205969	22,350000	51,645000
3,450762	853,350023	63,712	0,207523	22,350000	51,645000
3,454751	858,052622	63,912	0,209409	22,350000	51,645000
3,458733	861,805447	64,113	0,210914	22,350000	51,645000
3,462717	865,294040	64,315	0,212313	22,350000	51,645000
3,466781	869,319621	64,515	0,213927	22,350000	51,645000
3,470669	874,012479	64,722	0,215809	22,350000	51,645000
3,474737	877,336688	64,925	0,217142	22,350000	51,645000
3,478737	881,635024	65,126	0,218866	22,350000	51,645000
3,482689	885,709311	65,328	0,220500	22,350000	51,645000
3,486646	890,105060	65,528	0,222262	22,350000	51,645000
3,490639	894,040533	65,728	0,223840	22,350000	51,645000
3,491685	895,037796	65,934	0,224240	22,350000	51,645000
3,491740	894,766258	66,136	0,224131	22,350000	51,645000
3,491674	894,774782	66,337	0,224135	22,350000	51,645000
3,491698	894,766258	66,538	0,224131	22,350000	51,645000
3,491778	894,576303	66,739	0,224055	22,350000	51,645000
3,491658	894,650581	66,942	0,224085	22,350000	51,645000
3,491703	894,484979	67,158	0,224019	22,350000	51,645000
3,491730	894,567780	67,360	0,224052	22,350000	51,645000
3,491696	894,724858	67,569	0,224115	22,350000	51,645000
3,491694	894,270671	67,770	0,223933	22,350000	51,645000
3,491701	893,990609	67,982	0,223820	22,350000	51,645000
3,491715	893,990609	68,188	0,223820	22,350000	51,645000
3,491683	894,114811	68,397	0,223870	22,350000	51,645000
3,491679	893,767778	68,597	0,223731	22,350000	51,645000
3,491701	893,866408	68,798	0,223771	22,350000	51,645000
3,491757	893,874932	68,998	0,223774	22,350000	51,645000
3,491715	893,603394	69,208	0,223665	22,350000	51,645000
3,491675	893,859102	69,412	0,223768	22,350000	51,645000
3,491683	893,702024	69,622	0,223705	22,350000	51,645000
3,491720	893,874932	69,824	0,223774	22,350000	51,645000
3,491715	893,743425	70,027	0,223721	22,350000	51,645000
3,491698	893,644794	70,227	0,223682	22,340000	51,645000
3,491675	893,594870	70,429	0,223662	22,340000	51,645000
3,491709	893,437792	70,634	0,223599	22,340000	51,645000
3,491717	893,710548	70,835	0,223708	22,340000	51,645000
3,491714	893,527899	71,041	0,223635	22,340000	51,645000
3,491707	893,603394	71,248	0,223665	22,340000	51,645000
3,491654	893,429269	71,449	0,223595	22,340000	51,645000
3,491654	893,173560	71,655	0,223493	22,340000	51,645000
3,491653	893,206437	71,856	0,223506	22,340000	51,645000
3,491763	893,199131	72,056	0,223503	22,340000	51,645000
3,491703	893,157731	72,257	0,223486	22,350000	51,645000
3,491638	893,280714	72,461	0,223536	22,350000	51,645000
3,491657	893,380562	72,661	0,223576	22,350000	51,645000
3,491670	892,976299	72,861	0,223414	22,350000	51,645000
3,491702	893,173560	73,075	0,223493	22,350000	51,645000
3,491689	892,852098	73,277	0,223364	22,350000	51,645000
3,491611	893,256361	73,477	0,223526	22,350000	51,645000
3,491675	893,057883	73,678	0,223446	22,350000	51,645000
3,491695	892,580560	73,879	0,223255	22,350000	51,645000
3,491673	893,232008	74,080	0,223516	22,350000	51,645000
3,491673	892,943423	74,282	0,223400	22,350000	51,645000
3,491705	893,240531	74,485	0,223520	22,350000	51,645000
3,491693	892,736421	74,685	0,223317	22,350000	51,645000
3,491687	892,736421	74,888	0,223317	22,350000	51,645000
3,491703	892,902022	75,102	0,223384	22,350000	51,645000
3,491728	892,729115	75,303	0,223314	22,350000	51,645000
3,491653	892,406435	75,505	0,223185	22,350000	51,645000
3,491695	892,753468	75,707	0,223324	22,350000	51,645000
3,491669	892,397911	75,908	0,223182	22,350000	51,645000
3,488695	890,154984	76,108	0,222282	22,350000	51,645000
3,484732	886,492265	76,308	0,220813	22,350000	51,645000
3,480693	881,683730	76,508	0,218885	22,350000	51,645000
3,476683	878,236538	76,710	0,217503	22,350000	51,645000
3,472677	873,236830	76,954	0,215498	22,350000	51,645000
3,468688	869,046865	77,154	0,213818	22,350000	51,645000
3,464646	865,921135	77,356	0,212564	22,350000	51,645000
3,460677	862,011232	77,556	0,210997	22,350000	51,645000
3,456682	857,961298	77,756	0,209373	22,350000	51,645000
3,452684	853,334194	77,956	0,207517	22,350000	51,645000
3,448731	848,904350	78,156	0,205741	22,350000	51,645000
3,444720	845,910127	78,363	0,204540	22,350000	51,645000
3,440770	841,778610	78,565	0,202883	22,350000	51,645000
3,436719	837,827307	78,774	0,201299	22,350000	51,645000
3,432721	832,761845	78,974	0,199268	22,350000	51,645000
3,428744	828,431850	79,175	0,197531	22,350000	51,645000
3,424768	825,743259	79,376	0,196453	22,350000	51,645000
3,420683	821,874756	79,576	0,194902	22,350000	51,645000
3,416699	817,684792	79,778	0,193222	22,350000	51,645000
3,412711	812,957840	79,979	0,191326	22,350000	51,645000
3,408717	808,495120	80,180	0,189537	22,350000	51,645000
3,404690	805,138034	80,382	0,188190	22,350000	51,620000
3,400762	801,079576	80,586	0,186563	22,350000	51,620000
3,396677	797,310922	80,788	0,185052	22,350000	51,620000
3,392690	792,105430	80,989	0,182964	22,350000	51,620000
3,388734	789,119730	81,191	0,181767	22,350000	51,620000
3,384770	783,857008	81,393	0,179657	22,350000	51,620000
3,380739	780,228384	81,596	0,178202	22,350000	51,620000
3,376710	777,011329	81,796	0,176912	22,350000	51,620000
3,372762	773,265810	81,997	0,175410	22,350000	51,620000
3,368749	769,010092	82,198	0,173703	22,350000	51,620000
3,364717	764,267310	82,398	0,171801	22,350000	51,620000
3,360736	760,126052	82,599	0,170141	22,350000	51,620000
3,356789	756,654506	82,800	0,168749	22,350000	51,620000
3,352719	752,051755	83,000	0,166903	22,350000	51,620000
3,348678	748,438961	83,203	0,165454	22,350000	51,620000
3,344693	745,031951	83,404	0,164088	22,350000	51,620000
3,340733	740,932094	83,607	0,162444	22,350000	51,620000
3,336748	736,916254	83,809	0,160833	22,350000	51,620000
3,332748	731,875146	84,009	0,158812	22,350000	51,620000
3,328731	728,897970	84,210	0,157618	22,350000	51,645000
3,324734	725,169498	84,413	0,156123	22,350000	51,645000
3,320695	719,618191	84,616	0,153897	22,350000	51,645000
3,316723	716,186828	84,817	0,152521	22,350000	51,645000
3,312772	711,881186	85,018	0,150794	22,350000	51,645000
3,308722	708,368240	85,218	0,149386	22,350000	51,645000
3,304710	704,399889	85,418	0,147794	22,350000	51,645000
3,300734	699,599877	85,618	0,145870	22,350000	51,645000
3,296731	696,695761	85,819	0,144705	22,350000	51,645000
3,292747	692,151457	86,020	0,142883	22,350000	51,645000
3,288725	687,994370	86,220	0,141216	22,350000	51,645000
3,284793	684,026019	86,420	0,139625	22,350000	51,645000
3,280712	680,653104	86,620	0,138272	22,350000	51,645000
3,276721	676,504539	86,822	0,136608	22,350000	51,645000
3,272772	672,223250	87,032	0,134892	22,350000	51,645000
3,268813	668,379101	87,236	0,133350	22,350000	51,645000
3,264673	664,313338	87,437	0,131720	22,350000	51,645000
3,260813	660,196433	87,637	0,130069	22,350000	51,645000
3,256786	655,676483	87,837	0,128256	22,350000	51,645000
3,252746	651,222286	88,037	0,126470	22,350000	51,645000
3,248801	647,849371	88,238	0,125118	22,350000	51,655000
3,244712	644,615268	88,438	0,123821	22,350000	51,655000
3,240757	640,128195	88,640	0,122021	22,350000	51,655000
3,236773	636,383894	88,841	0,120520	22,350000	51,655000
3,232775	631,162572	89,041	0,118426	22,350000	51,655000
3,228736	628,614012	89,242	0,117404	22,350000	51,655000
3,224779	624,794216	89,444	0,115873	22,350000	51,655000
3,220729	620,398467	89,645	0,114110	22,350000	51,655000
3,216723	615,588714	89,846	0,112181	22,350000	51,655000
3,212770	612,603014	90,047	0,110984	22,350000	51,655000
3,208743	607,720201	90,256	0,109026	22,340000	51,630000
3,204753	603,810298	90,458	0,107458	22,340000	51,630000
3,200792	599,776194	90,658	0,105840	22,340000	51,630000
3,196772	596,106170	90,860	0,104369	22,340000	51,630000
3,192810	592,386222	91,060	0,102877	22,340000	51,630000
3,188770	588,971906	91,261	0,101508	22,340000	51,630000
3,184743	583,353628	91,461	0,099255	22,340000	51,630000
3,180781	580,327745	91,661	0,098042	22,340000	51,630000
3,176762	576,409319	91,862	0,096470	22,340000	51,630000
3,172770	571,278104	92,064	0,094413	22,340000	51,630000
3,168766	566,948108	92,266	0,092676	22,350000	51,645000
3,164824	563,359667	92,469	0,091237	22,350000	51,645000
3,160790	559,458288	92,675	0,089673	22,350000	51,645000
3,156747	556,266804	92,876	0,088393	22,350000	51,645000
3,152769	551,952638	93,079	0,086663	22,350000	51,645000
3,148739	548,422645	93,285	0,085248	22,350000	51,645000
3,144734	544,305740	93,495	0,083597	22,350000	51,645000
3,140739	540,034192	93,697	0,081884	22,350000	51,645000
3,136788	536,008611	93,897	0,080270	22,350000	51,645000
3,132809	532,123061	94,097	0,078711	22,350000	51,645000
3,128760	528,040251	94,298	0,077074	22,350000	51,630000
3,124743	524,617412	94,504	0,075702	22,350000	51,630000
3,120794	520,220445	94,705	0,073938	22,350000	51,630000
3,116769	514,826216	94,906	0,071775	22,350000	51,630000
3,112769	511,989070	95,117	0,070638	22,350000	51,630000
3,108752	507,980537	95,318	0,069030	22,350000	51,630000
3,104785	504,416449	95,519	0,067601	22,350000	51,630000
3,100793	499,186604	95,722	0,065504	22,350000	51,630000
3,096813	495,492226	95,934	0,064022	22,350000	51,630000
3,092778	491,746707	96,135	0,062521	22,350000	51,630000
3,088730	488,216714	96,336	0,061105	22,350000	51,645000
3,084815	484,431012	96,539	0,059587	22,350000	51,645000
3,080759	480,232524	96,740	0,057903	22,350000	51,645000
3,076785	475,975588	96,940	0,056196	22,350000	51,645000
3,072732	471,554269	97,141	0,054423	22,350000	51,645000
3,068811	468,371308	97,342	0,053147	22,350000	51,645000
3,064805	464,452881	97,546	0,051576	22,350000	51,645000
3,060778	459,371591	97,748	0,049538	22,350000	51,645000
3,056824	455,858644	97,951	0,048129	22,350000	51,645000
3,052809	452,071725	98,153	0,046611	22,350000	51,645000
3,048783	447,173083	98,355	0,044646	22,340000	51,620000
3,044813	444,144765	98,557	0,043432	22,340000	51,620000
3,040841	440,086308	98,757	0,041805	22,340000	51,620000
3,036769	436,046115	98,958	0,040185	22,340000	51,620000
3,032771	432,053411	99,158	0,038583	22,340000	51,620000
3,028810	428,043660	99,358	0,036976	22,340000	51,620000
3,024798	424,727975	99,590	0,035646	22,340000	51,620000
3,020723	419,936487	99,809	0,033725	22,340000	51,620000
3,016814	415,456720	100,010	0,031928	22,340000	51,620000
3,012825	411,629617	100,211	0,030394	22,350000	51,620000
3,008790	408,372380	100,414	0,029087	22,350000	51,620000
3,004854	404,132491	100,615	0,027387	22,350000	51,620000
3,000798	399,554093	100,825	0,025551	22,350000	51,620000
2,996772	395,289852	101,027	0,023841	22,350000	51,620000
2,992843	391,561380	101,229	0,022346	22,350000	51,620000
2,988755	388,130017	101,431	0,020970	22,350000	51,620000
2,984774	384,608547	101,635	0,019558	22,350000	51,620000
2,980837	380,491642	101,838	0,017907	22,350000	51,620000
2,976816	376,697417	102,040	0,016386	22,350000	51,620000
2,972802	371,650220	102,241	0,014362	22,350000	51,620000
2,968817	367,550362	102,446	0,012718	22,350000	51,620000
2,964812	363,838938	102,647	0,011229	22,350000	51,620000
2,960834	360,407575	102,848	0,009854	22,350000	51,620000
2,956776	356,513501	103,050	0,008292	22,350000	51,620000
2,952773	352,653522	103,251	0,006744	22,350000	51,620000
2,948774	348,380757	103,451	0,005031	22,350000	51,620000
2,944797	344,215146	103,651	0,003360	22,350000	51,620000
2,940768	340,775259	103,852	0,001981	22,350000	51,620000
2,936843	336,816650	104,055	0,000394	22,350000	51,620000
2,932818	333,013901	104,256	-0,001131	22,350000	51,645000
2,928803	327,899733	104,458	-0,003182	22,350000	51,645000
2,924792	324,055584	104,660	-0,004724	22,350000	51,645000
2,920827	319,891190	104,862	-0,006394	22,350000	51,645000
2,916797	315,857086	105,064	-0,008011	22,350000	51,645000
2,912743	312,829986	105,266	-0,009225	22,350000	51,645000
2,908790	308,499990	105,469	-0,010961	22,350000	51,645000
2,904789	305,051580	105,670	-0,012344	22,350000	51,645000
2,900832	300,861615	105,872	-0,014024	22,350000	51,645000
2,896791	296,927359	106,075	-0,015602	22,350000	51,645000
2,892847	292,118824	106,278	-0,017530	22,350000	51,630000
2,888772	287,944689	106,482	-0,019204	22,350000	51,630000
2,884723	284,150464	106,683	-0,020726	22,350000	51,630000
2,880816	279,646343	106,884	-0,022532	22,350000	51,630000
2,876792	277,263385	107,084	-0,023487	22,350000	51,630000
2,872827	273,172050	107,288	-0,025128	22,350000	51,630000
2,868823	268,593653	107,488	-0,026964	22,350000	51,630000
2,864818	264,353764	107,691	-0,028664	22,350000	51,630000
2,860809	261,095309	107,893	-0,029971	22,350000	51,630000
2,856797	256,955268	108,093	-0,031631	22,350000	51,630000
2,852781	252,929688	108,294	-0,033245	22,350000	51,645000
2,848781	248,245353	108,501	-0,035124	22,350000	51,645000
2,844778	244,302574	108,704	-0,036705	22,350000	51,645000
2,840833	240,606979	108,904	-0,038187	22,350000	51,645000
2,836785	236,895554	109,105	-0,039675	22,350000	51,645000
2,832831	233,389914	109,312	-0,041081	22,350000	51,645000
2,828782	229,290056	109,514	-0,042725	22,350000	51,645000
2,824807	225,520184	109,715	-0,044236	22,350000	51,645000
2,820844	221,404497	109,916	-0,045887	22,350000	51,645000
2,816782	217,140255	110,117	-0,047597	22,350000	51,645000
2,812813	213,584691	110,318	-0,049022	22,340000	51,655000
2,808791	209,766112	110,518	-0,050554	22,340000	51,655000
2,804822	205,402022	110,719	-0,052304	22,340000	51,655000
2,800788	200,759089	110,919	-0,054166	22,340000	51,655000
2,796756	196,666537	111,119	-0,055807	22,340000	51,655000
2,792866	193,516453	111,320	-0,057070	22,340000	51,655000
2,788769	189,589503	111,522	-0,058645	22,340000	51,655000
2,784814	185,342308	111,724	-0,060348	22,340000	51,655000
2,780820	181,672284	111,925	-0,061819	22,340000	51,655000
2,776810	177,992519	112,133	-0,063295	22,340000	51,655000
2,772881	173,026905	112,334	-0,065286	22,340000	51,670000
2,768841	170,016852	112,537	-0,066493	22,340000	51,670000
2,764795	165,744087	112,738	-0,068207	22,340000	51,670000
2,760817	161,628400	112,949	-0,069857	22,340000	51,670000
2,756852	157,825651	113,151	-0,071382	22,340000	51,670000
2,752896	152,925791	113,354	-0,073347	22,340000	51,670000
2,748854	149,964444	113,556	-0,074534	22,340000	51,670000
2,744844	145,658802	113,762	-0,076261	22,340000	51,670000
2,740791	141,014651	113,964	-0,078123	22,340000	51,670000
2,736838	138,243259	114,164	-0,079234	22,340000	51,670000
2,732818	134,020418	114,366	-0,080928	22,340000	51,670000
2,728863	130,053285	114,566	-0,082519	22,340000	51,670000
2,724839	126,036228	114,769	-0,084129	22,340000	51,670000
2,720832	122,266356	114,970	-0,085641	22,340000	51,670000
2,716812	117,350666	115,171	-0,087612	22,340000	51,670000
2,712847	114,372272	115,371	-0,088807	22,340000	51,670000
2,708829	109,316552	115,571	-0,090834	22,340000	51,670000
2,704848	105,546680	115,773	-0,092346	22,340000	51,670000
2,700805	102,528104	115,973	-0,093556	22,340000	51,670000
2,696806	97,866905	116,174	-0,095425	22,340000	51,670000
2,692754	93,735388	116,375	-0,097082	22,350000	51,630000
2,688822	90,295501	116,575	-0,098461	22,350000	51,630000
2,684837	85,676921	116,777	-0,100313	22,350000	51,630000
2,680822	81,997156	116,979	-0,101789	22,350000	51,630000
2,676843	78,104300	117,180	-0,103350	22,350000	51,630000
2,672829	74,161520	117,380	-0,104931	22,350000	51,630000
2,668857	69,880231	117,580	-0,106648	22,350000	51,630000
2,664853	66,440344	117,781	-0,108027	22,350000	51,630000
2,660809	62,935922	117,984	-0,109433	22,350000	51,630000
2,656777	58,711863	118,185	-0,111126	22,350000	51,630000
2,652788	54,159036	118,386	-0,112952	22,340000	51,630000
2,648803	50,991905	118,586	-0,114222	22,340000	51,630000
2,644885	46,157799	118,788	-0,116161	22,340000	51,630000
2,640846	43,204976	118,990	-0,117345	22,340000	51,630000
2,636845	38,569348	119,193	-0,119204	22,340000	51,630000
2,632823	34,857924	119,401	-0,120692	22,340000	51,630000
2,628837	30,378156	119,611	-0,122488	22,340000	51,630000
2,624837	26,188192	119,813	-0,124168	22,340000	51,630000
2,620746	23,466724	120,019	-0,125260	22,340000	51,630000
2,616828	19,318160	120,220	-0,126923	22,340000	51,645000
2,612784	15,556811	120,427	-0,128432	22,340000	51,645000
2,608877	11,382676	120,628	-0,130105	22,340000	51,645000
2,604917	7,695605	120,829	-0,131584	22,340000	51,645000
2,600830	2,762868	121,029	-0,133562	22,340000	51,645000
2,596800	-1,179912	121,229	-0,135143	22,340000	51,645000
2,592785	-5,592708	121,429	-0,136913	22,340000	51,645000
2,588807	-8,381147	121,629	-0,138031	22,340000	51,645000
2,584860	-12,183896	121,831	-0,139556	22,340000	51,645000
2,580830	-17,552554	122,031	-0,141708	22,340000	51,645000
2,576802	-21,388180	122,231	-0,143247	22,350000	51,645000
2,572836	-24,548005	122,433	-0,144514	22,350000	51,645000
2,568850	-28,705093	122,635	-0,146181	22,350000	51,645000
2,564835	-33,604952	122,835	-0,148146	22,350000	51,645000
2,560802	-37,604962	123,036	-0,149750	22,350000	51,645000
2,556799	-41,143479	123,238	-0,151168	22,350000	51,645000
2,552853	-44,797674	123,439	-0,152634	22,350000	51,645000
2,548848	-48,699053	123,639	-0,154198	22,350000	51,645000
2,544825	-52,600433	123,839	-0,155763	22,350000	51,645000
2,540770	-57,063153	124,041	-0,157552	22,350000	51,645000
2,536827	-60,831807	124,241	-0,159063	22,350000	51,645000
2,532855	-65,963022	124,444	-0,161121	22,350000	51,645000
2,528803	-69,914326	124,644	-0,162706	22,350000	51,645000
2,524840	-73,287241	124,854	-0,164058	22,350000	51,645000
2,520849	-77,411452	125,056	-0,165712	22,350000	51,645000
2,516840	-81,354232	125,259	-0,167293	22,350000	51,645000
2,512867	-85,735369	125,460	-0,169050	22,350000	51,645000
2,508869	-89,099760	125,665	-0,170399	22,350000	51,645000
2,504794	-93,306772	125,865	-0,172086	22,350000	51,645000
2,500820	-98,032507	126,072	-0,173981	22,350000	51,645000
2,496857	-101,736625	126,273	-0,175466	22,350000	51,630000
2,492850	-105,613651	126,474	-0,177021	22,350000	51,630000
2,488855	-109,827969	126,674	-0,178711	22,350000	51,630000
2,484828	-113,696472	126,881	-0,180262	22,350000	51,630000
2,480858	-118,036208	127,082	-0,182002	22,350000	51,630000
2,476826	-121,450524	127,285	-0,183372	22,350000	51,630000
2,472867	-126,341860	127,488	-0,185333	22,350000	51,630000
2,468819	-130,383270	127,689	-0,186954	22,350000	51,630000
2,464841	-134,606112	127,889	-0,188647	22,350000	51,630000
2,460880	-138,664569	128,090	-0,190274	22,350000	51,630000
2,456863	-142,598825	128,291	-0,191852	22,340000	51,630000
2,452813	-145,470065	128,505	-0,193003	22,340000	51,630000
2,448845	-150,732787	128,706	-0,195114	22,340000	51,630000
2,444868	-153,619857	128,916	-0,196271	22,340000	51,630000
2,440783	-157,628390	129,119	-0,197879	22,340000	51,630000
2,436862	-162,189740	129,330	-0,199708	22,340000	51,630000
2,432827	-165,999795	129,530	-0,201236	22,340000	51,630000
2,428845	-170,322485	129,730	-0,202969	22,340000	51,630000
2,424886	-174,059480	129,931	-0,204468	22,340000	51,630000
2,420821	-177,563903	130,138	-0,205873	22,340000	51,630000
2,416879	-181,912163	130,339	-0,207617	22,350000	51,645000
2,412939	-186,622068	130,539	-0,209505	22,350000	51,645000
2,408772	-189,210811	130,739	-0,210543	22,350000	51,645000
2,404887	-193,450699	130,950	-0,212244	22,350000	51,645000
2,400791	-197,476280	131,152	-0,213858	22,350000	51,645000
2,396811	-201,510384	131,356	-0,215476	22,350000	51,645000
2,392865	-205,386193	131,556	-0,217030	22,350000	51,645000
2,388859	-208,784679	131,774	-0,218393	22,350000	51,645000
2,384867	-214,130202	131,977	-0,220536	22,350000	51,645000
2,380844	-217,148778	132,177	-0,221747	22,350000	51,645000
2,376841	-222,287299	132,380	-0,223807	22,340000	51,630000
2,372782	-225,231599	132,586	-0,224988	22,340000	51,630000
2,368882	-230,164335	132,787	-0,226966	22,340000	51,630000
2,364814	-233,951255	132,988	-0,228484	22,340000	51,630000
2,360837	-237,752786	133,190	-0,230009	22,340000	51,630000
2,356846	-241,061165	133,391	-0,231335	22,340000	51,630000
2,352815	-245,679746	133,592	-0,233187	22,340000	51,630000
2,348873	-248,369555	133,793	-0,234266	22,340000	51,630000
2,344857	0,247185	133,995	-0,134571	22,340000	51,630000
2,340916	0,197261	134,196	-0,134591	22,340000	51,630000
2,336839	0,131507	134,396	-0,134617	22,340000	51,630000
2,332847	0,090107	134,596	-0,134634	22,340000	51,630000
2,328799	0,288585	134,798	-0,134554	22,340000	51,630000
2,324874	0,122984	135,004	-0,134621	22,340000	51,630000
2,320855	0,221614	135,206	-0,134581	22,340000	51,630000
2,316778	0,164384	135,417	-0,134604	22,340000	51,630000
2,312823	0,157078	135,621	-0,134607	22,340000	51,630000
2,308777	0,362862	135,824	-0,134524	22,340000	51,630000
2,304830	0,354339	136,031	-0,134528	22,340000	51,630000
2,300829	0,197261	136,231	-0,134591	22,340000	51,620000
2,296804	0,230138	136,431	-0,134578	22,340000	51,620000
2,292874	0,172908	136,632	-0,134601	22,340000	51,620000
2,288805	0,074277	136,833	-0,134640	22,340000	51,620000
2,284825	0,041400	137,035	-0,134653	22,340000	51,620000
2,280809	0,197261	137,237	-0,134591	22,340000	51,620000
2,276803	0,065754	137,439	-0,134644	22,340000	51,620000
2,272804	0,618571	137,639	-0,134422	22,340000	51,620000
2,268827	0,164384	137,839	-0,134604	22,340000	51,620000
2,264808	0,081583	138,040	-0,134637	22,340000	51,620000
2,260827	0,140031	138,243	-0,134614	22,350000	51,645000
2,256818	-0,032877	138,443	-0,134683	22,350000	51,645000
2,252812	0,271538	138,644	-0,134561	22,350000	51,645000
2,248859	0,214308	138,846	-0,134584	22,350000	51,645000
2,244881	0,362862	139,046	-0,134524	22,350000	51,645000
2,240773	0,081583	139,246	-0,134637	22,350000	51,645000
2,236836	0,221614	139,446	-0,134581	22,350000	51,645000
2,232789	0,172908	139,648	-0,134601	22,350000	51,645000
2,228828	0,157078	139,849	-0,134607	22,350000	51,645000
2,224872	0,338509	140,049	-0,134534	22,350000	51,645000
2,220830	-0,115678	140,249	-0,134716	22,350000	51,620000
2,216813	0,247185	140,451	-0,134571	22,350000	51,620000
2,212844	0,312938	140,654	-0,134544	22,350000	51,620000
2,208841	0,230138	140,855	-0,134578	22,350000	51,620000
2,204817	0,157078	141,055	-0,134607	22,350000	51,620000
2,200840	0,437140	141,255	-0,134495	22,350000	51,620000
2,196865	0,205784	141,457	-0,134587	22,350000	51,620000
2,192842	0,214308	141,666	-0,134584	22,350000	51,620000
2,191810	0,304415	141,717	-0,134548	22,350000	51,620000

X-Pos [um]	Y-Pos [um]
0,000000	2,000857

POC
2,597772
2,200681	-0,148554	0,314	-0,134587	22,360000	51,635000
2,204751	-0,024353	0,518	-0,134538	22,360000	51,635000
2,208747	0,131507	0,718	-0,134475	22,360000	51,635000
[...]
3,478408	897,290465	71,605	0,225478	22,360000	51,635000
3,478391	897,141911	71,811	0,225418	22,360000	51,635000
3,478354	897,141911	72,013	0,225418	22,360000	51,635000
3,478396	897,264894	72,220	0,225467	22,360000	51,635000
3,478398	897,347695	72,424	0,225500	22,360000	51,635000
3,478375	897,109034	72,626	0,225405	22,360000	51,635000
3,478376	896,877679	72,827	0,225312	22,360000	51,635000
3,478341	897,034757	73,027	0,225375	22,360000	51,635000
3,478333	896,696248	73,237	0,225239	22,360000	51,635000
3,478385	897,001880	73,439	0,225362	22,350000	51,605000
3,478343	897,026233	73,640	0,225372	22,350000	51,605000
3,478333	897,001880	73,841	0,225362	22,350000	51,605000
3,478356	897,059110	74,043	0,225385	22,350000	51,605000
3,478408	896,934909	74,245	0,225335	22,350000	51,605000
3,478403	896,720601	74,446	0,225249	22,350000	51,605000
3,478340	897,389096	74,665	0,225517	22,350000	51,605000
3,478425	896,663371	74,865	0,225226	22,350000	51,605000
3,478371	896,746172	75,065	0,225259	22,350000	51,605000
3,478338	896,844802	75,266	0,225299	22,350000	51,605000
3,478384	896,861849	75,466	0,225306	22,350000	51,605000
3,478356	896,737648	75,669	0,225256	22,350000	51,605000
3,478368	896,853326	75,870	0,225302	22,350000	51,605000
3,478401	896,803402	76,071	0,225282	22,350000	51,605000
3,478316	896,613447	76,271	0,225206	22,350000	51,605000
3,475342	893,677671	76,471	0,224029	22,350000	51,605000
3,471398	889,560766	76,673	0,222378	22,350000	51,605000
3,467360	885,635034	76,875	0,220804	22,350000	51,605000
3,463348	881,403669	77,076	0,219107	22,350000	51,605000
3,459424	877,757998	77,283	0,217645	22,350000	51,605000
3,455417	873,930895	77,484	0,216110	22,340000	51,630000
3,451371	870,069699	77,696	0,214562	22,340000	51,630000
3,447396	865,995412	77,897	0,212928	22,340000	51,630000
3,443361	862,159786	78,098	0,211390	22,340000	51,630000
3,439437	857,821267	78,314	0,209650	22,340000	51,630000
3,435371	854,324151	78,514	0,208248	22,340000	51,630000
3,431373	849,144229	78,715	0,206171	22,340000	51,630000
3,427390	844,887293	78,915	0,204464	22,340000	51,630000
3,423391	841,431577	79,118	0,203078	22,340000	51,630000
3,419348	837,283013	79,320	0,201415	22,340000	51,630000
3,415420	833,093049	79,521	0,199734	22,360000	51,635000
3,411412	829,298823	79,722	0,198213	22,360000	51,635000
3,407421	825,751783	79,925	0,196791	22,360000	51,635000
3,403384	821,709155	80,125	0,195169	22,360000	51,635000
3,399368	817,444913	80,344	0,193459	22,360000	51,635000
3,395384	813,783413	80,547	0,191991	22,360000	51,635000
3,391414	809,477770	80,749	0,190265	22,360000	51,635000
3,387420	804,545034	80,950	0,188287	22,360000	51,635000
3,383412	800,593731	81,152	0,186702	22,360000	51,635000
3,379382	796,873782	81,352	0,185210	22,350000	51,630000
3,375387	792,419586	81,556	0,183424	22,350000	51,630000
3,371395	788,706944	81,756	0,181936	22,350000	51,630000
3,367417	784,038439	81,968	0,180063	22,350000	51,630000
3,363392	780,929756	82,168	0,178817	22,350000	51,630000
3,359387	776,342834	82,370	0,176978	22,350000	51,630000
3,355400	772,507209	82,572	0,175439	22,350000	51,630000
3,351405	768,292891	82,772	0,173750	22,350000	51,630000
3,347403	765,174466	82,972	0,172499	22,350000	51,630000
3,343419	760,514485	83,176	0,170630	22,350000	51,630000
3,339437	756,654506	83,377	0,169083	22,350000	51,630000
3,335428	752,694679	83,578	0,167495	22,350000	51,630000
3,331451	748,677622	83,780	0,165884	22,350000	51,630000
3,327392	744,867567	83,981	0,164356	22,350000	51,630000
3,323410	739,827677	84,184	0,162335	22,350000	51,630000
3,319383	736,107729	84,397	0,160843	22,350000	51,630000
3,315458	733,113505	84,600	0,159643	22,350000	51,630000
3,311427	728,790816	84,800	0,157909	22,350000	51,630000
3,307448	724,930837	85,000	0,156361	22,350000	51,630000
3,303394	719,816669	85,214	0,154311	22,350000	51,630000
3,299424	717,242538	85,417	0,153278	22,340000	51,630000
3,295413	712,855313	85,623	0,151519	22,340000	51,630000
3,291482	708,945410	85,826	0,149951	22,340000	51,630000
3,287427	705,184061	86,032	0,148443	22,340000	51,630000
3,283428	701,141434	86,234	0,146822	22,340000	51,630000
3,279374	696,745685	86,436	0,145059	22,340000	51,630000
3,275411	692,455872	86,636	0,143339	22,340000	51,630000
3,271398	688,777324	86,836	0,141864	22,340000	51,630000
3,267411	684,348699	87,036	0,140088	22,340000	51,630000
3,263411	680,562997	87,236	0,138570	22,340000	51,630000
3,259445	676,843049	87,437	0,137078	22,340000	51,630000
3,255454	672,701790	87,638	0,135417	22,340000	51,630000
3,251385	668,783364	87,838	0,133846	22,340000	51,630000
3,247432	664,873461	88,039	0,132278	22,340000	51,630000
3,243406	660,370558	88,241	0,130473	22,340000	51,630000
3,239418	656,922148	88,444	0,129090	22,340000	51,630000
3,235457	652,830814	88,645	0,127449	22,340000	51,630000
3,231398	648,888034	88,845	0,125868	22,340000	51,630000
3,227446	643,749513	89,047	0,123808	22,340000	51,630000
3,223433	639,872487	89,249	0,122253	22,340000	51,630000
3,219492	636,119662	89,449	0,120748	22,360000	51,635000
3,215423	632,663946	89,650	0,119362	22,360000	51,635000
3,211420	628,811273	89,851	0,117817	22,360000	51,635000
3,207386	624,052661	90,053	0,115909	22,360000	51,635000
3,203372	620,704099	90,255	0,114566	22,360000	51,635000
3,199463	615,771363	90,467	0,112588	22,360000	51,635000
3,195486	611,811536	90,668	0,111000	22,360000	51,635000
3,191458	608,223095	90,870	0,109562	22,360000	51,635000
3,187468	604,998734	91,071	0,108269	22,360000	51,635000
3,183439	600,618814	91,272	0,106512	22,360000	51,635000
3,179508	595,817585	91,473	0,104587	22,360000	51,635000
3,175479	593,030364	91,680	0,103469	22,360000	51,635000
3,171472	587,809042	91,882	0,101375	22,360000	51,635000
3,167425	583,997769	92,084	0,099847	22,360000	51,635000
3,163420	579,832158	92,286	0,098177	22,360000	51,635000
3,159489	576,458025	92,487	0,096824	22,360000	51,635000
3,155396	571,946598	92,688	0,095015	22,360000	51,635000
3,151441	568,878098	92,890	0,093784	22,360000	51,635000
3,147499	564,828164	93,092	0,092160	22,360000	51,635000
3,143411	560,233937	93,307	0,090318	22,360000	51,635000
3,139460	556,588266	93,509	0,088856	22,350000	51,620000
3,135503	551,935591	93,709	0,086990	22,350000	51,620000
3,131516	548,752630	93,923	0,085714	22,350000	51,620000
3,127488	544,215633	94,125	0,083895	22,350000	51,620000
3,123467	540,429931	94,326	0,082376	22,350000	51,620000
3,119470	536,181519	94,526	0,080673	22,350000	51,620000
3,115473	531,917277	94,735	0,078963	22,350000	51,620000
3,111434	528,724575	94,935	0,077683	22,350000	51,620000
3,107461	524,477381	95,136	0,075979	22,350000	51,620000
3,103446	521,234755	95,338	0,074679	22,340000	51,620000
3,099483	516,574774	95,553	0,072811	22,340000	51,620000
3,095465	511,659085	95,756	0,070839	22,340000	51,620000
3,091435	508,879169	95,979	0,069725	22,340000	51,620000
3,087477	504,853589	96,179	0,068110	22,340000	51,620000
3,083520	499,590867	96,379	0,066000	22,340000	51,620000
3,079472	495,682181	96,579	0,064433	22,340000	51,620000
3,075470	492,423726	96,781	0,063126	22,340000	51,620000
3,071486	488,752484	96,981	0,061654	22,340000	51,620000
3,067469	484,802398	97,182	0,060070	22,340000	51,620000
3,063466	480,405432	97,388	0,058307	22,350000	51,605000
3,059454	475,688221	97,605	0,056415	22,350000	51,605000
3,055443	471,968273	97,808	0,054923	22,350000	51,605000
3,051479	467,801444	98,031	0,053252	22,350000	51,605000
3,047490	464,791391	98,233	0,052045	22,350000	51,605000
3,043470	460,691533	98,436	0,050401	22,350000	51,605000
3,039444	456,881478	98,637	0,048874	22,350000	51,605000
3,035425	452,147220	98,839	0,046975	22,350000	51,605000
3,031482	448,508855	99,041	0,045516	22,350000	51,605000
3,027476	444,970338	99,259	0,044097	22,350000	51,605000
3,023456	441,167589	99,460	0,042572	22,340000	51,630000
3,019518	437,026331	99,661	0,040912	22,340000	51,630000
3,015507	432,003487	99,864	0,038897	22,340000	51,630000
3,011419	429,323420	100,065	0,037823	22,340000	51,630000
3,007506	424,983683	100,273	0,036083	22,340000	51,630000
3,003453	420,662212	100,481	0,034350	22,340000	51,630000
2,999526	416,348046	100,681	0,032620	22,340000	51,630000
2,995496	412,850929	100,885	0,031217	22,340000	51,630000
2,991494	408,232349	101,086	0,029365	22,340000	51,630000
2,987464	404,445429	101,304	0,027847	22,340000	51,630000
2,983499	401,195498	101,504	0,026543	22,350000	51,620000
2,979466	396,337038	101,704	0,024595	22,350000	51,620000
2,975499	393,326985	101,924	0,023388	22,350000	51,620000
2,971508	388,592727	102,124	0,021490	22,350000	51,620000
2,967446	385,417073	102,328	0,020216	22,350000	51,620000
2,963464	381,301385	102,529	0,018566	22,350000	51,620000
2,959498	377,201527	102,732	0,016922	22,350000	51,620000
2,955474	372,854485	102,935	0,015179	22,350000	51,620000
2,951491	368,820381	103,136	0,013561	22,350000	51,620000
2,947451	364,383231	103,337	0,011782	22,350000	51,620000
2,943445	361,339084	103,545	0,010561	22,350000	51,620000
2,939541	357,099195	103,746	0,008861	22,350000	51,620000
2,935516	353,593555	103,964	0,007455	22,350000	51,620000
2,931452	349,287913	104,166	0,005729	22,350000	51,620000
2,927459	345,246503	104,373	0,004108	22,350000	51,620000
2,923452	341,732339	104,574	0,002699	22,350000	51,620000
2,919457	336,668095	104,777	0,000668	22,350000	51,620000
2,915468	333,979504	104,983	-0,000410	22,350000	51,620000
2,911446	329,269599	105,185	-0,002299	22,350000	51,620000
2,907475	325,623928	105,386	-0,003761	22,350000	51,605000
2,903475	321,103978	105,586	-0,005573	22,350000	51,605000
2,899505	317,746893	105,788	-0,006919	22,350000	51,605000
2,895462	312,747185	105,994	-0,008924	22,350000	51,605000
2,891491	308,985836	106,196	-0,010433	22,350000	51,605000
2,887465	305,794352	106,408	-0,011712	22,350000	51,605000
2,883497	300,713061	106,609	-0,013750	22,350000	51,605000
2,879466	297,908792	106,812	-0,014875	22,350000	51,605000
2,875501	292,720348	107,014	-0,016955	22,350000	51,605000
2,871478	290,040280	107,214	-0,018030	22,350000	51,605000
2,867489	285,907546	107,414	-0,019687	22,340000	51,630000
2,863441	281,123363	107,615	-0,021605	22,340000	51,630000
2,859506	277,007676	107,817	-0,023256	22,340000	51,630000
2,855517	273,204927	108,031	-0,024781	22,340000	51,630000
2,851472	270,632014	108,235	-0,025813	22,340000	51,630000
2,847526	264,799427	108,449	-0,028151	22,340000	51,630000
2,843486	262,358021	108,649	-0,029130	22,340000	51,630000
2,839480	258,110826	108,855	-0,030833	22,340000	51,630000
2,835486	254,480985	109,056	-0,032289	22,340000	51,630000
2,831510	250,084018	109,268	-0,034052	22,340000	51,630000
2,827510	246,182639	109,469	-0,035617	22,350000	51,605000
2,823473	241,217026	109,670	-0,037608	22,350000	51,605000
2,819505	238,421281	109,873	-0,038729	22,350000	51,605000
2,815522	234,091285	110,076	-0,040465	22,350000	51,605000
2,811510	229,290056	110,277	-0,042391	22,350000	51,605000
2,807469	225,413030	110,493	-0,043945	22,350000	51,605000
2,803482	221,511651	110,695	-0,045510	22,350000	51,605000
2,799505	218,137518	110,902	-0,046863	22,350000	51,605000
2,795549	213,403259	111,104	-0,048761	22,350000	51,605000
2,791472	210,310406	111,324	-0,050001	22,350000	51,605000
2,787457	206,409026	111,525	-0,051566	22,350000	51,620000
2,783462	202,077813	111,728	-0,053303	22,350000	51,620000
2,779458	197,467756	111,935	-0,055151	22,350000	51,620000
2,775505	194,209301	112,137	-0,056458	22,350000	51,620000
2,771501	190,654954	112,343	-0,057883	22,350000	51,620000
2,767494	186,793758	112,543	-0,059432	22,350000	51,620000
2,763489	182,975179	112,745	-0,060963	22,350000	51,620000
2,759484	178,949599	112,946	-0,062577	22,350000	51,620000
2,755510	175,015343	113,165	-0,064155	22,350000	51,620000
2,751468	170,816854	113,365	-0,065838	22,350000	51,630000
2,747434	166,098426	113,575	-0,067730	22,350000	51,630000
2,743521	162,205570	113,776	-0,069292	22,350000	51,630000
2,739496	158,732807	114,000	-0,070684	22,350000	51,630000
2,735482	155,037212	114,201	-0,072166	22,350000	51,630000
2,731487	150,121522	114,403	-0,074137	22,350000	51,630000
2,727500	147,037192	114,603	-0,075374	22,350000	51,630000
2,723496	143,193043	114,809	-0,076916	22,350000	51,630000
2,719463	138,103228	115,010	-0,078957	22,350000	51,630000
2,715476	135,060298	115,213	-0,080177	22,350000	51,630000
2,711494	130,613408	115,414	-0,081960	22,340000	51,605000
2,707507	127,190569	115,624	-0,083333	22,340000	51,605000
2,703494	122,224955	115,825	-0,085324	22,340000	51,605000
2,699491	118,347929	116,032	-0,086878	22,340000	51,605000
2,695480	114,422196	116,232	-0,088453	22,340000	51,605000
2,691524	110,925080	116,435	-0,089855	22,340000	51,605000
2,687529	107,633748	116,636	-0,091175	22,340000	51,605000
2,683515	103,352459	116,838	-0,092892	22,340000	51,605000
2,679488	99,682435	117,039	-0,094363	22,340000	51,605000
2,675537	95,575271	117,241	-0,096010	22,340000	51,605000
2,671492	91,458366	117,445	-0,097661	22,340000	51,620000
2,667475	87,152724	117,655	-0,099388	22,340000	51,620000
2,663509	83,762761	117,856	-0,100747	22,340000	51,620000
2,659453	80,067166	118,056	-0,102229	22,340000	51,620000
2,655470	75,935649	118,256	-0,103886	22,340000	51,620000
2,651505	72,074453	118,459	-0,105434	22,340000	51,620000
2,647486	68,065919	118,659	-0,107042	22,340000	51,620000
2,643511	63,843078	118,860	-0,108735	22,340000	51,620000
2,639498	59,668943	119,068	-0,110409	22,340000	51,620000
2,635473	55,198917	119,273	-0,112201	22,340000	51,620000
2,631469	52,023262	119,474	-0,113475	22,340000	51,620000
2,627510	47,370587	119,685	-0,115340	22,340000	51,620000
2,623488	43,106345	119,887	-0,117050	22,340000	51,620000
2,619525	39,476504	120,101	-0,118506	22,340000	51,620000
2,615486	35,386388	120,303	-0,120146	22,340000	51,620000
2,611498	32,168115	120,504	-0,121437	22,340000	51,620000
2,607579	27,326703	120,705	-0,123378	22,340000	51,620000
2,603546	23,418017	120,906	-0,124945	22,340000	51,620000
2,599514	19,548297	121,106	-0,126497	22,340000	51,620000
2,595537	15,821043	121,309	-0,127992	22,340000	51,620000
2,591488	11,894093	121,511	-0,129566	22,340000	51,630000
2,587509	8,891346	121,716	-0,130771	22,340000	51,630000
2,583492	4,074287	121,917	-0,132702	22,340000	51,630000
2,579509	0,041400	122,127	-0,134319	22,340000	51,630000
2,575512	-4,181441	122,343	-0,136013	22,340000	51,630000
2,571530	-6,912650	122,546	-0,137108	22,340000	51,630000
2,567522	-11,341276	122,748	-0,138884	22,340000	51,630000
2,563477	-15,268226	122,948	-0,140458	22,340000	51,630000
2,559532	-19,746776	123,154	-0,142254	22,340000	51,630000
2,555522	-22,881030	123,354	-0,143511	22,340000	51,630000
2,551513	-26,412241	123,557	-0,144927	22,340000	51,630000
2,547488	-30,395203	123,758	-0,146524	22,340000	51,630000
2,543445	-35,716373	123,960	-0,148658	22,340000	51,630000
2,539478	-39,642106	124,162	-0,150232	22,340000	51,630000
2,535485	-41,852157	124,364	-0,151119	22,340000	51,630000
2,531463	-46,150493	124,564	-0,152842	22,340000	51,630000
2,527496	-50,752026	124,765	-0,154688	22,340000	51,630000
2,523456	-54,959038	124,965	-0,156375	22,340000	51,630000
2,519453	-58,398925	125,166	-0,157754	22,340000	51,630000
2,515475	-62,011719	125,367	-0,159203	22,340000	51,630000
2,511513	-66,201683	125,568	-0,160883	22,340000	51,630000
2,507526	-69,914326	125,770	-0,162372	22,340000	51,630000
2,503470	-73,848582	125,971	-0,163949	22,340000	51,630000
2,499565	-77,922869	126,171	-0,165583	22,340000	51,630000
2,495510	-81,651340	126,388	-0,167078	22,340000	51,630000
2,491532	-85,758504	126,589	-0,168725	22,340000	51,630000
2,487531	-90,139641	126,805	-0,170482	22,340000	51,630000
2,483516	-93,536910	127,007	-0,171844	22,340000	51,630000
2,479526	-97,818199	127,209	-0,173561	22,340000	51,630000
2,475476	-102,263872	127,410	-0,175344	22,350000	51,630000
2,471517	-106,149421	127,610	-0,176902	22,350000	51,630000
2,467509	-109,580784	127,811	-0,178278	22,350000	51,630000
2,463484	-113,910780	128,013	-0,180014	22,350000	51,630000
2,459471	-117,862083	128,213	-0,181599	22,350000	51,630000
2,455472	-122,687666	128,415	-0,183534	22,350000	51,630000
2,451562	-125,607612	128,617	-0,184705	22,350000	51,630000
2,447514	-130,663332	128,837	-0,186732	22,350000	51,630000
2,443501	-133,443247	129,038	-0,187847	22,350000	51,630000
2,439510	-138,061828	129,248	-0,189699	22,350000	51,630000
2,435521	-141,625916	129,454	-0,191128	22,350000	51,630000
2,431501	-145,295940	129,654	-0,192600	22,350000	51,630000
2,427463	-149,602800	129,856	-0,194327	22,350000	51,630000
2,423545	-154,649996	130,057	-0,196351	22,350000	51,630000
2,419539	-157,364158	130,259	-0,197439	22,350000	51,630000
2,415515	-161,595523	130,459	-0,199136	22,350000	51,630000
2,411478	-165,628409	130,660	-0,200753	22,350000	51,630000
2,407564	-170,106959	130,865	-0,202549	22,350000	51,630000
2,403518	-174,372419	131,065	-0,204259	22,350000	51,630000
2,399540	-177,465272	131,266	-0,205500	22,350000	51,630000
2,395493	-182,175177	131,467	-0,207388	22,340000	51,630000
2,391528	-186,572144	131,669	-0,209151	22,340000	51,630000
2,387502	-189,524967	131,871	-0,210335	22,340000	51,630000
2,383544	-193,772161	132,100	-0,212039	22,340000	51,630000
2,379579	-198,581914	132,302	-0,213967	22,340000	51,630000
2,375557	-202,804756	132,519	-0,215661	22,340000	51,630000
2,371536	-206,186195	132,724	-0,217017	22,340000	51,630000
2,367485	-209,691835	132,930	-0,218422	22,340000	51,630000
2,363540	-215,037358	133,133	-0,220566	22,340000	51,630000
2,359541	-218,641628	133,344	-0,222011	22,340000	51,630000
2,355492	-222,584408	133,556	-0,223592	22,340000	51,630000
2,351489	-227,095835	133,757	-0,225401	22,340000	51,630000
2,347539	-230,288536	133,967	-0,226682	22,340000	51,630000
2,343494	-233,901331	134,168	-0,228130	22,340000	51,630000
2,339540	-237,827063	134,368	-0,229705	22,340000	51,630000
2,335484	-242,742752	134,569	-0,231676	22,340000	51,630000
2,331499	-246,059656	134,788	-0,233006	22,340000	51,630000
2,327519	-249,663926	134,989	-0,234451	22,340000	51,630000
2,323542	-253,853891	135,198	-0,236131	22,340000	51,630000
2,319500	-258,143703	135,402	-0,237852	22,340000	51,605000
2,315530	-261,822251	135,606	-0,239327	22,340000	51,605000
2,311540	-265,525152	135,807	-0,240812	22,340000	51,605000
2,307514	-269,583609	136,008	-0,242439	22,340000	51,605000
2,303517	-274,384839	136,214	-0,244364	22,340000	51,605000
2,299521	-0,642924	136,417	-0,134594	22,340000	51,605000
2,295483	-0,388433	136,617	-0,134492	22,340000	51,605000
2,291539	-0,231355	136,820	-0,134429	22,340000	51,605000
2,287507	-0,049924	137,022	-0,134356	22,340000	51,605000
2,283524	0,017047	137,223	-0,134329	22,340000	51,605000
2,279543	-0,157078	137,424	-0,134399	22,340000	51,620000
2,275530	-0,321462	137,641	-0,134465	22,340000	51,620000
2,271517	-0,247185	137,841	-0,134435	22,340000	51,620000
2,267531	-0,272756	138,055	-0,134445	22,340000	51,620000
2,263536	-0,404263	138,256	-0,134498	22,340000	51,620000
2,259541	-0,329986	138,469	-0,134468	22,340000	51,620000
2,255484	-0,231355	138,670	-0,134429	22,340000	51,620000
2,251507	-0,412786	138,880	-0,134501	22,340000	51,620000
2,247566	-0,264232	139,082	-0,134442	22,340000	51,620000
2,243512	-0,404263	139,299	-0,134498	22,340000	51,620000
2,239557	-0,362862	139,501	-0,134481	22,350000	51,630000
2,235542	-0,428616	139,717	-0,134508	22,350000	51,630000
2,231554	-0,255708	139,919	-0,134438	22,350000	51,630000
2,227455	-0,305632	140,119	-0,134458	22,350000	51,630000
2,223569	-0,371386	140,319	-0,134485	22,350000	51,630000
2,219583	-0,140031	140,519	-0,134392	22,350000	51,630000
2,215486	-0,371386	140,719	-0,134485	22,350000	51,630000
2,211541	-0,272756	140,919	-0,134445	22,350000	51,630000
2,207553	-0,231355	141,121	-0,134429	22,350000	51,630000
2,203569	-0,412786	141,321	-0,134501	22,350000	51,630000
2,199566	-0,347033	141,524	-0,134475	22,350000	51,630000
2,195476	-0,347033	141,728	-0,134475	22,350000	51,630000
2,191470	-0,329986	141,928	-0,134468	22,350000	51,630000
2,187549	-0,107154	142,129	-0,134379	22,350000	51,630000
2,183530	-0,362862	142,331	-0,134481	22,350000	51,630000
2,179495	-0,124201	142,555	-0,134386	22,350000	51,630000
2,178487	-0,264232	142,605	-0,134442	22,350000	51,630000