File: Nanoindentation Datenauswertung/data/S_calib/S_calib_2408-1
Quasi static measurement routine
Tip parameters (shape,radius, material...)
24.08.2022

Piezo position[nm]	MEMS displ.[nm]	Time[ms]	Cap [pf]	Temp [°C]	Rh [%]
eoh
2,643969	-0,024537	0,161	-0,120533	22,350000	51,540000
2,647910	2,169048	0,363	-0,119660	22,350000	51,540000
2,651915	8,268883	0,565	-0,117232	22,350000	51,540000
2,655975	12,458533	0,765	-0,115565	22,350000	51,540000
2,659921	16,264182	0,966	-0,114050	22,350000	51,540000
2,663984	18,175595	1,166	-0,113290	22,350000	51,540000
2,667923	22,613065	1,366	-0,111523	22,350000	51,540000
2,671910	26,602740	1,566	-0,109936	22,360000	51,585000
2,675860	30,583827	1,767	-0,108351	22,360000	51,585000
2,679877	34,514614	1,967	-0,106787	22,360000	51,585000
2,683977	40,780072	2,169	-0,104293	22,360000	51,585000
2,687920	42,558986	2,370	-0,103585	22,360000	51,585000
2,691947	48,641646	2,570	-0,101164	22,360000	51,585000
2,695970	52,399448	2,771	-0,099668	22,360000	51,585000
2,699911	54,775832	2,971	-0,098723	22,360000	51,585000
2,703875	59,021916	3,173	-0,097033	22,360000	51,585000
2,707896	63,144090	3,374	-0,095392	22,360000	51,585000
2,711874	67,541075	3,574	-0,093642	22,360000	51,585000
2,715919	72,502405	3,774	-0,091667	22,360000	51,585000
2,719899	76,299466	3,975	-0,090156	22,360000	51,585000
2,723893	79,815582	4,175	-0,088757	22,360000	51,585000
2,727897	83,605282	4,376	-0,087249	22,360000	51,585000
2,731859	87,419519	4,577	-0,085730	22,360000	51,585000
2,735927	90,968760	4,779	-0,084318	22,360000	51,585000
2,739943	94,882371	4,980	-0,082760	22,360000	51,585000
2,743945	99,029081	5,181	-0,081110	22,360000	51,585000
2,747879	103,010168	5,382	-0,079525	22,350000	51,555000
2,751929	106,949543	5,584	-0,077958	22,350000	51,555000
2,755900	113,174515	5,784	-0,075480	22,350000	51,555000
2,759854	117,096714	5,986	-0,073919	22,350000	51,555000
2,763939	121,227475	6,186	-0,072275	22,350000	51,555000
2,767899	125,166850	6,386	-0,070707	22,350000	51,555000
2,771927	128,781113	6,588	-0,069269	22,350000	51,555000
2,775914	132,995299	6,788	-0,067591	22,350000	51,555000
2,779969	135,246545	6,989	-0,066695	22,350000	51,555000
2,783894	140,691249	7,191	-0,064528	22,350000	51,555000
2,787937	142,992796	7,392	-0,063612	22,350000	51,555000
2,791962	146,591110	7,593	-0,062180	22,350000	51,555000
2,795896	151,909450	7,794	-0,060063	22,350000	51,555000
2,799899	155,333553	7,994	-0,058701	22,350000	51,555000
2,803873	159,439777	8,194	-0,057066	22,350000	51,555000
2,807903	163,943497	8,394	-0,055274	22,350000	51,555000
2,811846	167,558986	8,596	-0,053835	22,350000	51,555000
2,815897	171,697109	8,798	-0,052188	22,350000	51,555000
2,819851	175,885531	8,998	-0,050521	22,350000	51,555000
2,823885	179,708356	9,198	-0,049000	22,350000	51,555000
2,827915	183,847705	9,398	-0,047352	22,350000	51,540000
2,831925	187,944115	9,598	-0,045722	22,350000	51,540000
2,835898	193,496781	9,798	-0,043512	22,350000	51,540000
2,839882	195,573816	9,998	-0,042685	22,350000	51,540000
2,843912	199,588028	10,199	-0,041087	22,350000	51,540000
2,847918	203,643952	10,400	-0,039473	22,350000	51,540000
2,851925	208,248273	10,601	-0,037641	22,350000	51,540000
2,855843	211,979085	10,802	-0,036156	22,350000	51,540000
2,859875	216,142971	11,002	-0,034499	22,350000	51,540000
2,863883	221,934870	11,202	-0,032193	22,350000	51,540000
2,867902	226,032506	11,403	-0,030562	22,350000	51,540000
2,871899	228,168430	11,603	-0,029712	22,350000	51,540000
2,875882	231,725031	11,804	-0,028297	22,350000	51,540000
2,879927	236,653237	12,004	-0,026335	22,350000	51,540000
2,883913	241,988752	12,206	-0,024212	22,350000	51,540000
2,887952	245,670491	12,407	-0,022747	22,350000	51,540000
2,891893	249,808613	12,607	-0,021100	22,350000	51,540000
2,895862	253,307553	12,808	-0,019707	22,350000	51,540000
2,899896	257,246928	13,009	-0,018139	22,350000	51,540000
2,903897	261,318801	13,209	-0,016519	22,350000	51,540000
2,907922	265,042252	13,409	-0,015037	22,350000	51,540000
2,911884	267,992796	13,609	-0,013862	22,350000	51,540000
2,915885	273,984669	13,811	-0,011478	22,350000	51,540000
2,919893	276,062932	14,011	-0,010650	22,350000	51,540000
2,923867	280,326192	14,212	-0,008954	22,350000	51,540000
2,927866	284,331815	14,414	-0,007359	22,350000	51,540000
2,931916	288,353388	14,615	-0,005759	22,350000	51,540000
2,935900	292,268226	14,815	-0,004201	22,350000	51,540000
2,939867	296,256674	15,016	-0,002613	22,350000	51,540000
2,943861	300,221812	15,217	-0,001035	22,350000	51,540000
2,947916	304,434772	15,419	0,000642	22,350000	51,525000
2,951909	308,398683	15,621	0,002219	22,350000	51,525000
2,955829	314,075259	15,821	0,004479	22,350000	51,525000
2,959896	318,230557	16,021	0,006132	22,350000	51,525000
2,963913	321,720909	16,222	0,007521	22,350000	51,525000
2,967850	326,349766	16,422	0,009364	22,350000	51,525000
2,971912	330,630202	16,622	0,011067	22,350000	51,525000
2,975869	332,209141	16,822	0,011696	22,350000	51,525000
2,979877	336,223353	17,022	0,013293	22,350000	51,525000
2,983870	340,237565	17,222	0,014891	22,350000	51,525000
2,987861	344,516773	17,423	0,016594	22,350000	51,565000
2,991880	349,644953	17,623	0,018635	22,350000	51,565000
2,995844	354,049299	17,823	0,020388	22,350000	51,565000
2,999854	357,215766	18,025	0,021648	22,350000	51,565000
3,003869	360,514732	18,225	0,022961	22,350000	51,565000
3,007834	364,429570	18,425	0,024520	22,350000	51,565000
3,011859	368,543155	18,626	0,026157	22,350000	51,565000
3,015854	372,956089	18,827	0,027913	22,350000	51,565000
3,019893	377,334671	19,027	0,029656	22,350000	51,565000
3,023824	381,216385	19,227	0,031201	22,350000	51,565000
3,027842	384,906711	19,428	0,032669	22,350000	51,565000
3,031934	388,696412	19,629	0,034178	22,350000	51,565000
3,035911	392,834534	19,830	0,035825	22,350000	51,565000
3,039820	396,707659	20,030	0,037366	22,350000	51,565000
3,043865	400,613909	20,230	0,038921	22,350000	51,565000
3,047859	406,422984	20,430	0,041233	22,350000	51,565000
3,051856	408,957630	20,630	0,042242	22,350000	51,565000
3,055896	412,423445	20,832	0,043621	22,350000	51,565000
3,059878	416,603280	21,033	0,045285	22,350000	51,565000
3,063838	422,703115	21,234	0,047712	22,350000	51,565000
3,067873	426,708739	21,434	0,049307	22,360000	51,585000
3,071816	430,780612	21,636	0,050927	22,360000	51,585000
3,075869	434,603437	21,837	0,052449	22,360000	51,585000
3,079833	439,000422	22,037	0,054199	22,360000	51,585000
3,083897	442,689522	22,237	0,055667	22,360000	51,585000
3,087843	446,538110	22,438	0,057199	22,360000	51,585000
3,091875	450,568271	22,640	0,058803	22,360000	51,585000
3,095825	454,449984	22,840	0,060348	22,360000	51,585000
3,099865	458,305934	23,041	0,061882	22,360000	51,585000
3,103824	462,036746	23,241	0,063367	22,360000	51,585000
3,107930	464,746830	23,441	0,064446	22,350000	51,555000
3,111862	468,985553	23,643	0,066133	22,350000	51,555000
3,115866	472,982589	23,843	0,067724	22,350000	51,555000
3,119858	477,162423	24,044	0,069387	22,350000	51,555000
3,123825	481,101798	24,245	0,070955	22,350000	51,555000
3,127834	484,808074	24,445	0,072430	22,350000	51,555000
3,131864	489,370682	24,645	0,074246	22,350000	51,555000
3,135836	493,151794	24,846	0,075751	22,350000	51,555000
3,139815	496,750108	25,047	0,077183	22,350000	51,555000
3,143861	500,706658	25,247	0,078758	22,350000	51,555000
3,147796	504,771170	25,448	0,080375	22,360000	51,560000
3,151877	508,660245	25,648	0,081923	22,360000	51,560000
3,155856	514,535568	25,849	0,084262	22,360000	51,560000
3,159819	517,127876	26,049	0,085293	22,360000	51,560000
3,163799	520,851327	26,251	0,086775	22,360000	51,560000
3,167842	526,976926	26,451	0,089213	22,360000	51,560000
3,171834	530,733501	26,652	0,090708	22,360000	51,560000
3,175830	534,920697	26,854	0,092375	22,360000	51,560000
3,179850	538,852711	27,055	0,093940	22,360000	51,560000
3,183805	542,832571	27,255	0,095524	22,360000	51,560000
3,187885	546,256674	27,455	0,096887	22,360000	51,560000
3,191841	549,007243	27,655	0,097981	22,360000	51,560000
3,195821	552,681621	27,855	0,099444	22,360000	51,560000
3,199898	558,116510	28,055	0,101607	22,360000	51,560000
3,203839	561,424064	28,257	0,102923	22,360000	51,560000
3,207798	565,603898	28,457	0,104587	22,360000	51,560000
3,211840	569,261100	28,658	0,106042	22,360000	51,560000
3,215852	572,817702	28,859	0,107458	22,360000	51,560000
3,219844	576,590227	29,061	0,108959	22,360000	51,560000
3,223852	580,821588	29,262	0,110644	22,360000	51,560000
3,227885	585,034548	29,464	0,112320	22,350000	51,565000
3,231842	588,691750	29,664	0,113776	22,350000	51,565000
3,235784	592,979546	29,865	0,115482	22,350000	51,565000
3,239870	596,802371	30,067	0,117004	22,350000	51,565000
3,243833	602,785657	30,268	0,119385	22,350000	51,565000
3,247925	606,775332	30,468	0,120973	22,350000	51,565000
3,251893	610,864380	30,669	0,122601	22,350000	51,565000
3,255825	612,908291	30,870	0,123414	22,350000	51,565000
3,259880	616,780190	31,072	0,124955	22,350000	51,565000
3,263840	620,644728	31,272	0,126493	22,350000	51,565000
3,267882	626,911413	31,473	0,128987	22,350000	51,580000
3,271811	629,038748	31,675	0,129834	22,350000	51,580000
3,275797	634,308015	31,876	0,131931	22,350000	51,580000
3,279845	638,113664	32,077	0,133446	22,350000	51,580000
3,283831	641,455569	32,279	0,134776	22,350000	51,580000
3,287786	644,812196	32,480	0,136112	22,350000	51,580000
3,291839	649,250893	32,681	0,137878	22,350000	51,580000
3,295869	654,793744	32,881	0,140084	22,350000	51,580000
3,299833	656,962792	33,082	0,140948	22,350000	51,580000
3,303788	662,813580	33,284	0,143276	22,350000	51,580000
3,307802	666,869504	33,485	0,144891	22,350000	51,515000
3,311863	668,904827	33,686	0,145701	22,350000	51,515000
3,315830	672,919039	33,888	0,147298	22,350000	51,515000
3,319856	676,867001	34,088	0,148870	22,350000	51,515000
3,323781	681,064011	34,288	0,150540	22,350000	51,515000
3,327823	685,002159	34,488	0,152107	22,350000	51,515000
3,331858	689,049496	34,689	0,153718	22,350000	51,515000
3,335840	694,269688	34,889	0,155796	22,350000	51,515000
3,339750	698,790584	35,090	0,157595	22,350000	51,515000
3,343835	703,036668	35,291	0,159285	22,350000	51,515000
3,347766	706,544196	35,491	0,160681	22,350000	51,525000
3,351846	710,433270	35,692	0,162229	22,350000	51,525000
3,355868	714,355469	35,892	0,163790	22,350000	51,525000
3,359821	717,140389	36,094	0,164898	22,350000	51,525000
3,363804	721,004927	36,295	0,166437	22,350000	51,525000
3,367782	725,383509	36,495	0,168179	22,350000	51,525000
3,371837	728,741363	36,695	0,169516	22,350000	51,525000
3,375802	732,705274	36,896	0,171093	22,350000	51,525000
3,379822	736,677774	37,098	0,172674	22,350000	51,525000
3,383826	741,240382	37,298	0,174490	22,350000	51,525000
3,387786	745,113507	37,498	0,176032	22,350000	51,540000
3,391816	748,887259	37,700	0,177534	22,350000	51,540000
3,395835	752,950544	37,901	0,179151	22,350000	51,540000
3,399787	756,889918	38,101	0,180719	22,350000	51,540000
3,403817	760,994916	38,302	0,182353	22,350000	51,540000
3,407811	764,544156	38,503	0,183765	22,350000	51,540000
3,411828	768,816004	38,704	0,185465	22,350000	51,540000
3,415830	774,890075	38,905	0,187883	22,350000	51,540000
3,419879	776,719290	39,106	0,188611	22,350000	51,540000
3,423836	780,773987	39,307	0,190225	22,350000	51,540000
3,427795	784,796787	39,508	0,191826	22,350000	51,540000
3,431841	789,333631	39,709	0,193631	22,350000	51,540000
3,435841	793,539229	39,910	0,195305	22,350000	51,540000
3,439802	797,020994	40,110	0,196691	22,350000	51,540000
3,443815	802,331972	40,310	0,198805	22,350000	51,540000
3,447756	806,064011	40,510	0,200290	22,350000	51,540000
3,451799	808,839117	40,710	0,201395	22,350000	51,540000
3,455804	815,180640	40,911	0,203918	22,350000	51,540000
3,459797	817,532487	41,112	0,204854	22,350000	51,540000
3,463786	822,767401	41,312	0,206938	22,350000	51,540000
3,467765	825,493434	41,512	0,208023	22,350000	51,565000
3,471794	828,776451	41,712	0,209330	22,350000	51,565000
3,475799	833,305934	41,913	0,211132	22,350000	51,565000
3,479820	836,730037	42,114	0,212495	22,350000	51,565000
3,483789	840,942996	42,314	0,214172	22,350000	51,565000
3,487811	844,899547	42,515	0,215747	22,350000	51,565000
3,491792	848,821745	42,716	0,217308	22,350000	51,565000
3,495771	854,655357	42,917	0,219629	22,350000	51,565000
3,499745	856,509108	43,118	0,220367	22,350000	51,565000
3,503775	862,808918	43,319	0,222875	22,350000	51,565000
3,507801	864,619730	43,519	0,223595	22,350000	51,565000
3,511755	869,847283	43,720	0,225676	22,350000	51,565000
3,515767	872,789239	43,921	0,226847	22,350000	51,565000
3,519773	877,301547	44,121	0,228643	22,350000	51,565000
3,523723	880,784538	44,321	0,230029	22,350000	51,565000
3,527784	885,829293	44,521	0,232037	22,350000	51,565000
3,531830	888,795786	44,721	0,233217	22,350000	51,565000
3,535788	893,341218	44,921	0,235026	22,350000	51,565000
3,539773	896,740784	45,123	0,236379	22,350000	51,565000
3,543803	902,749833	45,324	0,238771	22,350000	51,565000
3,547785	905,773987	45,525	0,239975	22,360000	51,570000
3,551769	908,923279	45,727	0,241228	22,360000	51,570000
3,555813	913,544775	45,928	0,243067	22,360000	51,570000
3,559765	916,711242	46,128	0,244328	22,360000	51,570000
3,563771	921,738821	46,329	0,246329	22,360000	51,570000
3,567751	925,295422	46,529	0,247744	22,360000	51,570000
3,571729	929,018874	46,730	0,249226	22,360000	51,570000
3,575763	933,556945	46,930	0,251032	22,360000	51,570000
3,579819	937,686479	47,130	0,252676	22,360000	51,570000
3,583777	941,103221	47,331	0,254036	22,360000	51,570000
3,587749	945,116206	47,532	0,255633	22,360000	51,570000
3,591760	948,797945	47,732	0,257098	22,360000	51,570000
3,595789	953,285716	47,932	0,258884	22,360000	51,570000
3,599853	956,901205	48,133	0,260323	22,360000	51,570000
3,603730	961,155877	48,333	0,262017	22,360000	51,570000
3,607749	964,680581	48,533	0,263419	22,360000	51,570000
3,611798	970,655278	48,733	0,265797	22,360000	51,570000
3,615750	972,791202	48,933	0,266647	22,360000	51,570000
3,619767	978,800251	49,133	0,269039	22,360000	51,570000
3,623750	982,821824	49,334	0,270640	22,360000	51,570000
3,627750	986,811499	49,535	0,272228	22,360000	51,545000
3,631781	990,874784	49,736	0,273845	22,360000	51,545000
3,635818	994,697609	49,936	0,275366	22,360000	51,545000
3,639776	996,318261	50,137	0,276011	22,360000	51,545000
3,643746	1000,565572	50,339	0,277702	22,360000	51,545000
3,647782	1004,853368	50,540	0,279408	22,360000	51,545000
3,651726	1008,759618	50,740	0,280963	22,360000	51,545000
3,655775	1012,948041	50,941	0,282630	22,360000	51,545000
3,659825	1016,821166	51,141	0,284171	22,360000	51,545000
3,663746	1020,710241	51,342	0,285719	22,360000	51,545000
3,667696	1025,505948	51,542	0,287628	22,360000	51,545000
3,671720	1029,652658	51,742	0,289278	22,360000	51,545000
3,675698	1034,147790	51,942	0,291067	22,360000	51,545000
3,679728	1038,436813	52,142	0,292774	22,360000	51,545000
3,683793	1042,658360	52,342	0,294455	22,360000	51,545000
3,687720	1045,957326	52,543	0,295768	22,360000	51,545000
3,691758	1050,229173	52,743	0,297468	22,360000	51,545000
3,695787	1054,185724	52,944	0,299042	22,360000	51,545000
3,699787	1057,575475	53,145	0,300392	22,360000	51,545000
3,703776	1061,498901	53,345	0,301953	22,360000	51,545000
3,707771	1064,848167	53,545	0,303286	22,360000	51,545000
3,711706	1069,327350	53,746	0,305069	22,360000	51,545000
3,715780	1072,983325	53,948	0,306524	22,360000	51,545000
3,719760	1078,901588	54,150	0,308879	22,360000	51,545000
3,723708	1082,881448	54,351	0,310463	22,360000	51,545000
3,727727	1084,718024	54,551	0,311194	22,360000	51,545000
3,731784	1088,915034	54,751	0,312865	22,360000	51,545000
3,735791	1092,838460	54,951	0,314426	22,360000	51,545000
3,739700	1096,959406	55,151	0,316066	22,360000	51,545000
3,743765	1101,032506	55,351	0,317688	22,360000	51,545000
3,747806	1106,883293	55,551	0,320016	22,350000	51,540000
3,751745	1110,930630	55,752	0,321627	22,350000	51,540000
3,755757	1115,085928	55,952	0,323281	22,350000	51,540000
3,759764	1118,900165	56,152	0,324799	22,350000	51,540000
3,763748	1121,110926	56,353	0,325679	22,350000	51,540000
3,767770	1124,733776	56,553	0,327121	22,350000	51,540000
3,771725	1128,972499	56,753	0,328808	22,350000	51,540000
3,775780	1132,779375	56,954	0,330323	22,350000	51,540000
3,779778	1138,828910	57,154	0,332730	22,350000	51,540000
3,783784	1142,801409	57,355	0,334312	22,350000	51,540000
3,787730	1147,022957	57,555	0,335992	22,350000	51,540000
3,791771	1150,671571	57,757	0,337444	22,350000	51,540000
3,795778	1154,485808	57,957	0,338962	22,350000	51,540000
3,799687	1158,376109	58,157	0,340510	22,350000	51,540000
3,803728	1160,693605	58,358	0,341433	22,350000	51,540000
3,807746	1164,683280	58,558	0,343021	22,350000	51,540000
3,811746	1168,855753	58,758	0,344681	22,350000	51,540000
3,815746	1173,592572	58,958	0,346566	22,350000	51,540000
3,819777	1177,173710	59,160	0,347992	22,350000	51,540000
3,823731	1180,722951	59,361	0,349404	22,350000	51,540000
3,827712	1185,384932	59,562	0,351260	22,350000	51,555000
3,831721	1188,983246	59,764	0,352692	22,350000	51,555000
3,835801	1192,673573	59,965	0,354161	22,350000	51,555000
3,839677	1196,554059	60,165	0,355705	22,350000	51,555000
3,843795	1200,609984	60,366	0,357319	22,350000	51,555000
3,847764	1204,632783	60,566	0,358920	22,350000	51,555000
3,851714	1208,795442	60,767	0,360577	22,350000	51,555000
3,855729	1212,518893	60,968	0,362059	22,350000	51,555000
3,859776	1218,618728	61,170	0,364487	22,350000	51,555000
3,863780	1222,417017	61,370	0,365999	22,350000	51,555000
3,867786	1226,306091	61,570	0,367546	22,350000	51,565000
3,871706	1230,478565	61,770	0,369207	22,350000	51,565000
3,875728	1234,508725	61,970	0,370811	22,350000	51,565000
3,879726	1236,628700	62,170	0,371655	22,350000	51,565000
3,883781	1240,791359	62,371	0,373312	22,350000	51,565000
3,887786	1244,490274	62,572	0,374784	22,350000	51,565000
3,891689	1248,529022	62,772	0,376391	22,350000	51,565000
3,895730	1252,559183	62,972	0,377995	22,350000	51,565000
3,899674	1258,517931	63,172	0,380367	22,350000	51,565000
3,903734	1262,648693	63,372	0,382011	22,350000	51,565000
3,907708	1266,729154	63,572	0,383635	22,350000	51,555000
3,911724	1268,807416	63,773	0,384462	22,350000	51,555000
3,915693	1272,687902	63,974	0,386006	22,350000	51,555000
3,919793	1276,561028	64,175	0,387548	22,350000	51,555000
3,923773	1281,214422	64,375	0,389400	22,350000	51,555000
3,927692	1284,555100	64,576	0,390729	22,350000	51,555000
3,931699	1288,611024	64,776	0,392344	22,350000	51,555000
3,935713	1293,131919	64,978	0,394143	22,350000	51,555000
3,939729	1297,220968	65,179	0,395771	22,350000	51,555000
3,943714	1301,209416	65,379	0,397358	22,350000	51,555000
3,947760	1305,199091	65,580	0,398946	22,340000	51,540000
3,951740	1308,606018	65,781	0,400302	22,340000	51,540000
3,955740	1312,163847	65,981	0,401718	22,340000	51,540000
3,959767	1316,883490	66,182	0,403596	22,340000	51,540000
3,963719	1320,357893	66,384	0,404979	22,340000	51,540000
3,967718	1326,441779	66,584	0,407400	22,340000	51,540000
3,971731	1330,828949	66,784	0,409146	22,340000	51,540000
3,975723	1334,643187	66,985	0,410665	22,340000	51,540000
3,979705	1338,366638	67,185	0,412146	22,340000	51,540000
3,983740	1342,323188	67,386	0,413721	22,350000	51,555000
3,987718	1344,724109	67,586	0,414677	22,350000	51,555000
3,991721	1348,355547	67,786	0,416122	22,350000	51,555000
3,995675	1352,353810	67,987	0,417713	22,350000	51,555000
3,999721	1358,288022	68,188	0,420075	22,350000	51,555000
4,003729	1362,509569	68,388	0,421755	22,350000	51,555000
4,007690	1366,590030	68,588	0,423379	22,350000	51,555000
4,011733	1369,981009	68,789	0,424729	22,350000	51,555000
4,015762	1372,473942	68,990	0,425721	22,350000	51,555000
4,019703	1376,345841	69,190	0,427262	22,350000	51,555000
4,023711	1380,908448	69,390	0,429078	22,350000	51,555000
4,027673	1385,047798	69,591	0,430726	22,350000	51,555000
4,031702	1388,812961	69,792	0,432224	22,350000	51,555000
4,035725	1393,682279	69,992	0,434162	22,350000	51,555000
4,039703	1397,970075	70,192	0,435869	22,350000	51,555000
4,043687	1400,912031	70,392	0,437040	22,350000	51,555000
4,047717	1403,979124	70,593	0,438260	22,350000	51,555000
4,051765	1408,350345	70,793	0,440000	22,350000	51,555000
4,055695	1412,447982	70,993	0,441631	22,350000	51,555000
4,059775	1418,198169	71,193	0,443919	22,350000	51,555000
4,063687	1420,483766	71,393	0,444829	22,350000	51,565000
4,067709	1424,123793	71,593	0,446278	22,350000	51,565000
4,071693	1430,174554	71,794	0,448686	22,350000	51,565000
4,075764	1432,999961	71,995	0,449811	22,350000	51,565000
4,079725	1436,631399	72,196	0,451256	22,350000	51,565000
4,083700	1440,421100	72,396	0,452764	22,350000	51,565000
4,087720	1444,036589	72,597	0,454203	22,350000	51,565000
4,091724	1448,066750	72,798	0,455807	22,350000	51,565000
4,095770	1452,222048	72,999	0,457461	22,350000	51,565000
4,099716	1455,987211	73,201	0,458959	22,350000	51,565000
4,103679	1462,003622	73,402	0,461354	22,350000	51,565000
4,107731	1466,059546	73,603	0,462968	22,350000	51,565000
4,111706	1469,998920	73,804	0,464536	22,350000	51,565000
4,115712	1474,270768	74,005	0,466236	22,350000	51,565000
4,119651	1477,644571	74,207	0,467579	22,350000	51,565000
4,123704	1481,998616	74,407	0,469312	22,350000	51,565000
4,127719	1485,863154	74,607	0,470850	22,350000	51,565000
4,131722	1489,162119	74,807	0,472163	22,350000	51,565000
4,135708	1492,927283	75,009	0,473662	22,350000	51,565000
4,139696	1497,190543	75,210	0,475358	22,350000	51,565000
4,143708	1500,008588	75,410	0,476480	22,350000	51,565000
4,143746	1501,712665	75,610	0,477158	22,350000	51,565000
4,143676	1501,960486	75,811	0,477257	22,350000	51,565000
4,143702	1501,744563	76,012	0,477171	22,350000	51,565000
4,143633	1501,636601	76,212	0,477128	22,350000	51,565000
4,143714	1501,869700	76,413	0,477221	22,350000	51,565000
4,143751	1501,819400	76,614	0,477201	22,350000	51,565000
4,143726	1501,479566	76,815	0,477065	22,350000	51,565000
4,143655	1501,404729	77,016	0,477036	22,350000	51,565000
4,143711	1501,272230	77,216	0,476983	22,350000	51,565000
4,143668	1501,304128	77,417	0,476996	22,360000	51,560000
4,143704	1501,196166	77,617	0,476953	22,360000	51,560000
4,143659	1501,420678	77,817	0,477042	22,360000	51,560000
4,143667	1501,121329	78,017	0,476923	22,360000	51,560000
4,143721	1501,180217	78,217	0,476946	22,360000	51,560000
4,143676	1501,420678	78,418	0,477042	22,360000	51,560000
4,143732	1501,255055	78,618	0,476976	22,360000	51,560000
4,143655	1501,255055	78,818	0,476976	22,360000	51,560000
4,143685	1501,006007	79,018	0,476877	22,360000	51,560000
4,143701	1500,755732	79,219	0,476777	22,360000	51,560000
4,143690	1500,731195	79,419	0,476768	22,350000	51,555000
4,143694	1500,955706	79,619	0,476857	22,350000	51,555000
4,143694	1500,647770	79,819	0,476734	22,350000	51,555000
4,143667	1500,889457	80,020	0,476831	22,350000	51,555000
4,143675	1500,639182	80,221	0,476731	22,350000	51,555000
4,143676	1500,614645	80,421	0,476721	22,350000	51,555000
4,143721	1500,656358	80,621	0,476738	22,350000	51,555000
4,143665	1500,581521	80,822	0,476708	22,350000	51,555000
4,143689	1500,282173	81,022	0,476589	22,350000	51,555000
4,143667	1500,374185	81,224	0,476625	22,350000	51,555000
4,143658	1500,456383	81,424	0,476658	22,350000	51,555000
4,143636	1500,341061	81,624	0,476612	22,350000	51,555000
4,143698	1500,365598	81,825	0,476622	22,350000	51,555000
4,143741	1500,464971	82,025	0,476662	22,350000	51,555000
4,143658	1500,266224	82,225	0,476583	22,350000	51,555000
4,143646	1500,381546	82,426	0,476628	22,350000	51,555000
4,143663	1500,141086	82,627	0,476533	22,350000	51,555000
4,143679	1500,198748	82,827	0,476556	22,350000	51,555000
4,143660	1500,431847	83,027	0,476648	22,350000	51,555000
4,143645	1500,390134	83,228	0,476632	22,350000	51,555000
4,143678	1500,341061	83,428	0,476612	22,350000	51,540000
4,143656	1499,975463	83,628	0,476467	22,350000	51,540000
4,143649	1500,198748	83,828	0,476556	22,350000	51,540000
4,143695	1500,165623	84,029	0,476542	22,350000	51,540000
4,143715	1499,841738	84,229	0,476414	22,350000	51,540000
4,143689	1499,867502	84,430	0,476424	22,350000	51,540000
4,143687	1499,758313	84,630	0,476380	22,350000	51,540000
4,143716	1499,867502	84,831	0,476424	22,350000	51,540000
4,143730	1499,850326	85,031	0,476417	22,350000	51,540000
4,143675	1499,376767	85,231	0,476229	22,350000	51,540000
4,143701	1499,460192	85,431	0,476262	22,360000	51,530000
4,139694	1497,722990	85,632	0,475570	22,360000	51,530000
4,135738	1493,243807	85,833	0,473788	22,360000	51,530000
4,131666	1489,570656	86,033	0,472326	22,360000	51,530000
4,127730	1485,356470	86,234	0,470648	22,360000	51,530000
4,123684	1481,026961	86,435	0,468925	22,360000	51,530000
4,119703	1476,962449	86,636	0,467308	22,360000	51,530000
4,115712	1472,840276	86,836	0,465667	22,360000	51,530000
4,111756	1468,843240	87,036	0,464076	22,360000	51,530000
4,107616	1462,402344	87,236	0,461513	22,360000	51,530000
4,103690	1458,572158	87,436	0,459988	22,350000	51,555000
4,099679	1456,511071	87,636	0,459168	22,350000	51,555000
4,095706	1452,280936	87,837	0,457484	22,350000	51,555000
4,091697	1448,324386	88,038	0,455910	22,350000	51,555000
4,087681	1443,479605	88,238	0,453981	22,350000	51,555000
4,083694	1438,335476	88,438	0,451934	22,350000	51,555000
4,079666	1434,204715	88,638	0,450290	22,350000	51,555000
4,075696	1430,357353	88,839	0,448759	22,350000	51,555000
4,071698	1426,193467	89,039	0,447102	22,350000	51,555000
4,067686	1423,409773	89,240	0,445994	22,350000	51,555000
4,063694	1418,922003	89,441	0,444208	22,350000	51,555000
4,059725	1415,938334	89,641	0,443020	22,350000	51,555000
4,055729	1410,677656	89,842	0,440926	22,350000	51,555000
4,051721	1407,627738	90,042	0,439712	22,350000	51,555000
4,047759	1403,272466	90,242	0,437979	22,350000	51,555000
4,043755	1398,253474	90,442	0,435981	22,350000	51,555000
4,039724	1394,521435	90,642	0,434496	22,350000	51,555000
4,035710	1390,632361	90,843	0,432948	22,350000	51,555000
4,031703	1386,875785	91,044	0,431453	22,350000	51,555000
4,027667	1382,678775	91,244	0,429783	22,350000	51,555000
4,023755	1378,805649	91,444	0,428241	22,350000	51,540000
4,019711	1374,418479	91,644	0,426495	22,350000	51,540000
4,015690	1370,695028	91,845	0,425013	22,350000	51,540000
4,011727	1364,760816	92,045	0,422651	22,350000	51,540000
4,007744	1362,891116	92,245	0,421907	22,350000	51,540000
4,003694	1358,694105	92,445	0,420237	22,350000	51,540000
3,999682	1354,805031	92,647	0,418689	22,350000	51,540000
3,995725	1351,281554	92,847	0,417287	22,350000	51,540000
3,991678	1346,959406	93,048	0,415566	22,350000	51,540000
3,987740	1342,389437	93,249	0,413748	22,350000	51,540000
3,983713	1338,533488	93,450	0,412213	22,360000	51,560000
3,979701	1332,407889	93,650	0,409775	22,360000	51,560000
3,975732	1328,186342	93,851	0,408095	22,360000	51,560000
3,971666	1324,562264	94,053	0,406652	22,360000	51,560000
3,967753	1320,723490	94,253	0,405125	22,360000	51,560000
3,963704	1316,194007	94,453	0,403322	22,360000	51,560000
3,959777	1311,913572	94,653	0,401618	22,360000	51,560000
3,955719	1307,975424	94,853	0,400051	22,360000	51,560000
3,951729	1305,648114	95,053	0,399125	22,360000	51,560000
3,947694	1301,675614	95,253	0,397543	22,360000	51,560000
3,943688	1296,721645	95,453	0,395572	22,350000	51,515000
3,939731	1293,664367	95,653	0,394355	22,350000	51,515000
3,935727	1289,998577	95,853	0,392896	22,350000	51,515000
3,931747	1285,578282	96,053	0,391137	22,350000	51,515000
3,927772	1280,192466	96,253	0,388993	22,350000	51,515000
3,923754	1275,821245	96,454	0,387253	22,350000	51,515000
3,919720	1272,156682	96,654	0,385795	22,350000	51,515000
3,915721	1268,308093	96,855	0,384263	22,350000	51,515000
3,911748	1264,327006	97,056	0,382679	22,350000	51,515000
3,907710	1261,177715	97,256	0,381425	22,350000	51,515000
3,903766	1257,603938	97,456	0,380003	22,350000	51,555000
3,899744	1252,700269	97,657	0,378051	22,350000	51,555000
3,895717	1249,476140	97,858	0,376768	22,350000	51,555000
3,891726	1244,939296	98,059	0,374962	22,350000	51,555000
3,887710	1241,248969	98,259	0,373494	22,350000	51,555000
3,883729	1236,919461	98,459	0,371771	22,350000	51,555000
3,879725	1233,070872	98,659	0,370239	22,350000	51,555000
3,875722	1229,373184	98,860	0,368767	22,350000	51,555000
3,871731	1225,052263	99,060	0,367047	22,350000	51,555000
3,867762	1221,062588	99,261	0,365459	22,350000	51,555000
3,863734	1216,915878	99,461	0,363809	22,340000	51,565000
3,859763	1213,258676	99,661	0,362354	22,340000	51,565000
3,855738	1209,219928	99,862	0,360746	22,340000	51,565000
3,851708	1204,765281	100,063	0,358973	22,340000	51,565000
3,847739	1201,008706	100,264	0,357478	22,340000	51,565000
3,843725	1194,933407	100,464	0,355060	22,340000	51,565000
3,839751	1190,852946	100,664	0,353436	22,340000	51,565000
3,835753	1189,058083	100,865	0,352722	22,340000	51,565000
3,831765	1184,778875	101,066	0,351019	22,340000	51,565000
3,827806	1180,689826	101,267	0,349391	22,340000	51,565000
3,823724	1176,675614	101,467	0,347793	22,350000	51,540000
3,819711	1172,537492	101,667	0,346146	22,350000	51,540000
3,815739	1168,631242	101,867	0,344592	22,350000	51,540000
3,811752	1163,121516	102,068	0,342399	22,350000	51,540000
3,807738	1158,341758	102,269	0,340497	22,350000	51,540000
3,803787	1154,095674	102,469	0,338807	22,350000	51,540000
3,799799	1150,547660	102,669	0,337395	22,350000	51,540000
3,795694	1146,375186	102,869	0,335734	22,350000	51,540000
3,791740	1142,801409	103,071	0,334312	22,350000	51,540000
3,787750	1138,903747	103,272	0,332760	22,350000	51,540000
3,783751	1134,972961	103,472	0,331196	22,350000	51,540000
3,779778	1129,961330	103,674	0,329201	22,350000	51,540000
3,775712	1127,842582	103,875	0,328358	22,350000	51,540000
3,771777	1123,579322	104,076	0,326661	22,350000	51,540000
3,767715	1119,906171	104,278	0,325199	22,350000	51,540000
3,763744	1115,850247	104,479	0,323585	22,350000	51,540000
3,759761	1111,752611	104,679	0,321954	22,350000	51,540000
3,755762	1107,797287	104,880	0,320380	22,350000	51,540000
3,751743	1103,641989	105,081	0,318726	22,350000	51,540000
3,747779	1099,702615	105,281	0,317158	22,350000	51,540000
3,743741	1094,043214	105,482	0,314906	22,350000	51,540000
3,739700	1089,687942	105,682	0,313172	22,350000	51,540000
3,735773	1085,607481	105,882	0,311548	22,350000	51,540000
3,731770	1081,544196	106,084	0,309931	22,350000	51,540000
3,727768	1078,012131	106,285	0,308525	22,350000	51,540000
3,723694	1073,980744	106,486	0,306921	22,350000	51,540000
3,719728	1069,834033	106,687	0,305271	22,350000	51,540000
3,715823	1066,160883	106,888	0,303809	22,350000	51,540000
3,711778	1062,355233	107,089	0,302294	22,350000	51,540000
3,707768	1058,506645	107,290	0,300762	22,350000	51,540000
3,703767	1055,722951	107,490	0,299654	22,350000	51,540000
3,699710	1051,301429	107,692	0,297895	22,350000	51,540000
3,695809	1047,428304	107,893	0,296353	22,350000	51,540000
3,691797	1043,638603	108,094	0,294845	22,350000	51,540000
3,687754	1039,691868	108,295	0,293274	22,350000	51,540000
3,683765	1035,743905	108,496	0,291703	22,350000	51,540000
3,679782	1031,405808	108,696	0,289976	22,350000	51,540000
3,675693	1027,208798	108,896	0,288306	22,350000	51,540000
3,671733	1023,352848	109,096	0,286771	22,350000	51,540000
3,667810	1019,280975	109,298	0,285150	22,350000	51,540000
3,663819	1015,440974	109,498	0,283622	22,350000	51,540000
3,659739	1009,440513	109,699	0,281234	22,350000	51,540000
3,655717	1007,246928	109,899	0,280361	22,350000	51,540000
3,651776	1003,265841	110,100	0,278776	22,350000	51,540000
3,647764	999,543617	110,300	0,277295	22,350000	51,540000
3,643809	995,188344	110,500	0,275562	22,350000	51,540000
3,639803	988,722911	110,700	0,272988	22,350000	51,540000
3,635772	984,990872	110,902	0,271503	22,350000	51,540000
3,631788	981,617070	111,104	0,270160	22,350000	51,540000
3,627798	977,827369	111,306	0,268652	22,350000	51,540000
3,623753	974,137043	111,508	0,267183	22,350000	51,580000
3,619759	971,445362	111,708	0,266112	22,350000	51,580000
3,615772	966,931827	111,908	0,264315	22,350000	51,580000
3,611758	962,452644	112,108	0,262533	22,350000	51,580000
3,607817	959,244465	112,309	0,261256	22,350000	51,580000
3,603814	954,857294	112,509	0,259510	22,350000	51,580000
3,599789	950,451721	112,709	0,257756	22,350000	51,580000
3,595810	947,111043	112,910	0,256427	22,350000	51,580000
3,591778	943,039170	113,111	0,254806	22,350000	51,580000
3,587745	938,967297	113,311	0,253186	22,350000	51,580000
3,583807	933,207296	113,511	0,250893	22,360000	51,570000
3,579774	930,980587	113,711	0,250007	22,360000	51,570000
3,575734	926,816701	113,911	0,248350	22,360000	51,570000
3,571771	920,783115	114,112	0,245948	22,360000	51,570000
3,567760	917,217926	114,313	0,244529	22,360000	51,570000
3,563799	912,888417	114,514	0,242806	22,360000	51,570000
3,559761	909,123253	114,715	0,241308	22,360000	51,570000
3,555833	906,971380	114,916	0,240451	22,360000	51,570000
3,551837	902,732657	115,116	0,238764	22,360000	51,570000
3,547712	899,033743	115,317	0,237292	22,360000	51,570000
3,543787	895,053883	115,517	0,235708	22,350000	51,540000
3,539784	888,736897	115,717	0,233194	22,350000	51,540000
3,535792	884,922660	115,917	0,231676	22,350000	51,540000
3,531827	880,975925	116,117	0,230105	22,350000	51,540000
3,527814	876,977662	116,318	0,228514	22,350000	51,540000
3,523794	872,839539	116,518	0,226867	22,350000	51,540000
3,519841	868,633941	116,719	0,225193	22,350000	51,540000
3,515755	864,420982	116,919	0,223516	22,350000	51,540000
3,511790	862,716905	117,119	0,222838	22,350000	51,540000
3,507828	858,735818	117,319	0,221253	22,350000	51,540000
3,503791	854,663945	117,519	0,219633	22,350000	51,555000
3,499865	848,705196	117,719	0,217261	22,350000	51,555000
3,495790	844,275086	117,919	0,215498	22,350000	51,555000
3,491827	840,768785	118,119	0,214103	22,350000	51,555000
3,487804	837,120171	118,320	0,212650	22,350000	51,555000
3,483818	833,213921	118,521	0,211096	22,350000	51,555000
3,479827	829,923543	118,722	0,209786	22,350000	51,555000
3,475804	825,443134	118,922	0,208003	22,350000	51,555000
3,471748	821,289062	119,122	0,206350	22,350000	51,555000
3,467787	817,706698	119,323	0,204924	22,350000	51,555000
3,463791	813,692486	119,523	0,203326	22,340000	51,540000
3,459804	810,600856	119,723	0,202096	22,340000	51,540000
3,455830	806,445558	119,923	0,200442	22,340000	51,540000
3,451751	802,622733	120,124	0,198920	22,340000	51,540000
3,447789	798,775371	120,324	0,197389	22,340000	51,540000
3,443745	794,261837	120,526	0,195593	22,340000	51,540000
3,439750	790,638986	120,727	0,194151	22,340000	51,540000
3,435866	786,866461	120,927	0,192649	22,340000	51,540000
3,431807	782,037630	121,127	0,190728	22,340000	51,540000
3,427804	778,131380	121,327	0,189173	22,340000	51,540000
3,423791	774,167468	121,527	0,187595	22,340000	51,540000
3,419758	770,659940	121,727	0,186199	22,340000	51,540000
3,415794	766,048259	121,928	0,184364	22,340000	51,540000
3,411844	762,624156	122,129	0,183001	22,340000	51,540000
3,407763	756,540270	122,329	0,180580	22,340000	51,540000
3,403843	754,712282	122,530	0,179852	22,340000	51,540000
3,399828	750,083425	122,730	0,178010	22,340000	51,540000
3,395802	746,210300	122,930	0,176468	22,340000	51,540000
3,391789	742,096714	123,130	0,174831	22,340000	51,540000
3,387815	736,387013	123,330	0,172559	22,340000	51,540000
3,383782	733,063511	123,530	0,171236	22,360000	51,560000
3,379830	728,617452	123,731	0,169466	22,360000	51,560000
3,375843	724,411854	123,933	0,167792	22,360000	51,560000
3,371859	720,439355	124,135	0,166211	22,360000	51,560000
3,367862	717,156338	124,336	0,164905	22,360000	51,560000
3,363829	712,553245	124,536	0,163073	22,360000	51,560000
3,359858	708,795442	124,736	0,161577	22,360000	51,560000
3,355833	704,333435	124,937	0,159801	22,360000	51,560000
3,351812	700,959632	125,138	0,158458	22,360000	51,560000
3,347789	697,086507	125,339	0,156917	22,360000	51,560000
3,343790	693,105420	125,539	0,155333	22,350000	51,580000
3,339830	689,141508	125,739	0,153755	22,350000	51,580000
3,335829	685,069635	125,939	0,152134	22,350000	51,580000
3,331791	681,154797	126,140	0,150576	22,350000	51,580000
3,327851	677,431346	126,340	0,149094	22,350000	51,580000
3,323795	673,808496	126,540	0,147652	22,350000	51,580000
3,319805	669,977083	126,742	0,146127	22,350000	51,580000
3,315890	666,270807	126,942	0,144652	22,350000	51,580000
3,311827	661,890998	127,142	0,142909	22,350000	51,580000
3,307808	658,226435	127,342	0,141451	22,350000	51,580000
3,303799	654,128798	127,543	0,139820	22,350000	51,555000
3,299856	648,378612	127,745	0,137531	22,350000	51,555000
3,295800	644,371761	127,946	0,135937	22,350000	51,555000
3,291858	640,374725	128,146	0,134346	22,350000	51,555000
3,287908	636,360514	128,347	0,132748	22,350000	51,555000
3,283845	634,457689	128,547	0,131991	22,350000	51,555000
3,279855	630,102416	128,747	0,130257	22,350000	51,555000
3,275875	626,578940	128,947	0,128855	22,350000	51,555000
3,271858	622,083808	129,148	0,127066	22,350000	51,555000
3,267866	618,367717	129,348	0,125587	22,350000	51,555000
3,263864	613,954784	129,549	0,123831	22,360000	51,560000
3,259779	610,314757	129,749	0,122382	22,360000	51,560000
3,255797	606,326309	129,950	0,120794	22,360000	51,560000
3,251827	600,450985	130,151	0,118456	22,360000	51,560000
3,247891	595,937451	130,352	0,116660	22,360000	51,560000
3,243866	592,297425	130,553	0,115211	22,360000	51,560000
3,239849	588,848785	130,753	0,113838	22,360000	51,560000
3,235888	584,942535	130,954	0,112284	22,360000	51,560000
3,231859	581,527020	131,156	0,110924	22,360000	51,560000
3,227834	577,047837	131,356	0,109142	22,360000	51,560000
3,223826	573,773408	131,556	0,107838	22,350000	51,540000
3,219867	569,717484	131,756	0,106224	22,350000	51,540000
3,215866	565,621074	131,957	0,104594	22,350000	51,540000
3,211879	561,963872	132,157	0,103138	22,350000	51,540000
3,207909	557,550938	132,357	0,101382	22,350000	51,540000
3,203843	553,362516	132,557	0,099715	22,350000	51,540000
3,199886	549,722489	132,757	0,098266	22,350000	51,540000
3,195843	545,758578	132,957	0,096688	22,350000	51,540000
3,191816	541,927165	133,157	0,095164	22,350000	51,540000
3,187874	538,038091	133,357	0,093616	22,350000	51,540000
3,183841	533,940454	133,559	0,091985	22,360000	51,545000
3,179822	529,502984	133,761	0,090219	22,360000	51,545000
3,175869	523,960133	133,961	0,088013	22,360000	51,545000
3,171842	522,097794	134,161	0,087271	22,360000	51,545000
3,167898	517,951084	134,361	0,085621	22,360000	51,545000
3,163880	514,219044	134,561	0,084136	22,360000	51,545000
3,159875	510,114047	134,761	0,082502	22,360000	51,545000
3,155868	505,958749	134,961	0,080848	22,360000	51,545000
3,151865	502,169048	135,162	0,079340	22,360000	51,545000
3,147908	498,154837	135,362	0,077742	22,360000	51,545000
3,143892	493,908753	135,562	0,076052	22,360000	51,545000
3,139807	490,094516	135,762	0,074534	22,360000	51,545000
3,135864	486,212802	135,963	0,072989	22,360000	51,545000
3,131835	482,215766	136,164	0,071398	22,360000	51,545000
3,127874	478,027344	136,365	0,069731	22,360000	51,545000
3,123872	473,995956	136,565	0,068127	22,360000	51,545000
3,119911	470,181719	136,765	0,066609	22,360000	51,545000
3,115920	466,109846	136,966	0,064988	22,360000	51,545000
3,111896	463,324925	137,167	0,063880	22,360000	51,545000
3,107848	457,449602	137,367	0,061542	22,360000	51,545000
3,103792	452,728732	137,568	0,059663	22,350000	51,540000
3,099888	448,881370	137,768	0,058131	22,350000	51,540000
3,095890	444,651235	137,968	0,056448	22,350000	51,540000
3,091846	440,927783	138,168	0,054966	22,350000	51,540000
3,087893	437,038709	138,368	0,053418	22,350000	51,540000
3,083855	432,975424	138,569	0,051801	22,350000	51,540000
3,079842	428,869200	138,769	0,050167	22,350000	51,540000
3,075908	424,971537	138,970	0,048615	22,350000	51,540000
3,071881	421,531486	139,170	0,047246	22,350000	51,540000
3,067841	417,609287	139,371	0,045685	22,350000	51,540000
3,063852	414,044097	139,573	0,044266	22,360000	51,570000
3,059858	409,880212	139,774	0,042609	22,360000	51,570000
3,055876	406,097872	139,974	0,041104	22,360000	51,570000
3,051872	402,034587	140,175	0,039486	22,360000	51,570000
3,047917	398,436273	140,375	0,038054	22,360000	51,570000
3,043852	394,479723	140,576	0,036479	22,360000	51,570000
3,039891	390,299888	140,776	0,034816	22,360000	51,570000
3,035894	386,127414	140,976	0,033155	22,360000	51,570000
3,031912	382,546276	141,176	0,031730	22,360000	51,570000
3,027931	378,457228	141,377	0,030103	22,360000	51,570000
3,023836	374,260217	141,577	0,028432	22,350000	51,540000
3,019863	370,520817	141,778	0,026944	22,350000	51,540000
3,015874	366,315219	141,979	0,025270	22,350000	51,540000
3,011906	360,098834	142,179	0,022796	22,350000	51,540000
3,007949	356,201172	142,380	0,021245	22,350000	51,540000
3,003916	352,171011	142,580	0,019641	22,350000	51,540000
2,999898	348,015713	142,782	0,017987	22,350000	51,540000
2,995896	344,234601	142,983	0,016482	22,350000	51,540000
2,991907	340,552862	143,185	0,015017	22,350000	51,540000
2,987923	336,779110	143,385	0,013515	22,350000	51,540000
2,983908	332,956285	143,585	0,011993	22,350000	51,515000
2,979930	329,366559	143,786	0,010564	22,350000	51,515000
2,975833	325,468897	143,986	0,009013	22,350000	51,515000
2,971885	322,793165	144,187	0,007948	22,350000	51,515000
2,967890	318,695528	144,387	0,006317	22,350000	51,515000
2,963850	313,542812	144,587	0,004267	22,350000	51,515000
2,959900	310,202134	144,788	0,002937	22,350000	51,515000
2,955890	306,238222	144,988	0,001359	22,350000	51,515000
2,951891	302,631321	145,188	-0,000076	22,350000	51,515000
2,947894	298,940994	145,389	-0,001545	22,350000	51,515000
2,943946	294,677734	145,589	-0,003242	22,350000	51,515000
2,939852	290,614449	145,790	-0,004859	22,350000	51,515000
2,935898	286,441976	145,993	-0,006520	22,350000	51,515000
2,931869	282,786000	146,194	-0,007975	22,350000	51,515000
2,927920	278,505565	146,395	-0,009678	22,350000	51,515000
2,923900	272,630241	146,595	-0,012017	22,350000	51,515000
2,919925	270,294343	146,795	-0,012946	22,350000	51,515000
2,915861	266,770866	146,996	-0,014349	22,350000	51,515000
2,911923	262,648693	147,196	-0,015989	22,350000	51,515000
2,907848	258,825868	147,397	-0,017511	22,350000	51,525000
2,903867	254,604320	147,597	-0,019191	22,350000	51,525000
2,899905	250,715246	147,798	-0,020739	22,350000	51,525000
2,895881	246,791820	148,000	-0,022300	22,350000	51,525000
2,891908	241,623155	148,200	-0,024357	22,350000	51,525000
2,887879	238,439512	148,402	-0,025625	22,350000	51,525000
2,883891	234,534489	148,603	-0,027179	22,350000	51,525000
2,879943	230,469977	148,805	-0,028796	22,350000	51,525000
2,875891	226,838538	149,006	-0,030242	22,350000	51,525000
2,871888	222,758077	149,207	-0,031866	22,350000	51,525000
2,867951	217,032428	149,407	-0,034145	22,350000	51,540000
2,863895	214,788542	149,608	-0,035038	22,350000	51,540000
2,859876	209,136503	149,809	-0,037287	22,350000	51,540000
2,855971	205,081806	150,009	-0,038901	22,350000	51,540000
2,851858	200,917920	150,209	-0,040558	22,350000	51,540000
2,847906	197,253357	150,411	-0,042017	22,350000	51,540000
2,843894	193,347107	150,612	-0,043571	22,350000	51,540000
2,839900	189,166045	150,812	-0,045235	22,350000	51,540000
2,835908	185,102760	151,013	-0,046853	22,350000	51,540000
2,831913	183,125098	151,213	-0,047640	22,350000	51,540000
2,827892	179,177136	151,414	-0,049211	22,350000	51,540000
2,823941	175,636483	151,615	-0,050620	22,350000	51,540000
2,819894	169,404150	151,815	-0,053101	22,350000	51,540000
2,815888	167,168852	152,016	-0,053990	22,350000	51,540000
2,811900	161,941298	152,216	-0,056071	22,350000	51,540000
2,807900	159,281515	152,416	-0,057129	22,350000	51,540000
2,803896	154,518933	152,618	-0,059025	22,350000	51,540000
2,799939	151,211379	152,819	-0,060341	22,350000	51,540000
2,795933	147,156682	153,021	-0,061955	22,350000	51,540000
2,791935	143,158419	153,222	-0,063546	22,350000	51,540000
2,787953	137,449945	153,422	-0,065818	22,360000	51,560000
2,783883	135,047798	153,623	-0,066774	22,360000	51,560000
2,779883	129,729458	153,824	-0,068891	22,360000	51,560000
2,775913	127,160461	154,025	-0,069914	22,360000	51,560000
2,771901	123,462773	154,225	-0,071385	22,360000	51,560000
2,767843	119,540574	154,425	-0,072946	22,360000	51,560000
2,763913	113,381851	154,626	-0,075397	22,360000	51,560000
2,759924	111,379652	154,827	-0,076194	22,360000	51,560000
2,755881	105,436852	155,028	-0,078560	22,360000	51,560000
2,751878	103,800251	155,228	-0,079211	22,360000	51,560000
2,747910	99,810576	155,428	-0,080799	22,350000	51,540000
2,743942	93,827291	155,629	-0,083180	22,350000	51,540000
2,739909	89,788542	155,831	-0,084788	22,350000	51,540000
2,735935	85,807455	156,032	-0,086372	22,350000	51,540000
2,731943	81,876668	156,232	-0,087937	22,350000	51,540000
2,727885	78,128681	156,433	-0,089428	22,350000	51,540000
2,723901	73,931670	156,633	-0,091099	22,350000	51,540000
2,719900	71,588411	156,833	-0,092031	22,350000	51,540000
2,715923	65,894659	157,033	-0,094297	22,350000	51,540000
2,711887	63,718249	157,233	-0,095164	22,350000	51,540000
2,707847	57,733737	157,433	-0,097545	22,350000	51,540000
2,703891	54,060586	157,634	-0,099007	22,350000	51,540000
2,699942	49,605940	157,835	-0,100780	22,350000	51,540000
2,695862	46,639447	158,037	-0,101961	22,350000	51,540000
2,691906	41,561568	158,238	-0,103982	22,350000	51,540000
2,687933	38,527599	158,438	-0,105189	22,350000	51,540000
2,683909	35,220046	158,638	-0,106506	22,350000	51,540000
2,679882	30,401029	158,840	-0,108424	22,350000	51,540000
2,675926	27,408772	159,040	-0,109615	22,350000	51,540000
2,671894	22,954126	159,240	-0,111388	22,350000	51,540000
2,667941	19,263799	159,441	-0,112856	22,340000	51,525000
2,663917	15,266764	159,641	-0,114447	22,340000	51,525000
2,659892	9,831874	159,842	-0,116610	22,340000	51,525000
2,655897	7,114430	160,043	-0,117692	22,340000	51,525000
2,651928	1,495515	160,243	-0,119928	22,340000	51,525000
2,647938	-1,188805	160,445	-0,120997	22,340000	51,525000
2,643934	-5,102416	160,646	-0,122554	22,340000	51,525000