File: Nanoindentation Datenauswertung/data/S_calib/S_calib_3008-1
Quasi static measurement routine
Tip parameters (shape,radius, material...)
30.08.2022

Piezo position[nm]	MEMS displ.[nm]	Time[ms]	Cap [pf]	Temp [°C]	Rh [%]
eoh
1,372124	-0,058888	0,194	-0,123553	22,630000	51,505000
1,376118	1,777687	0,395	-0,122822	22,630000	51,505000
1,380076	7,852986	0,596	-0,120404	22,630000	51,505000
1,384133	12,116245	0,796	-0,118708	22,630000	51,505000
1,388144	16,031083	0,998	-0,117149	22,630000	51,505000
1,392136	19,754534	1,198	-0,115667	22,630000	51,505000
1,396130	22,703851	1,399	-0,114494	22,630000	51,505000
1,400153	26,385590	1,599	-0,113028	22,630000	51,505000
1,404132	30,142166	1,800	-0,111533	22,640000	51,520000
1,408155	36,292301	2,000	-0,109085	22,640000	51,520000
1,412127	40,156839	2,200	-0,107547	22,640000	51,520000
1,416092	44,029964	2,400	-0,106006	22,640000	51,520000
1,420142	46,115588	2,600	-0,105176	22,640000	51,520000
1,424100	50,237761	2,800	-0,103535	22,640000	51,520000
1,428133	56,452919	3,000	-0,101062	22,640000	51,520000
1,432118	60,209495	3,201	-0,099566	22,640000	51,520000
1,436121	62,345418	3,401	-0,098716	22,640000	51,520000
1,440128	67,215963	3,601	-0,096778	22,640000	51,520000
1,444118	70,871938	3,802	-0,095323	22,630000	51,520000
1,448071	75,609984	4,002	-0,093437	22,630000	51,520000
1,452106	79,873243	4,202	-0,091740	22,630000	51,520000
1,456098	81,718406	4,402	-0,091006	22,630000	51,520000
1,460093	86,380388	4,602	-0,089150	22,630000	51,520000
1,464114	90,809271	4,804	-0,087388	22,630000	51,520000
1,468095	94,948620	5,005	-0,085740	22,630000	51,520000
1,472144	98,580058	5,206	-0,084295	22,630000	51,520000
1,476095	102,004161	5,407	-0,082932	22,630000	51,520000
1,480081	105,952124	5,608	-0,081361	22,630000	51,520000
1,484123	111,943997	5,808	-0,078976	22,630000	51,520000
1,488097	113,630899	6,008	-0,078305	22,630000	51,520000
1,492128	117,836497	6,208	-0,076631	22,630000	51,520000
1,496130	123,353584	6,408	-0,074435	22,630000	51,520000
1,500113	128,098991	6,608	-0,072546	22,630000	51,520000
1,504078	132,238340	6,808	-0,070899	22,630000	51,520000
1,508097	134,233178	7,008	-0,070105	22,630000	51,520000
1,512106	137,831491	7,209	-0,068673	22,630000	51,520000
1,516075	141,703390	7,409	-0,067132	22,630000	51,520000
1,520156	145,468554	7,610	-0,065633	22,630000	51,520000
1,524121	151,651814	7,810	-0,063172	22,630000	51,545000
1,528087	153,688364	8,010	-0,062362	22,630000	51,545000
1,532088	157,817898	8,211	-0,060718	22,630000	51,545000
1,536113	163,602436	8,411	-0,058416	22,630000	51,545000
1,540117	165,663523	8,611	-0,057596	22,630000	51,545000
1,544138	169,926782	8,812	-0,055899	22,630000	51,545000
1,548122	175,819282	9,012	-0,053554	22,630000	51,545000
1,552116	177,805532	9,213	-0,052763	22,630000	51,545000
1,556106	183,672268	9,413	-0,050428	22,630000	51,545000
1,560049	187,528217	9,613	-0,048894	22,630000	51,545000
1,564106	191,533841	9,813	-0,047299	22,640000	51,505000
1,568137	195,648653	10,014	-0,045662	22,640000	51,505000
1,572111	197,525715	10,215	-0,044915	22,640000	51,505000
1,576099	201,647888	10,417	-0,043274	22,640000	51,505000
1,580108	207,540387	10,618	-0,040929	22,640000	51,505000
1,584103	209,601474	10,818	-0,040108	22,640000	51,505000
1,588124	214,073296	11,019	-0,038329	22,640000	51,505000
1,592131	218,867776	11,219	-0,036420	22,640000	51,505000
1,596037	224,029081	11,421	-0,034366	22,640000	51,505000
1,600108	225,790819	11,621	-0,033665	22,640000	51,505000
1,604139	230,469977	11,822	-0,031803	22,630000	51,545000
1,608133	234,043754	12,022	-0,030380	22,630000	51,545000
1,612106	237,724266	12,223	-0,028916	22,630000	51,545000
1,616104	241,614567	12,424	-0,027367	22,630000	51,545000
1,620073	245,703616	12,625	-0,025740	22,630000	51,545000
1,624115	249,683476	12,826	-0,024156	22,630000	51,545000
1,628087	255,866736	13,026	-0,021695	22,630000	51,545000
1,632077	257,720487	13,227	-0,020957	22,630000	51,545000
1,636042	261,742060	13,428	-0,019356	22,630000	51,545000
1,640053	267,676272	13,628	-0,016995	22,630000	51,545000
1,644131	271,906407	13,830	-0,015311	22,630000	51,520000
1,648086	273,659558	14,030	-0,014613	22,630000	51,520000
1,652112	277,790319	14,231	-0,012969	22,630000	51,520000
1,656102	281,646268	14,431	-0,011435	22,630000	51,520000
1,660122	287,056621	14,632	-0,009281	22,630000	51,520000
1,664094	291,643766	14,832	-0,007456	22,630000	51,520000
1,668089	294,286373	15,033	-0,006404	22,630000	51,520000
1,672144	299,621889	15,234	-0,004280	22,630000	51,520000
1,676089	303,045992	15,435	-0,002917	22,630000	51,520000
1,680093	305,406427	15,638	-0,001978	22,630000	51,520000
1,684066	310,035284	15,838	-0,000136	22,620000	51,530000
1,688050	315,005202	16,038	0,001842	22,620000	51,530000
1,692105	319,534685	16,239	0,003645	22,620000	51,530000
1,696081	322,069331	16,439	0,004654	22,620000	51,530000
1,700081	327,437971	16,639	0,006791	22,620000	51,530000
1,704148	329,432809	16,840	0,007584	22,620000	51,530000
1,708088	335,308132	17,040	0,009923	22,620000	51,530000
1,712083	337,950740	17,240	0,010975	22,620000	51,530000
1,716070	341,798102	17,441	0,012506	22,620000	51,530000
1,720067	345,770601	17,641	0,014087	22,620000	51,530000
1,724076	349,694027	17,842	0,015648	22,620000	51,545000
1,728098	353,715599	18,042	0,017249	22,620000	51,545000
1,732128	357,780111	18,242	0,018867	22,620000	51,545000
1,736096	361,536687	18,442	0,020362	22,620000	51,545000
1,740079	365,434349	18,643	0,021913	22,620000	51,545000
1,744157	371,542772	18,843	0,024344	22,620000	51,545000
1,748101	373,622262	19,044	0,025172	22,620000	51,545000
1,752093	379,944154	19,244	0,027688	22,620000	51,545000
1,756103	383,551056	19,445	0,029124	22,620000	51,545000
1,760076	385,453881	19,646	0,029881	22,620000	51,545000
1,764050	390,831109	19,846	0,032021	22,640000	51,530000
1,768062	395,510266	20,048	0,033883	22,640000	51,530000
1,772088	397,246241	20,248	0,034574	22,640000	51,530000
1,776109	401,385590	20,450	0,036222	22,640000	51,530000
1,780113	407,311214	20,651	0,038580	22,640000	51,530000
1,784059	409,438550	20,853	0,039427	22,640000	51,530000
1,788096	414,525018	21,054	0,041451	22,640000	51,530000
1,792091	418,248469	21,256	0,042933	22,640000	51,530000
1,796069	421,970693	21,457	0,044415	22,640000	51,530000
1,800103	425,694145	21,657	0,045896	22,640000	51,530000
1,804063	429,567270	21,858	0,047438	22,640000	51,545000
1,808092	433,414632	22,058	0,048969	22,640000	51,545000
1,812086	437,695067	22,259	0,050673	22,640000	51,545000
1,816077	441,276205	22,459	0,052098	22,640000	51,545000
1,820114	447,309791	22,659	0,054500	22,640000	51,545000
1,824058	451,614763	22,859	0,056213	22,640000	51,545000
1,828097	455,097754	23,059	0,057599	22,640000	51,545000
1,832067	458,920579	23,259	0,059121	22,640000	51,545000
1,836057	460,989027	23,459	0,059944	22,640000	51,545000
1,840028	465,443673	23,660	0,061717	22,640000	51,545000
1,844075	471,344761	23,861	0,064065	22,640000	51,505000
1,848089	475,266960	24,062	0,065626	22,640000	51,505000
1,852073	479,322884	24,262	0,067241	22,640000	51,505000
1,856111	481,025734	24,463	0,067918	22,640000	51,505000
1,860109	485,114783	24,663	0,069546	22,640000	51,505000
1,864089	489,187883	24,863	0,071167	22,640000	51,505000
1,868096	495,087743	25,063	0,073515	22,640000	51,505000
1,872105	497,232255	25,264	0,074369	22,640000	51,505000
1,876079	503,083042	25,464	0,076697	22,640000	51,505000
1,880077	506,972116	25,665	0,078245	22,640000	51,505000
1,884101	511,144590	25,865	0,079906	22,630000	51,520000
1,888081	514,791977	26,066	0,081357	22,630000	51,520000
1,892145	518,282330	26,267	0,082747	22,630000	51,520000
1,896089	521,025538	26,468	0,083838	22,630000	51,520000
1,900123	525,222548	26,668	0,085509	22,630000	51,520000
1,904079	530,175291	26,868	0,087480	22,630000	51,520000
1,908063	533,674231	27,068	0,088873	22,630000	51,520000
1,912069	537,754691	27,270	0,090497	22,630000	51,520000
1,916079	542,117325	27,471	0,092233	22,630000	51,520000
1,920060	546,023575	27,671	0,093788	22,630000	51,520000
1,924083	549,672189	27,871	0,095240	22,630000	51,520000
1,928123	553,686401	28,072	0,096837	22,630000	51,520000
1,932070	559,029277	28,272	0,098964	22,630000	51,520000
1,936048	560,799603	28,472	0,099668	22,630000	51,520000
1,940065	565,188001	28,674	0,101415	22,630000	51,520000
1,944091	569,002238	28,874	0,102933	22,630000	51,520000
1,948094	574,943811	29,075	0,105298	22,630000	51,520000
1,952085	579,149409	29,277	0,106972	22,630000	51,520000
1,956047	582,989410	29,477	0,108500	22,630000	51,520000
1,960107	587,120171	29,678	0,110144	22,630000	51,520000
1,964052	588,631635	29,878	0,110746	22,640000	51,530000
1,968080	593,244543	30,078	0,112582	22,640000	51,530000
1,972098	596,983943	30,279	0,114070	22,640000	51,530000
1,976038	600,980979	30,480	0,115661	22,640000	51,530000
1,980079	607,205952	30,680	0,118138	22,640000	51,530000
1,984065	611,030004	30,880	0,119660	22,640000	51,530000
1,988086	614,968151	31,080	0,121228	22,640000	51,530000
1,992091	616,804727	31,280	0,121958	22,640000	51,530000
1,996045	620,951437	31,480	0,123609	22,640000	51,530000
2,000097	625,090786	31,681	0,125256	22,640000	51,530000
2,004075	628,838774	31,881	0,126748	22,620000	51,530000
2,008072	633,185459	32,082	0,128478	22,620000	51,530000
2,012034	638,719722	32,284	0,130681	22,620000	51,530000
2,016053	642,401460	32,486	0,132146	22,620000	51,530000
2,020061	645,078419	32,687	0,133211	22,620000	51,530000
2,024080	650,006625	32,887	0,135173	22,620000	51,530000
2,028029	653,638063	33,088	0,136618	22,620000	51,530000
2,032045	657,734473	33,289	0,138249	22,620000	51,530000
2,036091	661,383087	33,490	0,139701	22,620000	51,530000
2,040053	665,538385	33,690	0,141354	22,620000	51,530000
2,044040	669,303549	33,890	0,142853	22,620000	51,530000
2,048098	672,736240	34,090	0,144219	22,620000	51,530000
2,052085	677,398222	34,290	0,146075	22,620000	51,530000
2,056026	681,362133	34,491	0,147652	22,620000	51,530000
2,060074	687,237457	34,692	0,149991	22,620000	51,530000
2,064063	691,018569	34,894	0,151496	22,620000	51,530000
2,068095	692,788896	35,095	0,152200	22,620000	51,530000
2,072047	697,069331	35,295	0,153904	22,620000	51,530000
2,076029	700,892156	35,495	0,155425	22,620000	51,530000
2,080132	704,939492	35,695	0,157036	22,620000	51,530000
2,084055	709,002778	35,896	0,158653	22,630000	51,520000
2,088074	715,144325	36,096	0,161098	22,630000	51,520000
2,092062	719,250550	36,297	0,162732	22,630000	51,520000
2,096106	722,840276	36,498	0,164161	22,630000	51,520000
2,100080	724,976199	36,699	0,165011	22,630000	51,520000
2,104044	729,006360	36,900	0,166615	22,630000	51,520000
2,108049	733,194783	37,100	0,168282	22,630000	51,520000
2,112026	739,054158	37,300	0,170614	22,630000	51,520000
2,116140	742,427960	37,500	0,171957	22,630000	51,520000
2,120095	745,070568	37,700	0,173008	22,630000	51,520000
2,124096	750,847745	37,901	0,175308	22,630000	51,530000
2,128097	754,262033	38,102	0,176667	22,630000	51,530000
2,132121	758,260296	38,303	0,178258	22,630000	51,530000
2,136105	760,728692	38,503	0,179240	22,630000	51,530000
2,140042	765,016489	38,703	0,180947	22,630000	51,530000
2,144100	769,504260	38,904	0,182733	22,630000	51,530000
2,148095	772,878062	39,105	0,184076	22,630000	51,530000
2,152059	776,958523	39,307	0,185700	22,630000	51,530000
2,156052	781,404582	39,507	0,187469	22,630000	51,530000
2,160095	784,663061	39,707	0,188766	22,630000	51,530000
2,164121	788,876021	39,907	0,190443	22,630000	51,520000
2,168048	793,330667	40,107	0,192216	22,630000	51,520000
2,172040	796,996457	40,308	0,193675	22,630000	51,520000
2,176099	801,110042	40,508	0,195312	22,630000	51,520000
2,180104	806,245583	40,708	0,197356	22,630000	51,520000
2,184083	809,178951	40,908	0,198523	22,630000	51,520000
2,188078	813,135502	41,108	0,200098	22,630000	51,520000
2,192109	817,033164	41,308	0,201649	22,630000	51,520000
2,196058	820,722264	41,508	0,203118	22,630000	51,520000
2,200038	825,086124	41,708	0,204854	22,630000	51,520000
2,204074	831,052234	41,908	0,207229	22,630000	51,530000
2,208096	832,897397	42,108	0,207963	22,630000	51,530000
2,212084	836,554599	42,308	0,209419	22,630000	51,530000
2,216093	841,141744	42,508	0,211245	22,630000	51,530000
2,220116	844,757233	42,708	0,212684	22,630000	51,530000
2,224088	849,103918	42,910	0,214414	22,630000	51,530000
2,228084	854,887229	43,110	0,216715	22,630000	51,530000
2,232091	858,951741	43,312	0,218333	22,630000	51,530000
2,236074	862,649429	43,513	0,219805	22,630000	51,530000
2,240085	866,987526	43,714	0,221531	22,630000	51,530000
2,244093	868,841277	43,914	0,222269	22,640000	51,505000
2,248075	873,254211	44,114	0,224025	22,640000	51,505000
2,252065	877,151873	44,315	0,225577	22,640000	51,505000
2,256046	880,417714	44,516	0,226876	22,640000	51,505000
2,260073	885,969152	44,716	0,229086	22,640000	51,505000
2,264037	889,518393	44,917	0,230499	22,640000	51,505000
2,268052	892,908144	45,117	0,231848	22,640000	51,505000
2,272086	899,009206	45,317	0,234276	22,640000	51,505000
2,276072	900,929207	45,518	0,235040	22,640000	51,505000
2,280093	904,202409	45,719	0,236343	22,640000	51,505000
2,284083	909,097489	45,920	0,238291	22,640000	51,505000
2,288062	913,477299	46,121	0,240034	22,640000	51,505000
2,292085	917,874284	46,321	0,241784	22,640000	51,505000
2,296090	923,134962	46,521	0,243878	22,640000	51,505000
2,300070	925,311371	46,721	0,244744	22,640000	51,505000
2,304092	929,175909	46,921	0,246282	22,640000	51,505000
2,308089	932,584063	47,122	0,247639	22,640000	51,505000
2,312136	937,228869	47,322	0,249487	22,640000	51,505000
2,316064	941,209956	47,522	0,251072	22,640000	51,505000
2,320046	945,057318	47,723	0,252603	22,640000	51,505000
2,324073	949,062942	47,923	0,254197	22,630000	51,505000
2,328055	955,047454	48,124	0,256579	22,630000	51,505000
2,332054	956,925742	48,325	0,257327	22,630000	51,505000
2,336066	961,105577	48,526	0,258990	22,630000	51,505000
2,340042	965,186038	48,727	0,260614	22,630000	51,505000
2,344061	968,684978	48,927	0,262007	22,630000	51,505000
2,348068	975,266960	49,129	0,264626	22,630000	51,505000
2,352108	979,131497	49,329	0,266165	22,630000	51,505000
2,356114	982,945735	49,529	0,267683	22,630000	51,505000
2,360062	986,942770	49,729	0,269273	22,630000	51,505000
2,364070	988,929020	49,929	0,270064	22,630000	51,505000
2,368069	993,076957	50,129	0,271715	22,630000	51,505000
2,372091	999,300703	50,330	0,274192	22,630000	51,505000
2,372109	998,960869	50,531	0,274057	22,630000	51,505000
2,372061	998,985406	50,731	0,274066	22,630000	51,505000
2,372074	998,811195	50,932	0,273997	22,630000	51,505000
2,372057	999,051655	51,132	0,274093	22,630000	51,505000
2,372088	998,901981	51,333	0,274033	22,630000	51,505000
2,368062	996,433584	51,533	0,273051	22,630000	51,505000
2,364085	990,732471	51,733	0,270782	22,630000	51,505000
2,360033	987,417557	51,933	0,269462	22,640000	51,520000
2,356075	982,205952	52,133	0,267388	22,640000	51,520000
2,352104	978,840737	52,334	0,266049	22,640000	51,520000
2,348054	973,754269	52,535	0,264024	22,640000	51,520000
2,344092	971,111662	52,736	0,262973	22,640000	51,520000
2,340018	967,488811	52,938	0,261531	22,640000	51,520000
2,336058	963,274625	53,138	0,259854	22,640000	51,520000
2,332101	959,136503	53,338	0,258207	22,640000	51,520000
2,328056	954,981205	53,539	0,256553	22,640000	51,520000
2,324040	951,016067	53,740	0,254975	22,630000	51,520000
2,320075	946,404385	53,941	0,253139	22,630000	51,520000
2,316058	942,905445	54,142	0,251747	22,630000	51,520000
2,312065	938,758735	54,342	0,250096	22,630000	51,520000
2,308085	934,520012	54,543	0,248409	22,630000	51,520000
2,304046	928,336752	54,743	0,245948	22,630000	51,520000
2,300070	924,439090	54,943	0,244397	22,630000	51,520000
2,296060	920,118169	55,143	0,242677	22,630000	51,520000
2,292048	918,173632	55,345	0,241903	22,630000	51,520000
2,288057	912,230832	55,547	0,239538	22,630000	51,520000
2,284126	908,101298	55,747	0,237895	22,640000	51,505000
2,280026	904,360671	55,948	0,236406	22,640000	51,505000
2,276047	900,264261	56,149	0,234775	22,640000	51,505000
2,272099	897,703851	56,349	0,233756	22,640000	51,505000
2,268103	893,341218	56,549	0,232020	22,640000	51,505000
2,264053	889,036246	56,749	0,230307	22,640000	51,505000
2,260079	884,315376	56,949	0,228428	22,640000	51,505000
2,256073	879,395758	57,149	0,226470	22,640000	51,505000
2,252058	875,555757	57,350	0,224941	22,640000	51,505000
2,248087	871,924319	57,551	0,223496	22,640000	51,505000
2,244095	867,478260	57,751	0,221727	22,640000	51,505000
2,240107	863,987908	57,952	0,220337	22,640000	51,505000
2,236025	859,574974	58,152	0,218581	22,640000	51,505000
2,232094	856,433044	58,352	0,217331	22,640000	51,505000
2,228090	851,546551	58,552	0,215386	22,640000	51,505000
2,224063	847,831688	58,753	0,213907	22,640000	51,505000
2,220080	843,951201	58,954	0,212363	22,640000	51,505000
2,216056	839,214382	59,155	0,210478	22,640000	51,505000
2,212035	836,155877	59,356	0,209260	22,640000	51,505000
2,208123	832,150253	59,556	0,207666	22,640000	51,505000
2,204080	825,892156	59,757	0,205175	22,630000	51,505000
2,200059	823,582021	59,957	0,204256	22,630000	51,505000
2,196066	819,176449	60,157	0,202502	22,630000	51,505000
2,192077	815,952320	60,358	0,201219	22,630000	51,505000
2,188071	811,797022	60,559	0,199565	22,630000	51,505000
2,184070	807,441750	60,759	0,197832	22,630000	51,505000
2,180064	801,167704	60,959	0,195335	22,630000	51,505000
2,176089	799,439090	61,159	0,194647	22,630000	51,505000
2,172063	794,277785	61,360	0,192593	22,630000	51,505000
2,168076	789,258794	61,561	0,190595	22,630000	51,505000
2,164059	785,094908	61,762	0,188938	22,630000	51,490000
2,160097	783,117246	61,963	0,188151	22,630000	51,490000
2,156090	777,365833	62,163	0,185862	22,630000	51,490000
2,152073	772,844938	62,363	0,184062	22,630000	51,490000
2,148038	768,798828	62,563	0,182452	22,630000	51,490000
2,144048	764,825102	62,764	0,180871	22,630000	51,490000
2,140076	762,440130	62,964	0,179921	22,630000	51,490000
2,136051	758,143746	63,165	0,178211	22,630000	51,490000
2,132103	754,237496	63,366	0,176657	22,630000	51,490000
2,128055	748,877444	63,566	0,174523	22,630000	51,490000
2,124088	745,096331	63,766	0,173019	22,640000	51,490000
2,120104	740,509187	63,966	0,171193	22,640000	51,490000
2,116081	736,594349	64,167	0,169635	22,640000	51,490000
2,112100	734,059703	64,367	0,168626	22,640000	51,490000
2,108067	728,840737	64,567	0,166549	22,640000	51,490000
2,104123	725,723343	64,769	0,165308	22,640000	51,490000
2,100086	720,895738	64,969	0,163387	22,640000	51,490000
2,096061	717,039789	65,170	0,161852	22,640000	51,490000
2,092066	711,596312	65,370	0,159686	22,640000	51,490000
2,088083	709,053078	65,571	0,158673	22,640000	51,490000
2,084051	705,429000	65,771	0,157231	22,630000	51,505000
2,080098	701,673651	65,973	0,155736	22,630000	51,505000
2,076104	697,600552	66,173	0,154115	22,630000	51,505000
2,072090	693,262455	66,374	0,152389	22,630000	51,505000
2,068121	687,428843	66,576	0,150067	22,630000	51,505000
2,064102	683,148408	66,777	0,148363	22,630000	51,505000
2,060037	679,118247	66,977	0,146759	22,630000	51,505000
2,056107	676,392215	67,177	0,145674	22,630000	51,505000
2,052111	672,934987	67,378	0,144298	22,630000	51,505000
2,048095	668,829990	67,579	0,142665	22,630000	51,505000
2,044067	664,756890	67,779	0,141043	22,640000	51,520000
2,040059	660,784391	67,979	0,139462	22,640000	51,520000
2,036040	654,734856	68,179	0,137055	22,640000	51,520000
2,032074	650,737820	68,379	0,135464	22,640000	51,520000
2,028080	646,897819	68,579	0,133936	22,640000	51,520000
2,024102	642,368336	68,780	0,132133	22,640000	51,520000
2,020068	638,470674	68,981	0,130582	22,640000	51,520000
2,016095	634,755810	69,181	0,129103	22,640000	51,520000
2,012143	630,591924	69,381	0,127446	22,640000	51,520000
2,008091	627,367796	69,582	0,126163	22,640000	51,520000
2,004112	623,320460	69,783	0,124552	22,640000	51,520000
2,000088	618,400842	69,983	0,122594	22,640000	51,520000
1,996086	615,417174	70,185	0,121406	22,640000	51,520000
1,992071	611,436087	70,387	0,119822	22,640000	51,520000
1,988059	607,131115	70,587	0,118108	22,640000	51,520000
1,984074	603,524213	70,789	0,116673	22,640000	51,520000
1,980089	597,632940	70,989	0,114328	22,640000	51,520000
1,976116	595,554678	71,189	0,113501	22,640000	51,520000
1,972081	591,815278	71,389	0,112013	22,640000	51,520000
1,968036	587,717641	71,590	0,110382	22,640000	51,520000
1,964093	582,075416	71,791	0,108136	22,630000	51,490000
1,960124	579,681857	71,991	0,107184	22,630000	51,490000
1,956042	575,617345	72,192	0,105566	22,630000	51,490000
1,952094	571,296424	72,392	0,103846	22,630000	51,490000
1,948146	567,282212	72,594	0,102249	22,630000	51,490000
1,944094	561,257214	72,794	0,099851	22,630000	51,490000
1,940140	559,262376	72,994	0,099057	22,630000	51,490000
1,936085	555,215040	73,195	0,097446	22,630000	51,490000
1,932083	551,068330	73,396	0,095795	22,630000	51,490000
1,928125	547,095831	73,596	0,094214	22,630000	51,490000
1,924153	543,222705	73,796	0,092673	22,630000	51,490000
1,920083	538,428225	73,997	0,090765	22,630000	51,490000
1,916124	533,582218	74,197	0,088836	22,630000	51,490000
1,912136	528,662600	74,397	0,086878	22,630000	51,490000
1,908095	525,097411	74,598	0,085459	22,630000	51,490000
1,904104	521,465972	74,799	0,084014	22,630000	51,490000
1,900088	517,518010	74,999	0,082442	22,630000	51,490000
1,896126	513,163964	75,199	0,080709	22,630000	51,490000
1,892115	511,052577	75,399	0,079869	22,630000	51,490000
1,888122	506,265458	75,599	0,077964	22,630000	51,490000
1,884087	500,863693	75,799	0,075814	22,630000	51,520000
1,880103	498,337635	75,999	0,074809	22,630000	51,520000
1,876095	493,500216	76,200	0,072883	22,630000	51,520000
1,872113	489,893314	76,400	0,071448	22,630000	51,520000
1,868080	485,314757	76,600	0,069625	22,630000	51,520000
1,864120	482,355626	76,800	0,068448	22,630000	51,520000
1,860119	477,469133	77,001	0,066503	22,630000	51,520000
1,856089	474,328429	77,201	0,065253	22,630000	51,520000
1,852106	470,140007	77,403	0,063586	22,630000	51,520000
1,848110	466,075495	77,603	0,061968	22,630000	51,520000
1,844046	462,118944	77,803	0,060394	22,640000	51,520000
1,840115	458,662944	78,003	0,059018	22,640000	51,520000
1,836126	453,858649	78,203	0,057106	22,640000	51,520000
1,832113	450,251747	78,403	0,055670	22,640000	51,520000
1,828104	446,105037	78,603	0,054020	22,640000	51,520000
1,824128	441,958327	78,803	0,052370	22,640000	51,520000
1,820089	438,276588	79,004	0,050904	22,640000	51,520000
1,816151	434,196127	79,205	0,049280	22,640000	51,520000
1,812099	430,423602	79,406	0,047779	22,640000	51,520000
1,808120	426,009442	79,607	0,046022	22,640000	51,520000
1,804113	421,763358	79,808	0,044332	22,620000	51,530000
1,800125	417,931945	80,010	0,042807	22,620000	51,530000
1,796108	413,660097	80,211	0,041107	22,620000	51,530000
1,792115	409,696186	80,411	0,039529	22,620000	51,530000
1,788144	405,699150	80,611	0,037938	22,620000	51,530000
1,784125	401,518088	80,812	0,036274	22,620000	51,530000
1,780136	396,889231	81,014	0,034432	22,620000	51,530000
1,776158	393,457767	81,215	0,033066	22,620000	51,530000
1,772087	388,977357	81,415	0,031283	22,620000	51,530000
1,768115	385,521357	81,616	0,029908	22,620000	51,530000
1,764141	380,817663	81,817	0,028036	22,620000	51,530000
1,760171	376,861112	82,017	0,026461	22,620000	51,530000
1,756124	372,688639	82,217	0,024800	22,620000	51,530000
1,752124	368,973775	82,419	0,023322	22,620000	51,530000
1,748127	365,051576	82,620	0,021761	22,620000	51,530000
1,744076	361,402962	82,820	0,020309	22,620000	51,530000
1,740110	357,472175	83,021	0,018744	22,620000	51,530000
1,736130	353,666526	83,222	0,017229	22,620000	51,530000
1,732090	349,594653	83,423	0,015609	22,620000	51,530000
1,728087	343,667802	83,623	0,013250	22,620000	51,530000
1,724142	341,308594	83,823	0,012311	22,630000	51,480000
1,720089	337,160657	84,024	0,010660	22,630000	51,480000
1,716049	333,696068	84,224	0,009281	22,630000	51,480000
1,712115	327,213460	84,425	0,006701	22,630000	51,480000
1,708114	323,199248	84,626	0,005104	22,630000	51,480000
1,704119	319,134736	84,826	0,003486	22,630000	51,480000
1,700083	315,064090	85,027	0,001866	22,630000	51,480000
1,696124	312,470556	85,227	0,000833	22,630000	51,480000
1,692122	309,178951	85,427	-0,000477	22,630000	51,480000
1,688118	305,107078	85,628	-0,002097	22,630000	51,480000
1,684118	299,870937	85,829	-0,004181	22,640000	51,530000
1,680110	295,059281	86,030	-0,006096	22,640000	51,530000
1,676107	291,119906	86,230	-0,007664	22,640000	51,530000
1,672158	287,554717	86,430	-0,009083	22,640000	51,530000
1,668124	283,217847	86,630	-0,010809	22,640000	51,530000
1,664167	279,494396	86,830	-0,012291	22,640000	51,530000
1,660109	275,496133	87,031	-0,013882	22,640000	51,530000
1,656177	271,831570	87,231	-0,015341	22,640000	51,530000
1,652113	268,905563	87,431	-0,016505	22,640000	51,530000
1,648132	263,844859	87,631	-0,018520	22,640000	51,530000
1,644165	260,412168	87,832	-0,019886	22,640000	51,530000
1,640125	257,329126	88,034	-0,021113	22,640000	51,530000
1,636076	252,651195	88,234	-0,022975	22,640000	51,530000
1,632121	249,317878	88,435	-0,024301	22,640000	51,530000
1,628092	245,038670	88,637	-0,026004	22,640000	51,530000
1,624155	241,132420	88,838	-0,027559	22,640000	51,530000
1,620058	237,525518	89,038	-0,028995	22,640000	51,530000
1,616133	233,162885	89,239	-0,030731	22,640000	51,530000
1,612135	229,048072	89,440	-0,032369	22,640000	51,530000
1,608125	225,176174	89,641	-0,033910	22,640000	51,530000
1,604062	221,203675	89,841	-0,035491	22,630000	51,490000
1,600093	217,130575	90,041	-0,037112	22,630000	51,490000
1,596125	211,089628	90,241	-0,039516	22,630000	51,490000
1,592119	207,174790	90,441	-0,041074	22,630000	51,490000
1,588128	205,521013	90,643	-0,041732	22,630000	51,490000
1,584146	198,980744	90,843	-0,044335	22,630000	51,490000
1,580106	197,384628	91,043	-0,044971	22,630000	51,490000
1,576118	193,337292	91,243	-0,046582	22,630000	51,490000
1,572095	187,561342	91,443	-0,048880	22,630000	51,490000
1,568138	183,590069	91,645	-0,050461	22,630000	51,490000
1,564154	179,633519	91,845	-0,052036	22,630000	51,490000
1,560123	177,306209	92,045	-0,052962	22,630000	51,490000
1,556134	173,384010	92,247	-0,054523	22,630000	51,490000
1,552078	168,506105	92,447	-0,056464	22,630000	51,490000
1,548155	165,214500	92,647	-0,057774	22,630000	51,490000
1,544089	161,765861	92,847	-0,059147	22,630000	51,490000
1,540124	157,584799	93,047	-0,060811	22,630000	51,490000
1,536105	153,164504	93,248	-0,062570	22,630000	51,490000
1,532129	149,117168	93,449	-0,064181	22,630000	51,490000
1,528084	145,560567	93,649	-0,065597	22,630000	51,490000
1,524092	140,747684	93,849	-0,067512	22,630000	51,505000
1,520092	136,900322	94,049	-0,069043	22,630000	51,505000
1,516155	132,745024	94,249	-0,070697	22,630000	51,505000
1,512181	128,422876	94,449	-0,072417	22,630000	51,505000
1,508146	125,506684	94,650	-0,073578	22,630000	51,505000
1,504174	121,210300	94,850	-0,075288	22,630000	51,505000
1,500151	115,749647	95,050	-0,077461	22,630000	51,505000
1,496175	113,796522	95,250	-0,078239	22,630000	51,505000
1,492094	109,865735	95,450	-0,079803	22,630000	51,505000
1,488094	105,577939	95,651	-0,081510	22,630000	51,505000
1,484139	101,945273	95,853	-0,082956	22,630000	51,465000
1,480118	97,657477	96,053	-0,084662	22,630000	51,465000
1,476127	94,200249	96,255	-0,086038	22,630000	51,465000
1,472140	90,344300	96,456	-0,087573	22,630000	51,465000
1,468136	84,028541	96,657	-0,090086	22,630000	51,465000
1,464082	79,988566	96,857	-0,091694	22,630000	51,465000
1,460094	76,240578	97,058	-0,093186	22,630000	51,465000
1,456098	74,471478	97,258	-0,093890	22,630000	51,465000
1,452110	69,966532	97,458	-0,095683	22,630000	51,465000
1,448143	64,265419	97,658	-0,097952	22,630000	51,465000
1,444102	59,960447	97,858	-0,099666	22,630000	51,520000
1,440137	58,165584	98,059	-0,100380	22,630000	51,520000
1,436162	54,375883	98,259	-0,101888	22,630000	51,520000
1,432127	50,403384	98,460	-0,103469	22,630000	51,520000
1,428132	45,109581	98,660	-0,105576	22,630000	51,520000
1,424098	40,430424	98,861	-0,107438	22,630000	51,520000
1,420149	36,283713	99,061	-0,109089	22,630000	51,520000
1,416118	32,593387	99,261	-0,110558	22,630000	51,520000
1,412143	28,206217	99,462	-0,112304	22,630000	51,520000
1,408114	24,357628	99,663	-0,113835	22,630000	51,520000
1,404139	20,468554	99,863	-0,115383	22,640000	51,505000
1,400179	18,524017	100,063	-0,116157	22,640000	51,505000
1,396120	12,248744	100,263	-0,118655	22,640000	51,505000
1,392169	8,900705	100,463	-0,119987	22,640000	51,505000
1,388144	4,188423	100,664	-0,121863	22,640000	51,505000
1,384119	1,570352	100,865	-0,122905	22,640000	51,505000
1,380120	-2,842582	101,066	-0,124661	22,640000	51,505000
1,376135	-6,391822	101,267	-0,126074	22,640000	51,505000
1,372111	-12,284322	101,467	-0,128419	22,640000	51,505000