File: Nanoindentation Datenauswertung/data/S_calib/S_calib_2408-3
Quasi static measurement routine
Tip parameters (shape,radius, material...)
24.08.2022

Piezo position[nm]	MEMS displ.[nm]	Time[ms]	Cap [pf]	Temp [°C]	Rh [%]
eoh
2,615846	-0,574160	0,191	-0,121268	22,360000	51,570000
2,619792	1,678313	0,391	-0,120371	22,360000	51,570000
2,623811	5,617688	0,591	-0,118803	22,350000	51,580000
2,627834	9,656436	0,791	-0,117196	22,350000	51,580000
2,631816	14,226405	0,992	-0,115377	22,350000	51,580000
2,635868	17,617384	1,192	-0,114027	22,350000	51,580000
2,639843	24,091404	1,392	-0,111451	22,350000	51,580000
2,643850	26,244504	1,592	-0,110594	22,350000	51,580000
2,647814	29,959367	1,792	-0,109115	22,350000	51,580000
2,651823	34,255751	1,993	-0,107405	22,350000	51,580000
2,655822	38,061401	2,193	-0,105891	22,350000	51,580000
2,659835	44,253249	2,393	-0,103426	22,350000	51,580000
2,663808	47,934987	2,594	-0,101961	22,360000	51,570000
2,667818	52,356509	2,796	-0,100201	22,360000	51,570000
2,671830	56,436970	2,996	-0,098577	22,360000	51,570000
2,675843	60,076996	3,197	-0,097128	22,360000	51,570000
2,679796	63,932946	3,397	-0,095594	22,360000	51,570000
2,683819	66,218544	3,597	-0,094684	22,360000	51,570000
2,687817	70,099030	3,799	-0,093140	22,360000	51,570000
2,691881	75,533920	4,001	-0,090977	22,360000	51,570000
2,695844	78,543352	4,201	-0,089779	22,360000	51,570000
2,699810	83,329244	4,401	-0,087874	22,360000	51,570000
2,703813	86,961909	4,601	-0,086428	22,350000	51,595000
2,707804	91,864351	4,801	-0,084477	22,350000	51,595000
2,711864	95,180492	5,001	-0,083157	22,350000	51,595000
2,715760	99,294078	5,202	-0,081520	22,350000	51,595000
2,719800	102,743944	5,403	-0,080147	22,350000	51,595000
2,723792	106,217121	5,603	-0,078765	22,350000	51,595000
2,727804	110,322118	5,803	-0,077131	22,350000	51,595000
2,731764	114,336330	6,003	-0,075533	22,350000	51,595000
2,735809	118,458503	6,204	-0,073893	22,350000	51,595000
2,739762	122,415054	6,406	-0,072318	22,350000	51,595000
2,743832	126,138505	6,606	-0,070836	22,360000	51,570000
2,747841	130,384589	6,806	-0,069146	22,360000	51,570000
2,751841	136,310213	7,007	-0,066788	22,360000	51,570000
2,755814	138,155376	7,207	-0,066053	22,360000	51,570000
2,759790	142,467710	7,407	-0,064337	22,360000	51,570000
2,763796	148,659558	7,607	-0,061873	22,360000	51,570000
2,767858	150,139123	7,807	-0,061284	22,360000	51,570000
2,771780	154,169284	8,007	-0,059680	22,360000	51,570000
2,775790	158,233796	8,207	-0,058062	22,360000	51,570000
2,779783	162,289720	8,408	-0,056448	22,360000	51,570000
2,783805	168,645964	8,608	-0,053918	22,360000	51,570000
2,787855	172,503141	8,809	-0,052383	22,360000	51,570000
2,791808	176,143167	9,009	-0,050934	22,360000	51,570000
2,795769	178,428765	9,209	-0,050024	22,360000	51,570000
2,799895	182,957021	9,410	-0,048222	22,360000	51,570000
2,803844	186,671885	9,610	-0,046744	22,360000	51,570000
2,807753	192,797484	9,811	-0,044306	22,360000	51,570000
2,811813	194,691720	10,011	-0,043552	22,360000	51,570000
2,815784	198,697344	10,211	-0,041958	22,360000	51,570000
2,819797	203,401038	10,412	-0,040085	22,360000	51,570000
2,823804	208,819979	10,612	-0,037929	22,350000	51,605000
2,827797	212,684516	10,812	-0,036391	22,350000	51,605000
2,831781	216,690140	11,012	-0,034796	22,350000	51,605000
2,835784	219,915495	11,213	-0,033513	22,350000	51,605000
2,839764	222,923701	11,413	-0,032315	22,350000	51,605000
2,843808	226,737938	11,613	-0,030797	22,350000	51,605000
2,847781	232,056277	11,814	-0,028681	22,350000	51,605000
2,851837	235,488968	12,014	-0,027314	22,350000	51,605000
2,855745	239,461467	12,216	-0,025733	22,350000	51,605000
2,859804	243,849865	12,416	-0,023987	22,350000	51,605000
2,863818	247,888613	12,616	-0,022379	22,350000	51,605000
2,867806	251,910186	12,817	-0,020779	22,350000	51,605000
2,871820	255,866736	13,017	-0,019204	22,350000	51,605000
2,875820	259,323964	13,217	-0,017828	22,350000	51,605000
2,879796	264,850866	13,417	-0,015628	22,350000	51,605000
2,883835	266,379505	13,617	-0,015020	22,350000	51,605000
2,887809	271,640183	13,817	-0,012926	22,350000	51,605000
2,891788	275,156299	14,017	-0,011527	22,350000	51,605000
2,895791	279,078498	14,236	-0,009966	22,350000	51,605000
2,899811	283,649694	14,437	-0,008146	22,350000	51,605000
2,903787	287,014909	14,638	-0,006807	22,340000	51,565000
2,907807	290,721184	14,840	-0,005332	22,340000	51,565000
2,911804	295,217543	15,040	-0,003542	22,340000	51,565000
2,915858	298,923818	15,240	-0,002067	22,340000	51,565000
2,919826	303,387052	15,441	-0,000291	22,340000	51,565000
2,923867	309,128651	15,643	0,001994	22,340000	51,565000
2,927784	312,860690	15,843	0,003479	22,340000	51,565000
2,931782	314,921777	16,043	0,004300	22,340000	51,565000
2,935835	318,993650	16,243	0,005920	22,340000	51,565000
2,939809	324,894737	16,445	0,008269	22,350000	51,565000
2,943828	329,191122	16,645	0,009979	22,350000	51,565000
2,947828	333,146445	16,846	0,011553	22,350000	51,565000
2,951760	337,028158	17,047	0,013098	22,350000	51,565000
2,955798	338,856146	17,247	0,013826	22,350000	51,565000
2,959776	342,861770	17,447	0,015420	22,350000	51,565000
2,963762	346,901745	17,647	0,017028	22,350000	51,565000
2,967753	353,017529	17,848	0,019462	22,350000	51,565000
2,971803	355,270002	18,051	0,020358	22,350000	51,565000
2,975773	360,173671	18,251	0,022310	22,350000	51,565000
2,979760	363,688560	18,451	0,023709	22,350000	51,565000
2,983809	366,912688	18,651	0,024992	22,350000	51,565000
2,987764	370,869239	18,853	0,026567	22,350000	51,565000
2,991801	376,993611	19,053	0,029004	22,350000	51,565000
2,995820	378,997036	19,254	0,029802	22,350000	51,565000
2,999734	382,985484	19,455	0,031389	22,350000	51,565000
3,003822	387,083121	19,655	0,033020	22,350000	51,565000
3,007771	390,780808	19,857	0,034492	22,350000	51,565000
3,011786	394,994995	20,059	0,036169	22,350000	51,565000
3,015779	398,908606	20,259	0,037727	22,350000	51,565000
3,019822	402,416133	20,459	0,039123	22,360000	51,585000
3,023804	408,931866	20,661	0,041716	22,360000	51,585000
3,027810	412,878602	20,861	0,043287	22,360000	51,585000
3,031806	415,205912	21,062	0,044213	22,360000	51,585000
3,035798	418,912188	21,262	0,045688	22,360000	51,585000
3,039837	424,522515	21,463	0,047921	22,360000	51,585000
3,043770	428,578439	21,663	0,049535	22,360000	51,585000
3,047804	433,240421	21,863	0,051391	22,360000	51,585000
3,051813	436,930747	22,063	0,052859	22,360000	51,585000
3,055742	439,340256	22,263	0,053818	22,360000	51,585000
3,059759	442,772947	22,464	0,055185	22,340000	51,555000
3,063824	448,930443	22,666	0,057635	22,340000	51,555000
3,067829	450,733894	22,866	0,058353	22,340000	51,555000
3,071808	456,210496	23,066	0,060533	22,340000	51,555000
3,075757	458,753730	23,266	0,061545	22,340000	51,555000
3,079808	464,064708	23,467	0,063659	22,340000	51,555000
3,083802	467,696147	23,667	0,065104	22,340000	51,555000
3,087821	471,444135	23,869	0,066596	22,340000	51,555000
3,091775	475,766283	24,070	0,068316	22,340000	51,555000
3,095815	478,856686	24,271	0,069546	22,340000	51,555000
3,099807	483,434016	24,472	0,071368	22,350000	51,565000
3,103788	487,067908	24,673	0,072814	22,350000	51,565000
3,107832	491,148369	24,873	0,074438	22,350000	51,565000
3,111803	495,103692	25,074	0,076012	22,350000	51,565000
3,115755	498,952281	25,274	0,077544	22,350000	51,565000
3,119772	504,479183	25,474	0,079744	22,350000	51,565000
3,123759	506,705893	25,675	0,080630	22,350000	51,565000
3,127777	512,856028	25,876	0,083078	22,350000	51,565000
3,131732	516,828527	26,079	0,084659	22,350000	51,565000
3,135763	520,475915	26,280	0,086110	22,350000	51,565000
3,139777	524,423877	26,481	0,087682	22,350000	51,580000
3,143829	527,041948	26,681	0,088724	22,350000	51,580000
3,147778	531,919853	26,881	0,090665	22,350000	51,580000
3,151756	537,105694	27,083	0,092729	22,350000	51,580000
3,155773	540,621810	27,284	0,094128	22,350000	51,580000
3,159822	543,870475	27,486	0,095421	22,350000	51,580000
3,163805	547,842975	27,686	0,097002	22,350000	51,580000
3,167765	550,852407	27,887	0,098200	22,350000	51,580000
3,171745	555,746261	28,087	0,100148	22,350000	51,580000
3,175798	560,982402	28,287	0,102232	22,350000	51,580000
3,179759	563,334249	28,487	0,103168	22,360000	51,585000
3,183743	567,090825	28,687	0,104663	22,360000	51,585000
3,187759	571,046149	28,887	0,106237	22,360000	51,585000
3,191757	576,273702	29,087	0,108318	22,360000	51,585000
3,195720	578,992374	29,287	0,109400	22,360000	51,585000
3,199814	582,872860	29,488	0,110944	22,360000	51,585000
3,203684	586,969270	29,690	0,112575	22,360000	51,585000
3,207738	590,692721	29,891	0,114057	22,360000	51,585000
3,211777	596,759432	30,091	0,116471	22,360000	51,585000
3,215763	600,350385	30,291	0,117900	22,360000	51,585000
3,219818	604,554756	30,492	0,119574	22,350000	51,580000
3,223697	606,882067	30,692	0,120500	22,350000	51,580000
3,227780	610,937991	30,893	0,122114	22,350000	51,580000
3,231745	614,710515	31,093	0,123616	22,350000	51,580000
3,235760	621,026274	31,293	0,126129	22,350000	51,580000
3,239722	622,780651	31,493	0,126828	22,350000	51,580000
3,243768	626,769099	31,693	0,128415	22,350000	51,580000
3,247768	633,068909	31,893	0,130922	22,350000	51,580000
3,251789	636,867197	32,093	0,132434	22,350000	51,580000
3,255777	640,947658	32,295	0,134058	22,350000	51,580000
3,259763	643,141243	32,497	0,134931	22,350000	51,580000
3,263755	646,706433	32,697	0,136350	22,350000	51,580000
3,267721	651,035941	32,897	0,138073	22,350000	51,580000
3,271790	655,183878	33,097	0,139724	22,350000	51,580000
3,275817	658,872978	33,298	0,141192	22,350000	51,580000
3,279797	664,956864	33,499	0,143614	22,350000	51,580000
3,283680	668,630015	33,699	0,145076	22,350000	51,580000
3,287792	670,666565	33,899	0,145886	22,350000	51,580000
3,291842	676,898899	34,099	0,148367	22,350000	51,580000
3,295776	679,442133	34,300	0,149379	22,350000	51,580000
3,299742	682,674849	34,500	0,150666	22,360000	51,600000
3,303756	687,287757	34,700	0,152501	22,360000	51,600000
3,307772	691,758352	34,901	0,154281	22,360000	51,600000
3,311785	695,938187	35,102	0,155944	22,360000	51,600000
3,315768	699,745063	35,302	0,157459	22,360000	51,600000
3,319760	702,737319	35,502	0,158650	22,360000	51,600000
3,323766	706,966228	35,702	0,160333	22,360000	51,600000
3,327666	711,122752	35,903	0,161988	22,360000	51,600000
3,331777	714,695303	36,105	0,163410	22,360000	51,600000
3,335735	720,812314	36,306	0,165844	22,360000	51,600000
3,339744	722,948237	36,506	0,166694	22,360000	51,600000
3,343753	728,308289	36,707	0,168828	22,360000	51,600000
3,347820	730,785274	36,908	0,169813	22,360000	51,600000
3,351765	734,848559	37,110	0,171431	22,360000	51,600000
3,355704	738,688560	37,310	0,172959	22,360000	51,600000
3,359725	744,814159	37,510	0,175397	22,360000	51,600000
3,363777	748,162198	37,711	0,176729	22,360000	51,600000
3,367774	751,079617	37,912	0,177891	22,360000	51,600000
3,371790	754,561381	38,112	0,179276	22,360000	51,600000
3,375746	760,744641	38,313	0,181737	22,360000	51,600000
3,379744	764,758853	38,513	0,183335	22,360000	51,570000
3,383783	768,174368	38,714	0,184694	22,360000	51,570000
3,387705	772,587302	38,915	0,186451	22,360000	51,570000
3,391714	774,632440	39,116	0,187265	22,360000	51,570000
3,395748	779,618306	39,316	0,189249	22,360000	51,570000
3,399701	783,199444	39,517	0,190674	22,360000	51,570000
3,403734	786,574474	39,718	0,192018	22,360000	51,570000
3,407780	791,403306	39,918	0,193939	22,360000	51,570000
3,411796	795,332865	40,118	0,195503	22,360000	51,570000
3,415736	800,370260	40,318	0,197508	22,360000	51,570000
3,419752	802,854605	40,519	0,198497	22,350000	51,555000
3,423769	808,256370	40,719	0,200647	22,350000	51,555000
3,427809	811,631399	40,919	0,201990	22,350000	51,555000
3,431767	814,497291	41,119	0,203131	22,350000	51,555000
3,435723	818,977701	41,319	0,204914	22,350000	51,555000
3,439709	823,166124	41,519	0,206581	22,350000	51,555000
3,443730	827,944655	41,719	0,208483	22,350000	51,555000
3,447675	830,902560	41,919	0,209660	22,350000	51,555000
3,451766	834,643187	42,120	0,211149	22,350000	51,555000
3,455713	838,847558	42,320	0,212822	22,350000	51,555000
3,459701	842,878946	42,521	0,214427	22,350000	51,555000
3,463722	846,717719	42,722	0,215955	22,350000	51,555000
3,467749	850,599433	42,924	0,217500	22,350000	51,555000
3,471760	854,156034	43,124	0,218915	22,350000	51,555000
3,475678	860,788317	43,325	0,221555	22,350000	51,555000
3,479733	864,303205	43,527	0,222954	22,350000	51,555000
3,483720	866,106656	43,727	0,223671	22,350000	51,555000
3,487722	870,212881	43,928	0,225306	22,350000	51,555000
3,491692	874,234454	44,128	0,226906	22,350000	51,555000
3,495736	880,301164	44,329	0,229321	22,350000	51,555000
3,499711	884,273663	44,529	0,230902	22,360000	51,570000
3,503690	886,077114	44,730	0,231620	22,360000	51,570000
3,507750	890,514585	44,931	0,233386	22,360000	51,570000
3,511762	895,393717	45,132	0,235328	22,360000	51,570000
3,515720	899,540427	45,332	0,236978	22,360000	51,570000
3,519742	904,045373	45,532	0,238771	22,360000	51,570000
3,523725	906,230371	45,733	0,239641	22,360000	51,570000
3,527646	911,266538	45,933	0,241645	22,360000	51,570000
3,531679	915,313874	46,133	0,243256	22,360000	51,570000
3,535706	918,563766	46,333	0,244549	22,360000	51,570000
3,539661	922,752189	46,533	0,246216	22,360000	51,570000
3,543725	926,575014	46,734	0,247738	22,360000	51,570000
3,547694	930,089903	46,936	0,249137	22,360000	51,570000
3,551728	934,927322	47,136	0,251062	22,360000	51,570000
3,555756	940,602672	47,337	0,253321	22,360000	51,570000
3,559708	942,357049	47,537	0,254019	22,360000	51,570000
3,563653	946,453459	47,737	0,255649	22,360000	51,570000
3,567801	950,210035	47,937	0,257145	22,360000	51,570000
3,571673	954,050035	48,137	0,258673	22,360000	51,570000
3,575722	958,029896	48,337	0,260257	22,360000	51,570000
3,579752	962,534842	48,537	0,262050	22,350000	51,605000
3,583730	966,565003	48,738	0,263654	22,350000	51,605000
3,587650	970,446716	48,939	0,265199	22,350000	51,605000
3,591725	974,278129	49,139	0,266724	22,350000	51,605000
3,595761	980,153453	49,340	0,269062	22,350000	51,605000
3,599684	982,230488	49,540	0,269889	22,350000	51,605000
3,603719	986,286413	49,741	0,271503	22,350000	51,605000
3,607673	990,292036	49,942	0,273097	22,350000	51,605000
3,611624	996,026274	50,143	0,275379	22,350000	51,605000
3,615696	999,749725	50,343	0,276861	22,350000	51,605000
3,619693	1002,284371	50,543	0,277870	22,350000	51,605000
3,623682	1006,721842	50,743	0,279636	22,350000	51,605000
3,627738	1010,337331	50,945	0,281075	22,350000	51,605000
3,631696	1016,013907	51,146	0,283334	22,350000	51,605000
3,635780	1019,803608	51,346	0,284843	22,350000	51,605000
3,639681	1023,908606	51,547	0,286477	22,350000	51,605000
3,643689	1028,138741	51,747	0,288160	22,350000	51,605000
3,647720	1030,166703	51,947	0,288967	22,350000	51,605000
3,651652	1034,072953	52,148	0,290522	22,350000	51,605000
3,655664	1038,087164	52,348	0,292120	22,350000	51,605000
3,659650	1043,139280	52,549	0,294130	22,340000	51,580000
3,663668	1045,499715	52,749	0,295070	22,340000	51,580000
3,667677	1050,793518	52,949	0,297177	22,340000	51,580000
3,671660	1055,107078	53,150	0,298894	22,340000	51,580000
3,675605	1058,090747	53,351	0,300081	22,340000	51,580000
3,679674	1061,946696	53,551	0,301616	22,340000	51,580000
3,683670	1067,755771	53,751	0,303928	22,340000	51,580000
3,687661	1070,057318	53,952	0,304844	22,340000	51,580000
3,691707	1074,212616	54,152	0,306498	22,340000	51,580000
3,695664	1077,894355	54,352	0,307963	22,340000	51,580000
3,699697	1083,894816	54,553	0,310351	22,340000	51,580000
3,703692	1087,609679	54,754	0,311830	22,340000	51,580000
3,707614	1089,613105	54,956	0,312627	22,340000	51,580000
3,711690	1093,269080	55,157	0,314082	22,340000	51,580000
3,715693	1097,208454	55,357	0,315650	22,340000	51,580000
3,719692	1101,588264	55,559	0,317393	22,340000	51,580000
3,723673	1106,316495	55,760	0,319275	22,340000	51,580000
3,727643	1109,449837	55,961	0,320522	22,340000	51,580000
3,731632	1115,201250	56,161	0,322811	22,340000	51,580000
3,735681	1119,189698	56,361	0,324398	22,340000	51,580000
3,739700	1123,195322	56,562	0,325993	22,350000	51,555000
3,743693	1127,251246	56,763	0,327607	22,350000	51,555000
3,747642	1131,248282	56,963	0,329198	22,350000	51,555000
3,751707	1133,782928	57,163	0,330207	22,350000	51,555000
3,755697	1139,010482	57,364	0,332287	22,350000	51,555000
3,759696	1142,974393	57,564	0,333865	22,350000	51,555000
3,763755	1146,124912	57,765	0,335119	22,350000	51,555000
3,767634	1150,553794	57,965	0,336881	22,350000	51,555000
3,771680	1153,737437	58,165	0,338148	22,350000	51,555000
3,775725	1157,135777	58,366	0,339501	22,350000	51,555000
3,779736	1161,141400	58,567	0,341095	22,350000	51,555000
3,783704	1166,128494	58,767	0,343080	22,350000	51,555000
3,787682	1169,610258	58,968	0,344466	22,350000	51,555000
3,791703	1173,483384	59,168	0,346007	22,350000	51,555000
3,795717	1177,821480	59,368	0,347734	22,350000	51,555000
3,799642	1181,403845	59,569	0,349160	22,350000	51,555000
3,803705	1185,308869	59,770	0,350714	22,350000	51,555000
3,807706	1189,498518	59,970	0,352381	22,350000	51,555000
3,811640	1193,021995	60,171	0,353784	22,350000	51,555000
3,815666	1197,475414	60,371	0,355556	22,350000	51,555000
3,819640	1203,160578	60,572	0,357819	22,360000	51,570000
3,823654	1204,922317	60,773	0,358520	22,360000	51,570000
3,827687	1209,061666	60,973	0,360167	22,360000	51,570000
3,831730	1213,182612	61,174	0,361808	22,360000	51,570000
3,835669	1218,934026	61,374	0,364097	22,360000	51,570000
3,839683	1223,305247	61,575	0,365836	22,360000	51,570000
3,843650	1226,953861	61,775	0,367289	22,360000	51,570000
3,847727	1230,867472	61,976	0,368846	22,360000	51,570000
3,851646	1233,494131	62,177	0,369892	22,360000	51,570000
3,855667	1237,076496	62,377	0,371317	22,360000	51,570000
3,859650	1241,132420	62,578	0,372932	22,350000	51,555000
3,863688	1246,882606	62,778	0,375220	22,350000	51,555000
3,867655	1250,165623	62,980	0,376527	22,350000	51,555000
3,871681	1253,772525	63,181	0,377962	22,350000	51,555000
3,875656	1258,110621	63,383	0,379689	22,350000	51,555000
3,879733	1261,592386	63,584	0,381075	22,350000	51,555000
3,883636	1265,357549	63,786	0,382573	22,350000	51,555000
3,887704	1269,038061	63,987	0,384038	22,350000	51,555000
3,891668	1273,078037	64,188	0,385646	22,350000	51,555000
3,895655	1278,820862	64,388	0,387932	22,350000	51,555000
3,899714	1281,097872	64,590	0,388838	22,350000	51,555000
3,903683	1284,729311	64,792	0,390283	22,350000	51,555000
3,907734	1288,701810	64,993	0,391864	22,350000	51,555000
3,911655	1294,735396	65,194	0,394266	22,350000	51,555000
3,915701	1298,666182	65,394	0,395830	22,350000	51,555000
3,919670	1302,779768	65,594	0,397467	22,350000	51,555000
3,923672	1306,976778	65,794	0,399138	22,350000	51,555000
3,927648	1311,081776	65,994	0,400771	22,350000	51,555000
3,931660	1313,068026	66,194	0,401562	22,350000	51,555000
3,935664	1317,049113	66,432	0,403146	22,350000	51,555000
3,939707	1320,938187	66,632	0,404694	22,350000	51,555000
3,943630	1326,863811	66,833	0,407053	22,350000	51,555000
3,947650	1330,287914	67,034	0,408416	22,350000	51,555000
3,951662	1332,739135	67,234	0,409391	22,350000	51,555000
3,955679	1336,770523	67,434	0,410996	22,350000	51,555000
3,959639	1341,681552	67,634	0,412950	22,350000	51,555000
3,963677	1346,709132	67,834	0,414951	22,350000	51,555000
3,967627	1348,562883	68,034	0,415689	22,350000	51,555000
3,971632	1352,643344	68,236	0,417313	22,350000	51,555000
3,975628	1358,461006	68,436	0,419628	22,350000	51,555000
3,979670	1361,319537	68,637	0,420766	22,350000	51,580000
3,983654	1365,757008	68,838	0,422532	22,350000	51,580000
3,987675	1369,671846	69,038	0,424090	22,350000	51,580000
3,991666	1373,785431	69,238	0,425728	22,350000	51,580000
3,995593	1378,772525	69,438	0,427712	22,350000	51,580000
3,999662	1382,386787	69,638	0,429151	22,350000	51,580000
4,003624	1385,993689	69,838	0,430586	22,350000	51,580000
4,007693	1389,327006	70,038	0,431913	22,350000	51,580000
4,011647	1392,925320	70,238	0,433345	22,350000	51,580000
4,015634	1396,664720	70,439	0,434833	22,350000	51,580000
4,019593	1401,077654	70,639	0,436590	22,350000	51,595000
4,023661	1404,352083	70,839	0,437893	22,350000	51,595000
4,027646	1409,106077	71,040	0,439785	22,350000	51,595000
4,031680	1412,438167	71,241	0,441111	22,350000	51,595000
4,035631	1416,252405	71,443	0,442629	22,350000	51,595000
4,039683	1420,308329	71,645	0,444244	22,350000	51,595000
4,043594	1424,405965	71,846	0,445875	22,350000	51,595000
4,047628	1428,420177	72,046	0,447472	22,350000	51,595000
4,051691	1433,547130	72,247	0,449513	22,350000	51,595000
4,055639	1438,517048	72,447	0,451491	22,350000	51,595000
4,059728	1442,141126	72,649	0,452933	22,350000	51,595000
4,063649	1444,218161	72,849	0,453760	22,350000	51,595000
4,067643	1448,373459	73,049	0,455414	22,350000	51,595000
4,071746	1454,274547	73,250	0,457762	22,350000	51,595000
4,075656	1455,820362	73,451	0,458377	22,350000	51,595000
4,079695	1461,337449	73,652	0,460573	22,350000	51,595000
4,083626	1464,595929	73,853	0,461870	22,350000	51,595000
4,087698	1469,632096	74,053	0,463875	22,350000	51,595000
4,091682	1472,881988	74,254	0,465168	22,350000	51,595000
4,095653	1476,014104	74,454	0,466415	22,350000	51,595000
4,099696	1481,923779	74,654	0,468767	22,350000	51,595000
4,103659	1484,392176	74,854	0,469749	22,350000	51,595000
4,107678	1489,320381	75,054	0,471710	22,350000	51,595000
4,111616	1492,619347	75,255	0,473023	22,350000	51,595000
4,115726	1497,197904	75,456	0,474846	22,350000	51,595000
4,115627	1497,813776	75,656	0,475091	22,350000	51,595000
4,115610	1497,822364	75,857	0,475094	22,350000	51,595000
4,115627	1497,713175	76,058	0,475051	22,350000	51,595000
4,115691	1497,763476	76,259	0,475071	22,350000	51,595000
4,115654	1497,754888	76,460	0,475067	22,360000	51,560000
4,115617	1497,446952	76,661	0,474945	22,360000	51,560000
4,115601	1497,697226	76,861	0,475044	22,360000	51,560000
4,115659	1497,805188	77,062	0,475087	22,360000	51,560000
4,115589	1497,314453	77,262	0,474892	22,360000	51,560000
4,115579	1497,439591	77,462	0,474942	22,360000	51,560000
4,115641	1497,613801	77,662	0,475011	22,360000	51,560000
4,115646	1497,289916	77,863	0,474882	22,360000	51,560000
4,115596	1497,422415	78,063	0,474935	22,360000	51,560000
4,115620	1497,089942	78,263	0,474803	22,360000	51,560000
4,115600	1496,990568	78,463	0,474763	22,350000	51,555000
4,115618	1497,006517	78,663	0,474770	22,350000	51,555000
4,115597	1496,999156	78,863	0,474767	22,350000	51,555000
4,115639	1496,849482	79,063	0,474707	22,350000	51,555000
4,115660	1496,932907	79,266	0,474740	22,350000	51,555000
4,115636	1497,231028	79,467	0,474859	22,350000	51,555000
4,115630	1496,716983	79,668	0,474654	22,350000	51,555000
4,115666	1496,741520	79,870	0,474664	22,350000	51,555000
4,115650	1496,391871	80,071	0,474525	22,350000	51,555000
4,115620	1496,334210	80,272	0,474502	22,350000	51,555000
4,115647	1496,325622	80,473	0,474499	22,350000	51,565000
4,115641	1496,317034	80,674	0,474495	22,350000	51,565000
4,115617	1496,417635	80,874	0,474535	22,350000	51,565000
4,115599	1496,292498	81,075	0,474485	22,350000	51,565000
4,115645	1496,483884	81,275	0,474562	22,350000	51,565000
4,115680	1496,175948	81,475	0,474439	22,350000	51,565000
4,115618	1496,424996	81,676	0,474538	22,350000	51,565000
4,115619	1496,259373	81,877	0,474472	22,350000	51,565000
4,115655	1496,358747	82,077	0,474512	22,350000	51,565000
4,115654	1495,868012	82,278	0,474316	22,350000	51,565000
4,115655	1495,918312	82,478	0,474336	22,350000	51,540000
4,115652	1495,951437	82,678	0,474350	22,350000	51,540000
4,115634	1496,026274	82,878	0,474379	22,350000	51,540000
4,115589	1496,092523	83,080	0,474406	22,350000	51,540000
4,115639	1495,843475	83,280	0,474307	22,350000	51,540000
4,115637	1496,134236	83,480	0,474422	22,350000	51,540000
4,115661	1495,984561	83,680	0,474363	22,350000	51,540000
4,115598	1495,827526	83,881	0,474300	22,350000	51,540000
4,115668	1496,134236	84,081	0,474422	22,350000	51,540000
4,115622	1495,836114	84,283	0,474304	22,350000	51,540000
4,115623	1495,926900	84,484	0,474340	22,360000	51,570000
4,115605	1495,636140	84,685	0,474224	22,360000	51,570000
4,115638	1495,909724	84,886	0,474333	22,360000	51,570000
4,115666	1495,752689	85,087	0,474271	22,360000	51,570000
4,115620	1495,611603	85,288	0,474214	22,360000	51,570000
4,115681	1495,603015	85,488	0,474211	22,360000	51,570000
4,111646	1493,425379	85,689	0,473344	22,360000	51,570000
4,107628	1488,505761	85,889	0,471386	22,360000	51,570000
4,103629	1484,749185	86,089	0,469891	22,360000	51,570000
4,099598	1481,225709	86,289	0,468489	22,360000	51,570000
4,095648	1476,861848	86,490	0,466752	22,360000	51,570000
4,091615	1472,483266	86,690	0,465009	22,360000	51,570000
4,087707	1468,718102	86,890	0,463511	22,360000	51,570000
4,083632	1464,562804	87,090	0,461857	22,360000	51,570000
4,079616	1460,324081	87,290	0,460170	22,360000	51,570000
4,075624	1454,340796	87,492	0,457789	22,360000	51,570000
4,071671	1450,716718	87,693	0,456346	22,360000	51,570000
4,067693	1448,448296	87,895	0,455443	22,360000	51,570000
4,063627	1444,101612	88,095	0,453713	22,360000	51,570000
4,059642	1438,068026	88,297	0,451312	22,360000	51,570000
4,055562	1435,857265	88,497	0,450432	22,350000	51,580000
4,051678	1431,935066	88,698	0,448871	22,350000	51,580000
4,047657	1425,560419	88,898	0,446334	22,350000	51,580000
4,043645	1423,840393	89,099	0,445649	22,350000	51,580000
4,039648	1418,014143	89,300	0,443331	22,350000	51,580000
4,035681	1415,928520	89,500	0,442500	22,350000	51,580000
4,031630	1410,112084	89,700	0,440186	22,350000	51,580000
4,027628	1406,886729	89,901	0,438902	22,350000	51,580000
4,023607	1402,449258	90,101	0,437136	22,350000	51,580000
4,019655	1399,490126	90,301	0,435958	22,350000	51,580000
4,015714	1392,958445	90,502	0,433358	22,350000	51,540000
4,011662	1391,029856	90,703	0,432591	22,350000	51,540000
4,007650	1387,440130	90,903	0,431162	22,350000	51,540000
4,003675	1382,745024	91,103	0,429293	22,350000	51,540000
3,999587	1378,863311	91,303	0,427749	22,350000	51,540000
3,995693	1374,923936	91,503	0,426181	22,350000	51,540000
3,991616	1369,398261	91,703	0,423981	22,350000	51,540000
3,987627	1365,591385	91,903	0,422466	22,350000	51,540000
3,983640	1363,156113	92,103	0,421497	22,350000	51,540000
3,979693	1357,712635	92,304	0,419331	22,350000	51,540000
3,975650	1354,446795	92,504	0,418031	22,350000	51,565000
3,971638	1350,707394	92,704	0,416542	22,350000	51,565000
3,967687	1346,219624	92,904	0,414756	22,350000	51,565000
3,963682	1341,890115	93,104	0,413033	22,350000	51,565000
3,959677	1338,673347	93,304	0,411753	22,350000	51,565000
3,955641	1332,564924	93,505	0,409322	22,350000	51,565000
3,951611	1330,270738	93,706	0,408409	22,350000	51,565000
3,947630	1326,414789	93,908	0,406874	22,350000	51,565000
3,943704	1320,589765	94,109	0,404556	22,350000	51,565000
3,939698	1317,996231	94,309	0,403523	22,350000	51,565000
3,935715	1312,453380	94,509	0,401317	22,350000	51,580000
3,931640	1308,131232	94,710	0,399597	22,350000	51,580000
3,927677	1304,342759	94,912	0,398089	22,350000	51,580000
3,923612	1300,319959	95,112	0,396488	22,350000	51,580000
3,919647	1298,117786	95,312	0,395612	22,350000	51,580000
3,915619	1293,870475	95,513	0,393921	22,350000	51,580000
3,911619	1289,748302	95,714	0,392281	22,350000	51,580000
3,907673	1286,075151	95,914	0,390819	22,350000	51,580000
3,903672	1279,950779	96,115	0,388381	22,350000	51,580000
3,899651	1275,687520	96,315	0,386685	22,350000	51,580000
3,895679	1271,980017	96,516	0,385209	22,350000	51,580000
3,891644	1268,315454	96,717	0,383750	22,350000	51,580000
3,887665	1264,576054	96,917	0,382262	22,350000	51,580000
3,883691	1260,220782	97,117	0,380529	22,350000	51,580000
3,879721	1256,514506	97,318	0,379054	22,350000	51,580000
3,875713	1253,165240	97,519	0,377721	22,350000	51,580000
3,871720	1248,520434	97,719	0,375872	22,350000	51,580000
3,867654	1244,971194	97,920	0,374459	22,350000	51,580000
3,863701	1240,857608	98,120	0,372822	22,350000	51,580000
3,859627	1236,277825	98,320	0,371000	22,350000	51,580000
3,855650	1232,613262	98,520	0,369541	22,350000	51,580000
3,851643	1228,341414	98,721	0,367841	22,350000	51,580000
3,847688	1225,233835	98,921	0,366604	22,350000	51,580000
3,843718	1220,330166	99,121	0,364652	22,350000	51,580000
3,839712	1216,399380	99,321	0,363088	22,350000	51,580000
3,835693	1212,875903	99,521	0,361686	22,350000	51,580000
3,831621	1208,579519	99,721	0,359976	22,350000	51,580000
3,827681	1205,030278	99,923	0,358563	22,350000	51,580000
3,823755	1200,716718	100,124	0,356846	22,350000	51,580000
3,819693	1196,893893	100,325	0,355325	22,350000	51,580000
3,815720	1193,046531	100,526	0,353793	22,350000	51,555000
3,811700	1188,891234	100,726	0,352140	22,350000	51,555000
3,807697	1184,927322	100,927	0,350562	22,350000	51,555000
3,803673	1180,646887	101,128	0,348858	22,350000	51,555000
3,799694	1174,771563	101,328	0,346520	22,350000	51,555000
3,795670	1170,940150	101,529	0,344995	22,350000	51,555000
3,791719	1166,676890	101,729	0,343298	22,350000	51,555000
3,787681	1162,671266	101,930	0,341704	22,350000	51,555000
3,783685	1158,482844	102,131	0,340037	22,350000	51,555000
3,779660	1154,660019	102,331	0,338516	22,350000	51,555000
3,775704	1152,041948	102,531	0,337474	22,350000	51,555000
3,771634	1148,335673	102,731	0,335999	22,350000	51,555000
3,767685	1142,500834	102,932	0,333676	22,350000	51,555000
3,763712	1138,595811	103,132	0,332122	22,350000	51,555000
3,759689	1135,112820	103,333	0,330736	22,350000	51,555000
3,755702	1130,534263	103,533	0,328914	22,350000	51,555000
3,751725	1126,645189	103,733	0,327366	22,350000	51,555000
3,747671	1122,123067	103,933	0,325566	22,350000	51,555000
3,743720	1119,971194	104,133	0,324709	22,350000	51,555000
3,739730	1115,133774	104,334	0,322784	22,350000	51,555000
3,735665	1111,112202	104,535	0,321184	22,350000	51,580000
3,731731	1107,837773	104,735	0,319880	22,350000	51,580000
3,727710	1103,591689	104,936	0,318190	22,350000	51,580000
3,723685	1099,078154	105,136	0,316394	22,350000	51,580000
3,719627	1094,856607	105,336	0,314714	22,350000	51,580000
3,715689	1089,862153	105,536	0,312726	22,350000	51,580000
3,711630	1087,592504	105,736	0,311823	22,350000	51,580000
3,707746	1081,950279	105,937	0,309577	22,350000	51,580000
3,703684	1079,979978	106,137	0,308793	22,350000	51,580000
3,699706	1075,526559	106,338	0,307021	22,350000	51,580000
3,695747	1072,001855	106,538	0,305618	22,350000	51,555000
3,691675	1067,938570	106,740	0,304000	22,350000	51,555000
3,687632	1061,614223	106,941	0,301483	22,350000	51,555000
3,683670	1057,350964	107,141	0,299787	22,350000	51,555000
3,679708	1053,536727	107,342	0,298269	22,350000	51,555000
3,675752	1049,663601	107,543	0,296727	22,350000	51,555000
3,671696	1047,503141	107,744	0,295867	22,350000	51,555000
3,667691	1043,471753	107,944	0,294263	22,350000	51,555000
3,663682	1039,433005	108,146	0,292655	22,350000	51,555000
3,659696	1034,304825	108,347	0,290614	22,350000	51,555000
3,655705	1029,493169	108,547	0,288699	22,350000	51,580000
3,651709	1026,335290	108,747	0,287442	22,350000	51,580000
3,647680	1021,715020	108,947	0,285604	22,350000	51,580000
3,643683	1019,537384	109,147	0,284737	22,350000	51,580000
3,639761	1015,282712	109,347	0,283043	22,350000	51,580000
3,635637	1009,373037	109,549	0,280691	22,350000	51,580000
3,631663	1005,616461	109,749	0,279196	22,350000	51,580000
3,627727	1001,760512	109,950	0,277662	22,350000	51,580000
3,623746	998,228447	110,150	0,276256	22,350000	51,580000
3,619709	994,913533	110,350	0,274937	22,350000	51,580000
3,615661	990,915270	110,550	0,273345	22,350000	51,580000
3,611676	985,920815	110,750	0,271357	22,350000	51,580000
3,607731	981,840354	110,950	0,269733	22,350000	51,580000
3,603740	977,385708	111,150	0,267960	22,350000	51,580000
3,599713	974,335790	111,351	0,266747	22,350000	51,580000
3,595727	968,767176	111,551	0,264530	22,350000	51,580000
3,591711	966,507341	111,751	0,263631	22,350000	51,580000
3,587753	963,116363	111,951	0,262281	22,350000	51,580000
3,583683	959,401500	112,151	0,260803	22,350000	51,580000
3,579698	954,781230	112,352	0,258964	22,350000	51,580000
3,575725	950,775607	112,552	0,257370	22,350000	51,580000
3,571699	946,810468	112,753	0,255792	22,350000	51,580000
3,567771	942,647809	112,953	0,254135	22,350000	51,580000
3,563662	938,908409	113,154	0,252646	22,350000	51,580000
3,559781	934,436587	113,354	0,250867	22,350000	51,580000
3,555684	929,050771	113,554	0,248723	22,350000	51,580000
3,551701	924,987486	113,756	0,247106	22,350000	51,580000
3,547750	923,042949	113,957	0,246332	22,350000	51,580000
3,543748	918,971076	114,157	0,244711	22,350000	51,580000
3,539717	915,082002	114,357	0,243164	22,350000	51,580000
3,535725	908,756429	114,557	0,240646	22,350000	51,595000
3,531729	904,675968	114,757	0,239022	22,350000	51,595000
3,527691	902,748606	114,957	0,238255	22,350000	51,595000
3,523707	896,798445	115,157	0,235887	22,350000	51,595000
3,519748	892,676272	115,358	0,234246	22,350000	51,595000
3,515758	890,556297	115,558	0,233402	22,350000	51,595000
3,511690	884,473638	115,760	0,230981	22,350000	51,595000
3,507705	882,653011	115,960	0,230257	22,350000	51,595000
3,503737	878,647387	116,160	0,228663	22,350000	51,595000
3,499762	874,766901	116,361	0,227118	22,350000	51,595000
3,495777	869,074376	116,562	0,224853	22,360000	51,600000
3,491718	864,644266	116,763	0,223089	22,360000	51,600000
3,487693	861,826221	116,964	0,221968	22,360000	51,600000
3,483792	858,485543	117,164	0,220638	22,360000	51,600000
3,479754	852,918155	117,364	0,218422	22,360000	51,600000
3,475769	848,371496	117,564	0,216613	22,360000	51,600000
3,471753	846,228211	117,765	0,215760	22,360000	51,600000
3,467734	841,565003	117,967	0,213904	22,360000	51,600000
3,463733	838,798485	118,168	0,212803	22,360000	51,600000
3,459738	834,634599	118,368	0,211146	22,360000	51,600000
3,455739	830,421639	118,569	0,209469	22,350000	51,555000
3,451747	824,570852	118,770	0,207140	22,350000	51,555000
3,447736	822,342916	118,970	0,206253	22,350000	51,555000
3,443749	818,345880	119,172	0,204663	22,350000	51,555000
3,439671	812,660716	119,373	0,202400	22,350000	51,555000
3,435712	808,987565	119,574	0,200938	22,350000	51,555000
3,431763	806,436970	119,775	0,199923	22,350000	51,555000
3,427758	800,029199	119,975	0,197373	22,350000	51,555000
3,423802	798,483384	120,176	0,196757	22,350000	51,555000
3,419718	792,242462	120,377	0,194273	22,350000	51,555000
3,415731	788,294500	120,577	0,192702	22,350000	51,565000
3,411726	786,250589	120,777	0,191889	22,350000	51,565000
3,407775	782,617924	120,978	0,190443	22,350000	51,565000
3,403754	776,202791	121,178	0,187890	22,350000	51,565000
3,399715	772,529640	121,379	0,186428	22,350000	51,565000
3,395710	770,726190	121,580	0,185710	22,350000	51,565000
3,391815	764,917115	121,780	0,183398	22,350000	51,565000
3,387723	759,997497	121,980	0,181440	22,350000	51,565000
3,383738	757,154915	122,181	0,180309	22,350000	51,565000
3,379784	752,783694	122,381	0,178569	22,350000	51,565000
3,375772	748,419834	122,581	0,176832	22,350000	51,565000
3,371793	745,893776	122,781	0,175827	22,350000	51,565000
3,367741	742,194861	122,982	0,174354	22,350000	51,565000
3,363796	736,145326	123,185	0,171947	22,350000	51,565000
3,359777	732,480763	123,386	0,170488	22,350000	51,565000
3,355763	729,695842	123,586	0,169380	22,350000	51,565000
3,351792	725,806768	123,786	0,167832	22,350000	51,565000
3,347778	720,197668	123,987	0,165600	22,350000	51,565000
3,343779	717,828645	124,187	0,164657	22,350000	51,565000
3,339760	712,045334	124,387	0,162355	22,350000	51,565000
3,335775	709,825985	124,587	0,161472	22,350000	51,580000
3,331740	706,177371	124,788	0,160020	22,350000	51,580000
3,327746	702,337370	124,988	0,158491	22,350000	51,580000
3,323743	695,997075	125,188	0,155968	22,350000	51,580000
3,319801	691,965688	125,388	0,154363	22,350000	51,580000
3,315785	687,994415	125,588	0,152783	22,350000	51,580000
3,311819	686,323463	125,788	0,152118	22,350000	51,580000
3,307762	680,032241	125,989	0,149614	22,350000	51,580000
3,303756	677,979742	126,189	0,148797	22,350000	51,580000
3,299735	671,554795	126,390	0,146240	22,350000	51,580000
3,295781	668,247242	126,591	0,144923	22,350000	51,595000
3,291744	665,688059	126,792	0,143905	22,350000	51,595000
3,287754	662,246781	126,993	0,142535	22,350000	51,595000
3,283824	656,272083	127,194	0,140157	22,350000	51,595000
3,279784	652,548632	127,394	0,138675	22,350000	51,595000
3,275833	648,210535	127,594	0,136949	22,350000	51,595000
3,271796	644,047876	127,795	0,135292	22,350000	51,595000
3,267795	642,335211	127,996	0,134610	22,350000	51,595000
3,263773	636,459887	128,197	0,132272	22,350000	51,595000
3,259791	632,054315	128,397	0,130519	22,350000	51,595000
3,255813	629,860729	128,598	0,129646	22,350000	51,620000
3,251822	624,002581	128,799	0,127314	22,350000	51,620000
3,247761	621,766057	128,999	0,126424	22,350000	51,620000
3,243776	617,960408	129,200	0,124909	22,350000	51,620000
3,239808	613,954784	129,401	0,123315	22,350000	51,620000
3,235837	608,194783	129,602	0,121022	22,350000	51,620000
3,231793	605,851523	129,802	0,120090	22,350000	51,620000
3,227841	600,366334	130,003	0,117907	22,350000	51,620000
3,223759	598,122448	130,204	0,117014	22,350000	51,620000
3,219803	594,175713	130,405	0,115443	22,350000	51,620000
3,215856	587,999814	130,606	0,112985	22,350000	51,595000
3,211798	584,136503	130,806	0,111447	22,350000	51,595000
3,207816	582,025116	131,007	0,110607	22,350000	51,595000
3,203745	576,780386	131,207	0,108520	22,350000	51,595000
3,199822	573,913268	131,407	0,107378	22,350000	51,595000
3,195743	567,780308	131,607	0,104938	22,350000	51,595000
3,191695	564,174633	131,807	0,103502	22,350000	51,595000
3,187760	561,871859	132,007	0,102586	22,350000	51,595000
3,183819	555,963411	132,207	0,100234	22,350000	51,595000
3,179752	554,276510	132,407	0,099563	22,350000	51,595000
3,175779	549,987486	132,607	0,097856	22,350000	51,580000
3,171790	545,924201	132,808	0,096239	22,350000	51,580000
3,167842	542,125913	133,009	0,094727	22,350000	51,580000
3,163792	537,488468	133,210	0,092881	22,350000	51,580000
3,159837	532,252326	133,411	0,090797	22,350000	51,580000
3,155801	530,457463	133,612	0,090083	22,350000	51,580000
3,151754	525,812657	133,812	0,088234	22,350000	51,580000
3,147824	519,920157	134,012	0,085889	22,350000	51,580000
3,143890	515,897358	134,212	0,084288	22,350000	51,580000
3,139781	513,827683	134,412	0,083464	22,350000	51,580000
3,135784	509,116628	134,612	0,081589	22,350000	51,580000
3,131811	505,849560	134,812	0,080289	22,350000	51,580000
3,127856	500,264997	135,012	0,078066	22,350000	51,580000
3,123847	497,456766	135,214	0,076949	22,350000	51,580000
3,119828	493,284293	135,414	0,075288	22,350000	51,580000
3,115805	489,635678	135,616	0,073836	22,350000	51,580000
3,111791	485,239920	135,816	0,072086	22,350000	51,580000
3,107816	480,294539	136,018	0,070118	22,350000	51,580000
3,103826	478,083778	136,219	0,069238	22,350000	51,580000
3,099788	472,117668	136,419	0,066864	22,350000	51,580000
3,095765	469,898320	136,619	0,065980	22,360000	51,585000
3,091816	463,989871	136,820	0,063629	22,360000	51,585000
3,087798	461,836772	137,020	0,062772	22,360000	51,585000
3,083810	456,750304	137,220	0,060748	22,360000	51,585000
3,079840	454,332208	137,420	0,059785	22,360000	51,585000
3,075836	448,855606	137,622	0,057605	22,360000	51,585000
3,071784	446,080500	137,822	0,056501	22,360000	51,585000
3,067791	441,766940	138,022	0,054784	22,360000	51,585000
3,063791	438,085201	138,222	0,053319	22,360000	51,585000
3,059818	434,419412	138,422	0,051860	22,360000	51,585000
3,055806	428,061941	138,624	0,049330	22,350000	51,595000
3,051816	424,613301	138,824	0,047957	22,350000	51,595000
3,047820	419,876482	139,024	0,046072	22,350000	51,595000
3,043829	417,682897	139,225	0,045199	22,350000	51,595000
3,039813	414,225669	139,425	0,043823	22,350000	51,595000
3,035829	410,086320	139,626	0,042175	22,350000	51,595000
3,031843	406,155534	139,827	0,040611	22,350000	51,595000
3,027811	400,812657	140,027	0,038484	22,350000	51,595000
3,023845	396,140861	140,228	0,036625	22,350000	51,595000
3,019837	393,000157	140,428	0,035375	22,350000	51,595000
3,015788	389,152795	140,629	0,033844	22,350000	51,595000
3,011894	385,561842	140,830	0,032415	22,350000	51,595000
3,007834	382,130378	141,031	0,031049	22,350000	51,595000
3,003866	376,046492	141,232	0,028627	22,350000	51,595000
2,999832	373,778070	141,433	0,027725	22,350000	51,595000
2,995829	370,079156	141,633	0,026252	22,350000	51,595000
2,991835	365,982746	141,835	0,024622	22,350000	51,595000
2,987855	362,466630	142,035	0,023223	22,350000	51,595000
2,983843	358,568968	142,235	0,021671	22,350000	51,595000
2,979778	352,277746	142,435	0,019167	22,350000	51,595000
2,975803	350,374921	142,637	0,018410	22,360000	51,570000
2,971851	344,541310	142,837	0,016088	22,360000	51,570000
2,967837	340,568811	143,037	0,014507	22,360000	51,570000
2,963826	338,490548	143,238	0,013680	22,360000	51,570000
2,959786	334,385551	143,438	0,012046	22,360000	51,570000
2,955838	330,279326	143,638	0,010412	22,360000	51,570000
2,951804	324,287453	143,838	0,008027	22,360000	51,570000
2,947821	322,276667	144,038	0,007227	22,360000	51,570000
2,943869	318,553215	144,239	0,005745	22,360000	51,570000
2,939838	314,489930	144,440	0,004128	22,360000	51,570000
2,935826	310,641341	144,640	0,002596	22,360000	51,570000
2,931768	306,337596	144,841	0,000883	22,360000	51,570000
2,927826	300,229173	145,042	-0,001548	22,360000	51,570000
2,923873	296,497134	145,243	-0,003033	22,360000	51,570000
2,919869	293,480341	145,443	-0,004234	22,360000	51,570000
2,915852	290,414475	145,643	-0,005454	22,360000	51,570000
2,911871	285,427381	145,843	-0,007439	22,360000	51,570000
2,907844	281,023035	146,043	-0,009192	22,360000	51,570000
2,903800	277,665181	146,245	-0,010528	22,360000	51,570000
2,899865	273,210535	146,446	-0,012301	22,360000	51,570000
2,895820	269,512847	146,647	-0,013773	22,350000	51,595000
2,891812	264,593230	146,848	-0,015731	22,350000	51,595000
2,887831	262,764015	147,048	-0,016459	22,350000	51,595000
2,883831	258,027197	147,250	-0,018344	22,350000	51,595000
2,879832	254,312333	147,450	-0,019823	22,350000	51,595000
2,875801	250,315297	147,650	-0,021414	22,350000	51,595000
2,871848	246,783233	147,850	-0,022819	22,350000	51,595000
2,867868	242,486848	148,050	-0,024529	22,350000	51,595000
2,863853	238,754809	148,250	-0,026015	22,350000	51,595000
2,859827	234,541850	148,450	-0,027691	22,350000	51,595000
2,855882	230,576712	148,650	-0,029270	22,350000	51,580000
2,851856	227,087586	148,851	-0,030658	22,350000	51,580000
2,847830	222,989950	149,051	-0,032289	22,350000	51,580000
2,843780	218,967150	149,252	-0,033890	22,350000	51,580000
2,839798	215,377424	149,452	-0,035319	22,350000	51,580000
2,835822	211,263839	149,653	-0,036956	22,350000	51,580000
2,831866	206,908566	149,853	-0,038689	22,350000	51,580000
2,827869	200,982942	150,053	-0,041048	22,350000	51,580000
2,823841	199,529140	150,255	-0,041626	22,350000	51,580000
2,819856	195,090442	150,456	-0,043393	22,350000	51,580000
2,815844	189,489930	150,657	-0,045622	22,340000	51,580000
2,811814	185,301508	150,857	-0,047289	22,340000	51,580000
2,807831	181,553520	151,058	-0,048781	22,340000	51,580000
2,803796	179,550094	151,259	-0,049578	22,340000	51,580000
2,799818	174,090668	151,461	-0,051751	22,340000	51,580000
2,795835	170,416290	151,662	-0,053213	22,340000	51,580000
2,791882	166,568929	151,862	-0,054745	22,340000	51,580000
2,787842	161,856647	152,063	-0,056620	22,340000	51,580000
2,783791	158,765016	152,263	-0,057851	22,340000	51,580000
2,779858	154,318958	152,464	-0,059620	22,340000	51,580000
2,775855	150,795481	152,665	-0,061022	22,340000	51,580000
2,771863	146,723608	152,865	-0,062643	22,340000	51,580000
2,767828	142,967032	153,065	-0,064138	22,340000	51,580000
2,763845	138,695185	153,265	-0,065838	22,340000	51,580000
2,759849	135,096871	153,465	-0,067271	22,340000	51,580000
2,755855	131,140321	153,666	-0,068845	22,340000	51,580000
2,751803	127,418096	153,867	-0,070327	22,340000	51,580000
2,747822	123,686057	154,068	-0,071812	22,340000	51,580000
2,743846	119,788395	154,269	-0,073363	22,340000	51,580000
2,739887	113,580598	154,470	-0,075834	22,360000	51,585000
2,735797	112,026195	154,670	-0,076453	22,360000	51,585000
2,731914	107,978859	154,873	-0,078063	22,360000	51,585000
2,727853	103,973235	155,073	-0,079658	22,360000	51,585000
2,723880	99,718564	155,274	-0,081351	22,360000	51,585000
2,719864	96,161962	155,476	-0,082767	22,360000	51,585000
2,715840	89,844977	155,676	-0,085281	22,360000	51,585000
2,711815	86,164465	155,876	-0,086746	22,360000	51,585000
2,707884	84,235877	156,077	-0,087513	22,360000	51,585000
2,703811	80,413052	156,277	-0,089035	22,360000	51,585000
2,699844	75,385472	156,478	-0,091036	22,350000	51,595000
2,695821	70,647427	156,678	-0,092921	22,350000	51,595000
2,691836	66,500716	156,879	-0,094572	22,350000	51,595000
2,687827	63,043489	157,080	-0,095948	22,350000	51,595000
2,683795	60,259795	157,280	-0,097056	22,350000	51,595000
2,679865	55,772024	157,480	-0,098842	22,350000	51,595000
2,675828	50,702732	157,680	-0,100859	22,350000	51,595000
2,671861	46,904444	157,880	-0,102371	22,350000	51,595000
2,667857	43,414092	158,081	-0,103760	22,350000	51,595000
2,663878	39,558142	158,281	-0,105295	22,350000	51,595000
2,659872	35,710780	158,481	-0,106826	22,350000	51,565000
2,655823	32,103879	158,681	-0,108262	22,350000	51,565000
2,651860	27,158498	158,882	-0,110230	22,350000	51,565000
2,647847	23,327085	159,082	-0,111755	22,350000	51,565000
2,643810	19,453959	159,283	-0,113296	22,350000	51,565000
2,639835	15,881409	159,483	-0,114718	22,350000	51,565000
2,635824	11,592386	159,683	-0,116425	22,350000	51,565000
2,631861	7,694724	159,883	-0,117977	22,350000	51,565000
2,627839	3,889074	160,083	-0,119491	22,350000	51,565000
2,623862	-0,449022	160,284	-0,121218	22,350000	51,565000
2,619896	-3,848589	160,485	-0,122571	22,360000	51,545000
2,615811	-8,286059	160,687	-0,124337	22,360000	51,545000