File: Nanoindentation Datenauswertung/data/S_calib/S_calib_0809-1
Quasi static measurement routine
Tip parameters (shape,radius, material...)
08.09.2022

Piezo position[nm]	MEMS displ.[nm]	Time[ms]	Cap [pf]	Temp [°C]	Rh [%]
eoh
2,339850	-0,481289	0,216	-0,063023	22,490000	54,590000
2,344876	3,884108	0,967	-0,061194	22,490000	54,590000
2,349910	9,402036	1,718	-0,058882	22,490000	54,590000
2,354920	14,169479	2,470	-0,056885	22,490000	54,590000
2,359938	19,513770	3,221	-0,054646	22,490000	54,590000
2,364923	24,771825	3,974	-0,052442	22,480000	54,590000
2,369926	30,486696	4,725	-0,050048	22,480000	54,590000
2,374857	34,765858	5,478	-0,048255	22,480000	54,605000
2,379915	39,794339	6,230	-0,046148	22,480000	54,605000
2,384929	45,272645	6,984	-0,043853	22,480000	54,605000
2,389897	49,401477	7,735	-0,042123	22,480000	54,565000
2,394925	54,263313	8,487	-0,040085	22,480000	54,565000
2,399898	59,726469	9,237	-0,037796	22,480000	54,565000
2,404923	65,355105	9,988	-0,035438	22,480000	54,565000
2,409884	70,486137	10,738	-0,033288	22,480000	54,565000
2,414907	74,843377	11,490	-0,031462	22,490000	54,565000
2,419890	80,275069	12,242	-0,029187	22,490000	54,565000
2,424876	84,901505	12,995	-0,027248	22,490000	54,565000
2,429920	89,827435	13,746	-0,025184	22,490000	54,575000
2,434916	94,547099	14,496	-0,023207	22,490000	54,575000
2,439977	100,127955	15,247	-0,020868	22,490000	54,575000
2,444969	104,541132	15,999	-0,019019	22,490000	54,605000
2,449891	110,311941	16,749	-0,016601	22,490000	54,605000
2,454874	115,016455	17,500	-0,014630	22,490000	54,575000
2,459956	121,166002	18,252	-0,012053	22,490000	54,575000
2,464916	125,808752	19,002	-0,010108	22,490000	54,575000
2,469926	130,860540	19,755	-0,007991	22,490000	54,575000
2,474887	135,035986	20,507	-0,006242	22,490000	54,575000
2,479919	140,104089	21,259	-0,004118	22,490000	54,575000
2,484924	145,038177	22,009	-0,002051	22,480000	54,575000
2,489975	150,982622	22,759	0,000440	22,480000	54,575000
2,494935	155,158068	23,509	0,002189	22,480000	54,590000
2,499922	160,226171	24,260	0,004313	22,480000	54,590000
2,504848	166,651906	25,012	0,007005	22,480000	54,590000
2,509907	170,804044	25,762	0,008745	22,480000	54,590000
2,514896	175,129820	26,514	0,010558	22,480000	54,590000
2,519887	180,584819	27,265	0,012843	22,480000	54,590000
2,524888	186,284541	28,015	0,015231	22,490000	54,605000
2,529905	191,028677	28,766	0,017219	22,490000	54,605000
2,534913	195,268217	29,517	0,018996	22,490000	54,605000
2,539890	201,559936	30,268	0,021632	22,490000	54,605000
2,544897	206,178214	31,019	0,023567	22,490000	54,605000
2,549884	211,679827	31,772	0,025872	22,480000	54,590000
2,554915	216,913410	32,522	0,028065	22,480000	54,590000
2,559953	220,987470	33,274	0,029772	22,480000	54,590000
2,564968	226,923758	34,026	0,032259	22,490000	54,615000
2,569873	230,957031	34,779	0,033949	22,490000	54,615000
2,574895	237,004027	35,530	0,036483	22,490000	54,615000
2,579936	241,069930	36,284	0,038187	22,490000	54,615000
2,584924	246,343135	37,034	0,040396	22,490000	54,615000
2,589902	250,984720	37,784	0,042341	22,480000	54,590000
2,594944	257,544470	38,535	0,045089	22,480000	54,590000
2,599957	262,367849	39,287	0,047110	22,480000	54,590000
2,604927	266,228651	40,037	0,048728	22,490000	54,605000
2,609919	272,171931	40,789	0,051218	22,490000	54,605000
2,614885	277,580316	41,540	0,053484	22,480000	54,605000
2,619906	282,481774	42,292	0,055538	22,480000	54,605000
2,624939	287,510255	43,044	0,057645	22,480000	54,605000
2,629882	292,500280	43,794	0,059736	22,480000	54,605000
2,634895	296,462466	44,546	0,061396	22,480000	54,605000
2,639897	302,304361	45,298	0,063844	22,480000	54,605000
2,644925	306,835238	46,048	0,065742	22,490000	54,590000
2,649929	311,564225	46,802	0,067724	22,490000	54,590000
2,654887	316,789650	47,552	0,069913	22,500000	54,620000
2,659951	322,505687	48,305	0,072308	22,500000	54,620000
2,664874	326,808156	49,057	0,074111	22,500000	54,620000
2,669904	332,017266	49,808	0,076293	22,480000	54,575000
2,674907	336,825496	50,560	0,078308	22,480000	54,575000
2,679938	342,050921	51,310	0,080498	22,480000	54,575000
2,684915	348,350798	52,060	0,083137	22,480000	54,575000
2,689892	352,368922	52,812	0,084821	22,480000	54,575000
2,694888	356,868334	53,562	0,086706	22,480000	54,590000
2,699904	361,801257	54,312	0,088773	22,480000	54,590000
2,704877	367,990425	55,064	0,091366	22,480000	54,590000
2,709887	372,932671	55,818	0,093437	22,500000	54,580000
2,714921	378,166253	56,570	0,095630	22,500000	54,580000
2,719881	382,602737	57,323	0,097489	22,500000	54,580000
2,724856	387,986650	58,075	0,099745	22,490000	54,615000
2,729880	393,110690	58,827	0,101892	22,490000	54,615000
2,734872	397,752275	59,578	0,103836	22,490000	54,615000
2,739865	403,009164	60,331	0,106039	22,490000	54,615000
2,744888	407,399034	61,083	0,107878	22,490000	54,615000
2,749868	412,963576	61,834	0,110210	22,480000	54,605000
2,754852	418,126072	62,585	0,112373	22,480000	54,605000
2,759852	423,217482	63,336	0,114506	22,480000	54,605000
2,764881	427,567730	64,086	0,116329	22,480000	54,575000
2,769899	432,895706	64,838	0,118562	22,480000	54,575000
2,774922	438,690987	65,588	0,120990	22,480000	54,590000
2,779925	442,558780	66,339	0,122610	22,480000	54,590000
2,784872	448,629083	67,092	0,125154	22,480000	54,590000
2,789926	452,599428	67,842	0,126817	22,490000	54,565000
2,794910	457,660538	68,594	0,128938	22,490000	54,565000
2,799881	463,517583	69,347	0,131392	22,490000	54,565000
2,804867	468,111389	70,100	0,133317	22,480000	54,565000
2,809892	473,273885	70,852	0,135480	22,480000	54,565000
2,814902	478,737041	71,603	0,137769	22,480000	54,575000
2,819941	482,865873	72,354	0,139499	22,480000	54,575000
2,824888	487,871047	73,105	0,141596	22,480000	54,575000
2,829922	492,820285	73,855	0,143670	22,480000	54,550000
2,834943	497,658814	74,607	0,145697	22,480000	54,550000
2,839841	503,943541	75,359	0,148331	22,480000	54,550000
2,844885	508,798385	76,110	0,150365	22,480000	54,550000
2,849893	514,031968	76,863	0,152558	22,480000	54,550000
2,854928	517,916076	77,614	0,154185	22,490000	54,575000
2,859876	523,725341	78,367	0,156619	22,490000	54,575000
2,864892	527,774929	79,119	0,158316	22,490000	54,575000
2,869865	532,898969	79,870	0,160463	22,490000	54,590000
2,874873	538,992579	80,623	0,163016	22,490000	54,590000
2,879931	543,106261	81,374	0,164740	22,490000	54,590000
2,884913	548,544945	82,126	0,167019	22,490000	54,590000
2,889913	554,008102	82,880	0,169308	22,490000	54,590000
2,894946	559,422313	83,632	0,171576	22,490000	54,565000
2,899950	563,969505	84,382	0,173481	22,490000	54,565000
2,904872	569,495590	85,135	0,175797	22,490000	54,565000
2,909899	573,340077	85,885	0,177408	22,490000	54,565000
2,914856	579,213436	86,635	0,179869	22,490000	54,565000
2,919893	583,547369	87,386	0,181685	22,480000	54,590000
2,924866	589,688759	88,136	0,184258	22,480000	54,590000
2,929821	593,462159	88,886	0,185839	22,480000	54,590000
2,934879	598,735363	89,637	0,188048	22,490000	54,615000
2,939902	603,669451	90,389	0,190116	22,490000	54,615000
2,944868	608,563917	91,142	0,192167	22,490000	54,615000
2,949922	613,749720	91,892	0,194339	22,490000	54,605000
2,954888	618,573100	92,645	0,196360	22,490000	54,605000
2,959861	624,406837	93,396	0,198805	22,490000	54,575000
2,964927	628,780392	94,147	0,200637	22,490000	54,575000
2,969888	633,706323	94,899	0,202701	22,490000	54,575000
2,974890	639,097227	95,652	0,204960	22,490000	54,575000
2,979900	643,644419	96,404	0,206865	22,490000	54,575000
2,984876	649,020175	97,154	0,209118	22,490000	54,575000
2,989870	654,633661	97,904	0,211470	22,480000	54,615000
2,994922	658,959437	98,656	0,213282	22,480000	54,615000
2,999832	663,893524	99,407	0,215350	22,480000	54,590000
3,004903	669,844962	100,158	0,217843	22,480000	54,590000
3,009945	674,234832	100,909	0,219683	22,480000	54,590000
3,014887	678,868260	101,660	0,221624	22,490000	54,575000
3,019899	683,652017	102,412	0,223628	22,490000	54,575000
3,024859	688,838986	103,163	0,225802	22,490000	54,575000
3,029871	694,072569	103,914	0,227995	22,490000	54,575000
3,034930	700,182494	104,665	0,230555	22,490000	54,575000
3,039935	704,002508	105,417	0,232155	22,490000	54,605000
3,044884	710,065819	106,170	0,234696	22,490000	54,605000
3,049879	714,083942	106,922	0,236379	22,490000	54,605000
3,054896	719,340832	107,672	0,238582	22,500000	54,610000
3,059861	724,954318	108,425	0,240934	22,500000	54,610000
3,064875	729,295244	109,178	0,242753	22,500000	54,610000
3,069903	734,103474	109,929	0,244768	22,480000	54,605000
3,074904	739,155262	110,682	0,246884	22,480000	54,605000
3,079915	744,223365	111,432	0,249008	22,480000	54,605000
3,084918	750,191117	112,183	0,251508	22,480000	54,605000
3,089886	755,219598	112,934	0,253615	22,480000	54,605000
3,094922	760,122222	113,687	0,255669	22,480000	54,565000
3,099872	764,993381	114,438	0,257710	22,480000	54,565000
3,104836	769,129205	115,190	0,259443	22,480000	54,565000
3,109871	774,567889	115,944	0,261722	22,490000	54,615000
3,114858	779,573063	116,697	0,263819	22,490000	54,615000
3,119858	784,688945	117,450	0,265963	22,480000	54,605000
3,124828	790,008763	118,202	0,268192	22,480000	54,605000
3,129879	795,235354	118,954	0,270382	22,480000	54,605000
3,134853	799,845475	119,704	0,272313	22,480000	54,605000
3,139855	805,165293	120,455	0,274542	22,480000	54,605000
3,144900	809,649556	121,206	0,276421	22,480000	54,605000
3,149827	815,056776	121,957	0,278687	22,490000	54,565000
3,154801	820,883521	122,709	0,281128	22,490000	54,565000
3,159825	825,067124	123,461	0,282881	22,480000	54,605000
3,164894	829,622474	124,211	0,284790	22,480000	54,605000
3,169824	835,061158	124,964	0,287069	22,480000	54,605000
3,174852	840,981131	125,716	0,289549	22,480000	54,575000
3,179849	845,047033	126,466	0,291253	22,480000	54,575000
3,184816	850,312080	127,217	0,293459	22,480000	54,575000
3,189858	856,248369	127,969	0,295946	22,480000	54,590000
3,194766	860,226870	128,720	0,297613	22,480000	54,590000
3,199899	865,026943	129,472	0,299625	22,490000	54,590000
3,204862	870,283832	130,222	0,301827	22,490000	54,590000
3,209854	874,997669	130,973	0,303802	22,490000	54,590000
3,214834	880,246401	131,724	0,306001	22,490000	54,590000
3,219843	885,369276	132,474	0,308148	22,490000	54,590000
3,224837	891,392965	133,225	0,310672	22,490000	54,590000
3,229811	895,553261	133,976	0,312415	22,490000	54,590000
3,234871	900,952323	134,727	0,314677	22,490000	54,590000
3,239826	906,296614	135,479	0,316917	22,490000	54,590000
3,244857	910,631712	136,233	0,318733	22,490000	54,590000
3,249845	916,354742	136,984	0,321131	22,490000	54,590000
3,254803	920,530187	137,735	0,322880	22,480000	54,605000
3,259825	926,166981	138,485	0,325242	22,480000	54,605000
3,264844	930,768944	139,236	0,327170	22,480000	54,605000
3,269846	935,765961	139,987	0,329264	22,480000	54,605000
3,274828	941,678942	140,738	0,331742	22,480000	54,605000
3,279901	945,831080	141,488	0,333481	22,490000	54,590000
3,284807	951,577416	142,239	0,335889	22,490000	54,590000
3,289798	956,875093	142,990	0,338109	22,490000	54,590000
3,294871	961,445592	143,741	0,340024	22,480000	54,605000
3,299811	965,478865	144,492	0,341714	22,480000	54,605000
3,304875	971,233359	145,244	0,344125	22,480000	54,605000
3,309831	976,301462	145,994	0,346249	22,480000	54,605000
3,314883	981,046763	146,747	0,348237	22,480000	54,605000
3,319858	985,727970	147,497	0,350198	22,490000	54,590000
3,324831	991,876352	148,248	0,352774	22,490000	54,590000
3,329870	995,681216	148,999	0,354369	22,490000	54,590000
3,334893	1001,736370	149,752	0,356906	22,490000	54,590000
3,339873	1006,172854	150,504	0,358765	22,490000	54,590000
3,344843	1011,849269	151,256	0,361143	22,490000	54,590000
3,349912	1016,150572	152,007	0,362945	22,480000	54,590000
3,354830	1021,385320	152,758	0,365139	22,480000	54,590000
3,359827	1027,037263	153,510	0,367507	22,480000	54,605000
3,364843	1030,896899	154,260	0,369124	22,480000	54,605000
3,369806	1037,125690	155,010	0,371734	22,480000	54,605000
3,374810	1041,388537	155,760	0,373520	22,490000	54,575000
3,379816	1046,772449	156,511	0,375776	22,490000	54,575000
3,384815	1051,476963	157,264	0,377747	22,490000	54,575000
3,389834	1056,513602	158,015	0,379857	22,480000	54,590000
3,394788	1062,016380	158,765	0,382163	22,480000	54,590000
3,399844	1066,626501	159,516	0,384095	22,480000	54,590000
3,404836	1072,546474	160,268	0,386575	22,480000	54,590000
3,409835	1077,559806	161,019	0,388676	22,480000	54,590000
3,414806	1082,429799	161,770	0,390716	22,490000	54,605000
3,419892	1086,598253	162,521	0,392463	22,490000	54,605000
3,424763	1091,737442	163,272	0,394616	22,490000	54,605000
3,429794	1097,342771	164,022	0,396965	22,490000	54,615000
3,434812	1101,620767	164,772	0,398757	22,490000	54,615000
3,439803	1107,699228	165,522	0,401304	22,500000	54,610000
3,444804	1112,901346	166,274	0,403484	22,500000	54,610000
3,449786	1117,764348	167,025	0,405521	22,500000	54,610000
3,454799	1121,797621	167,776	0,407211	22,500000	54,580000
3,459820	1127,150069	168,527	0,409454	22,500000	54,580000
3,464787	1133,284466	169,278	0,412024	22,500000	54,580000
3,469848	1137,823501	170,029	0,413926	22,490000	54,605000
3,474776	1143,040769	170,781	0,416112	22,490000	54,605000
3,479764	1147,224372	171,532	0,417865	22,490000	54,605000
3,484837	1153,192124	172,283	0,420366	22,490000	54,605000
3,489792	1157,155476	173,035	0,422026	22,490000	54,605000
3,494790	1162,263201	173,786	0,424167	22,480000	54,590000
3,499854	1167,346454	174,538	0,426296	22,480000	54,590000
3,504828	1173,204663	175,290	0,428751	22,480000	54,590000
3,509754	1177,403416	176,042	0,430510	22,480000	54,590000
3,514767	1182,117253	176,794	0,432485	22,480000	54,590000
3,519773	1187,129419	177,545	0,434585	22,490000	54,605000
3,524745	1192,323380	178,296	0,436762	22,490000	54,605000
3,529756	1198,102346	179,049	0,439183	22,490000	54,605000
3,534794	1203,375550	179,799	0,441393	22,490000	54,605000
3,539787	1208,349260	180,550	0,443477	22,490000	54,605000
3,544784	1212,327761	181,300	0,445144	22,490000	54,605000
3,549764	1217,088212	182,050	0,447138	22,490000	54,590000
3,554777	1222,857855	182,800	0,449556	22,490000	54,590000
3,559751	1228,517956	183,552	0,451927	22,490000	54,575000
3,564758	1232,654945	184,302	0,453661	22,490000	54,575000
3,569751	1238,077314	185,052	0,455933	22,490000	54,575000
3,574822	1243,493856	185,804	0,458202	22,490000	54,630000
3,579787	1247,345335	186,555	0,459816	22,490000	54,630000
3,584770	1252,643012	187,306	0,462036	22,490000	54,630000
3,589793	1258,010609	188,057	0,464285	22,480000	54,590000
3,594790	1264,214928	188,807	0,466884	22,480000	54,590000
3,599783	1268,762120	189,561	0,468790	22,490000	54,590000
3,604794	1273,246383	190,316	0,470668	22,490000	54,590000
3,609758	1278,739838	191,068	0,472970	22,490000	54,590000
3,614784	1284,068979	191,819	0,475203	22,490000	54,590000
3,619736	1288,576549	192,571	0,477092	22,490000	54,590000
3,624795	1294,102635	193,323	0,479407	22,490000	54,590000
3,629782	1299,265131	194,074	0,481570	22,480000	54,590000
3,634789	1303,433584	194,826	0,483317	22,480000	54,590000
3,639759	1308,217342	195,576	0,485321	22,480000	54,590000
3,644781	1313,174737	196,326	0,487398	22,480000	54,590000
3,649793	1319,434992	197,078	0,490021	22,480000	54,590000
3,654812	1323,831854	197,829	0,491864	22,490000	54,565000
3,659768	1328,354574	198,580	0,493759	22,490000	54,565000
3,664780	1333,525227	199,332	0,495925	22,490000	54,565000
3,669743	1339,651467	200,083	0,498492	22,480000	54,605000
3,674777	1343,567040	200,835	0,500133	22,480000	54,605000
3,679751	1348,934638	201,585	0,502382	22,480000	54,565000
3,684765	1353,773167	202,338	0,504409	22,480000	54,565000
3,689728	1358,652484	203,088	0,506454	22,480000	54,565000
3,694726	1363,578414	203,839	0,508518	22,490000	54,590000
3,699742	1368,977476	204,592	0,510780	22,490000	54,590000
3,704798	1374,716820	205,345	0,513185	22,490000	54,590000
3,709772	1379,579822	206,096	0,515222	22,480000	54,590000
3,714759	1385,003356	206,846	0,517495	22,480000	54,590000
3,719725	1389,337289	207,597	0,519311	22,480000	54,590000
3,724761	1393,851852	208,349	0,521202	22,480000	54,590000
3,729789	1399,827761	209,099	0,523706	22,480000	54,590000
3,734804	1405,234981	209,851	0,525972	22,490000	54,565000
3,739837	1409,292726	210,603	0,527672	22,490000	54,565000
3,744758	1414,590403	211,355	0,529892	22,490000	54,565000
3,749747	1419,207516	212,106	0,531826	22,480000	54,575000
3,754737	1423,754708	212,857	0,533731	22,480000	54,575000
3,759815	1429,477737	213,608	0,536129	22,490000	54,590000
3,764796	1434,679855	214,359	0,538309	22,490000	54,590000
3,769755	1439,148969	215,111	0,540182	22,490000	54,590000
3,774699	1444,382551	215,863	0,542375	22,490000	54,605000
3,779766	1449,181459	216,613	0,544385	22,490000	54,605000
3,784781	1455,212140	217,366	0,546912	22,490000	54,605000
3,789795	1459,357287	218,118	0,548649	22,490000	54,605000
3,794778	1465,143245	218,871	0,551073	22,490000	54,605000
3,799778	1469,326848	219,623	0,552826	22,490000	54,605000
3,804735	1473,867048	220,374	0,554729	22,490000	54,605000
3,809826	1479,345354	221,124	0,557024	22,490000	54,605000
3,814839	1484,578936	221,874	0,559217	22,490000	54,615000
3,819772	1490,563003	222,626	0,561724	22,490000	54,615000
3,824715	1494,376026	223,380	0,563322	22,490000	54,590000
3,829812	1500,107212	224,131	0,565723	22,490000	54,590000
3,834748	1504,598467	224,884	0,567605	22,490000	54,590000
3,839775	1509,926443	225,638	0,569837	22,480000	54,590000
3,844660	1514,900153	226,388	0,571921	22,480000	54,590000
3,849745	1519,715375	227,140	0,573939	22,480000	54,590000
3,854779	1524,412897	227,891	0,575907	22,480000	54,590000
3,859799	1529,527614	228,643	0,578050	22,480000	54,590000
3,864802	1534,612032	229,394	0,580181	22,490000	54,590000
3,869794	1540,603091	230,144	0,582691	22,490000	54,590000
3,874767	1545,861146	230,895	0,584894	22,490000	54,590000
3,879770	1550,084371	231,647	0,586664	22,490000	54,590000
3,884773	1555,926266	232,398	0,589111	22,490000	54,590000
3,889756	1560,101712	233,149	0,590861	22,490000	54,590000
3,894765	1565,130193	233,899	0,592968	22,480000	54,615000
3,899796	1570,080596	234,650	0,595042	22,480000	54,615000
3,904747	1575,929482	235,400	0,597493	22,480000	54,615000
3,909746	1580,176014	236,154	0,599272	22,480000	54,615000
3,914700	1585,039016	236,906	0,601310	22,480000	54,615000
3,919739	1591,282956	237,657	0,603926	22,490000	54,615000
3,924794	1595,451410	238,409	0,605672	22,490000	54,615000
3,929733	1600,835322	239,160	0,607928	22,490000	54,615000
3,934745	1605,263649	239,912	0,609784	22,490000	54,590000
3,939732	1610,687183	240,665	0,612056	22,490000	54,590000
3,944789	1615,952230	241,415	0,614262	22,480000	54,605000
3,949798	1620,262856	242,165	0,616068	22,480000	54,605000
3,954740	1626,245758	242,915	0,618575	22,480000	54,605000
3,959803	1630,690399	243,666	0,620437	22,480000	54,605000
3,964843	1635,877368	244,416	0,622611	22,480000	54,605000
3,969761	1640,684433	245,167	0,624625	22,480000	54,605000
3,974762	1646,628878	245,920	0,627116	22,480000	54,615000
3,979722	1650,370814	246,673	0,628684	22,480000	54,615000
3,984739	1655,478539	247,423	0,630824	22,480000	54,615000
3,989740	1660,435934	248,175	0,632901	22,480000	54,615000
3,994718	1665,566966	248,926	0,635051	22,480000	54,615000
3,999737	1670,808706	249,678	0,637247	22,490000	54,590000
4,004739	1675,647235	250,430	0,639274	22,490000	54,590000
4,009716	1680,510236	251,182	0,641312	22,490000	54,590000
4,014754	1686,122557	251,933	0,643664	22,490000	54,615000
4,019725	1691,443541	252,684	0,645893	22,490000	54,615000
4,024714	1696,148055	253,434	0,647864	22,480000	54,575000
4,029729	1701,943336	254,186	0,650292	22,480000	54,575000
4,034749	1705,771508	254,937	0,651896	22,480000	54,575000
4,039742	1711,787039	255,689	0,654417	22,480000	54,575000
4,044752	1715,489353	256,441	0,655968	22,480000	54,575000
4,049809	1720,856951	257,194	0,658217	22,480000	54,575000
4,054758	1725,853968	257,945	0,660311	22,480000	54,605000
4,059762	1731,009472	258,695	0,662471	22,480000	54,605000
4,064748	1736,621793	259,446	0,664823	22,480000	54,615000
4,069730	1741,941611	260,197	0,667052	22,480000	54,615000
4,074696	1746,283702	260,948	0,668871	22,480000	54,615000
4,079744	1752,077817	261,702	0,671299	22,480000	54,615000
4,084794	1756,041169	262,455	0,672959	22,480000	54,615000
4,089748	1761,906371	263,205	0,675417	22,480000	54,615000
4,094766	1767,242504	263,955	0,677653	22,490000	54,575000
4,099723	1771,229164	264,706	0,679323	22,490000	54,575000
4,104735	1777,299467	265,457	0,681867	22,490000	54,575000
4,109757	1781,112489	266,208	0,683464	22,490000	54,575000
4,114691	1787,128021	266,958	0,685985	22,490000	54,575000
4,119689	1791,643748	267,709	0,687877	22,490000	54,575000
4,124705	1796,632607	268,462	0,689967	22,490000	54,575000
4,129743	1802,134220	269,215	0,692272	22,490000	54,575000
4,134743	1806,317823	269,965	0,694025	22,500000	54,610000
4,139686	1812,326363	270,716	0,696543	22,500000	54,610000
4,144716	1816,849083	271,467	0,698438	22,490000	54,590000
4,149738	1822,398475	272,218	0,700763	22,490000	54,590000
4,154725	1827,458420	272,971	0,702883	22,490000	54,590000
4,159706	1831,697960	273,722	0,704660	22,480000	54,605000
4,164674	1837,192581	274,473	0,706962	22,480000	54,605000
4,169706	1841,794544	275,225	0,708890	22,480000	54,605000
4,174734	1847,304315	275,977	0,711199	22,490000	54,565000
4,179713	1852,079915	276,728	0,713200	22,490000	54,565000
4,184736	1857,804109	277,479	0,715598	22,480000	54,590000
4,189751	1862,619332	278,232	0,717616	22,480000	54,590000
4,194714	1867,915843	278,982	0,719835	22,480000	54,590000
4,199716	1872,084297	279,733	0,721582	22,480000	54,590000
4,204708	1877,775861	280,484	0,723966	22,480000	54,590000
4,209726	1881,928000	281,236	0,725706	22,480000	54,590000
4,214663	1887,430778	281,987	0,728012	22,490000	54,565000
4,219673	1891,874254	282,737	0,729874	22,490000	54,565000
4,224744	1897,770920	283,489	0,732344	22,480000	54,575000
4,229737	1903,218927	284,241	0,734627	22,480000	54,575000
4,234737	1908,294022	284,992	0,736753	22,480000	54,575000
4,239667	1911,981187	285,742	0,738298	22,490000	54,605000
4,244749	1917,041132	286,493	0,740418	22,490000	54,605000
4,249703	1922,638304	287,243	0,742764	22,490000	54,605000
4,254707	1927,161023	287,995	0,744659	22,480000	54,605000
4,259738	1932,276906	288,746	0,746802	22,480000	54,605000
4,264710	1938,276122	289,497	0,749316	22,480000	54,615000
4,269675	1942,309396	290,248	0,751006	22,480000	54,615000
4,274686	1947,946189	291,002	0,753368	22,480000	54,615000
4,279656	1952,351208	291,753	0,755213	22,480000	54,615000
4,284684	1957,174588	292,505	0,757234	22,480000	54,615000
4,289685	1962,187920	293,258	0,759335	22,480000	54,615000
4,294719	1967,468116	294,009	0,761547	22,480000	54,605000
4,299721	1973,128216	294,761	0,763919	22,480000	54,605000
4,304793	1977,399221	295,513	0,765708	22,480000	54,605000
4,309717	1982,766818	296,264	0,767958	22,480000	54,605000
4,314704	1988,284746	297,014	0,770270	22,480000	54,605000
4,319680	1992,816788	297,766	0,772168	22,490000	54,645000
4,324707	1997,931505	298,518	0,774312	22,490000	54,645000
4,329666	2003,781558	299,268	0,776763	22,490000	54,645000
4,334732	2008,178420	300,019	0,778605	22,490000	54,645000
4,339710	2013,838520	300,772	0,780977	22,490000	54,645000
4,339738	2013,633418	301,523	0,780891	22,490000	54,605000
4,336696	2010,893683	302,274	0,779743	22,490000	54,605000
4,331592	2005,557550	303,026	0,777507	22,490000	54,605000
4,326699	2001,089601	303,776	0,775635	22,480000	54,605000
4,321648	1995,295486	304,527	0,773207	22,480000	54,605000
4,316730	1991,490621	305,278	0,771613	22,480000	54,605000
4,311719	1985,569483	306,029	0,769132	22,490000	54,605000
4,306710	1981,417344	306,781	0,767392	22,490000	54,605000
4,301752	1975,560300	307,533	0,764938	22,500000	54,620000
4,296678	1970,081994	308,286	0,762643	22,500000	54,620000
4,291730	1965,913540	309,036	0,760896	22,500000	54,620000
4,286727	1961,042381	309,787	0,758855	22,500000	54,620000
4,281716	1955,927664	310,538	0,756712	22,500000	54,620000
4,276727	1950,748853	311,291	0,754542	22,500000	54,620000
4,271714	1945,743679	312,042	0,752445	22,480000	54,590000
4,266711	1940,557876	312,793	0,750272	22,480000	54,590000
4,261653	1934,771918	313,544	0,747848	22,480000	54,605000
4,256751	1930,618614	314,294	0,746107	22,480000	54,605000
4,251667	1924,303587	315,045	0,743461	22,480000	54,605000
4,246738	1919,432428	315,795	0,741420	22,480000	54,605000
4,241744	1915,652036	316,546	0,739836	22,480000	54,605000
4,236707	1909,408096	317,297	0,737220	22,480000	54,605000
4,231681	1903,944940	318,047	0,734931	22,480000	54,575000
4,226707	1900,203004	318,799	0,733363	22,480000	54,575000
4,221728	1894,566210	319,549	0,731001	22,480000	54,575000
4,216735	1890,177506	320,300	0,729163	22,480000	54,575000
4,211699	1885,101246	321,050	0,727036	22,480000	54,575000
4,206724	1879,512232	321,803	0,724694	22,480000	54,605000
4,201767	1875,012819	322,556	0,722809	22,480000	54,605000
4,196763	1869,786228	323,308	0,720619	22,480000	54,605000
4,191774	1863,818476	324,058	0,718118	22,480000	54,575000
4,186738	1859,768888	324,808	0,716421	22,480000	54,575000
4,181748	1854,085481	325,562	0,714040	22,480000	54,590000
4,176672	1848,663112	326,312	0,711768	22,480000	54,590000
4,171703	1844,155541	327,062	0,709879	22,480000	54,590000
4,166736	1839,031502	327,812	0,707732	22,490000	54,575000
4,161731	1833,592818	328,563	0,705454	22,490000	54,575000
4,156774	1829,463986	329,314	0,703724	22,490000	54,575000
4,151767	1824,458812	330,066	0,701626	22,490000	54,575000
4,146728	1819,130836	330,818	0,699394	22,490000	54,575000
4,141748	1813,478893	331,568	0,697026	22,480000	54,590000
4,136769	1808,812836	332,318	0,695071	22,480000	54,590000
4,131750	1802,750690	333,069	0,692531	22,480000	54,590000
4,126698	1798,163876	333,821	0,690609	22,490000	54,565000
4,121747	1793,995423	334,571	0,688862	22,490000	54,565000
4,116756	1788,651132	335,321	0,686623	22,490000	54,565000
4,111750	1783,599344	336,073	0,684506	22,490000	54,565000
4,106752	1778,586012	336,824	0,682406	22,490000	54,565000
4,101753	1773,550539	337,575	0,680296	22,480000	54,590000
4,096743	1767,305433	338,327	0,677679	22,480000	54,590000
4,091725	1763,382868	339,080	0,676036	22,480000	54,590000
4,086805	1758,220372	339,831	0,673873	22,480000	54,590000
4,081751	1753,159261	340,583	0,671752	22,480000	54,590000
4,076777	1747,847600	341,334	0,669526	22,480000	54,590000
4,071716	1743,260786	342,085	0,667604	22,480000	54,605000
4,066692	1737,094925	342,836	0,665021	22,480000	54,605000
4,061760	1732,089751	343,588	0,662924	22,480000	54,615000
4,056707	1727,305993	344,338	0,660919	22,480000	54,615000
4,051784	1722,538550	345,089	0,658922	22,480000	54,615000
4,046818	1717,771107	345,840	0,656924	22,500000	54,620000
4,041766	1712,291636	346,592	0,654628	22,500000	54,620000
4,036718	1707,081360	347,344	0,652445	22,500000	54,620000
4,031782	1702,439775	348,094	0,650500	22,490000	54,605000
4,026720	1697,198035	348,846	0,648304	22,490000	54,605000
4,021745	1691,585714	349,599	0,645953	22,490000	54,590000
4,016782	1686,856727	350,350	0,643971	22,490000	54,590000
4,011679	1681,489130	351,102	0,641722	22,490000	54,590000
4,006779	1677,202976	351,854	0,639926	22,490000	54,590000
4,001831	1672,071944	352,604	0,637776	22,490000	54,590000
3,996779	1666,182270	353,354	0,635309	22,490000	54,590000
3,991745	1661,753944	354,105	0,633453	22,480000	54,605000
3,986766	1656,741777	354,857	0,631353	22,480000	54,605000
3,981749	1651,688824	355,608	0,629236	22,480000	54,630000
3,976759	1646,486706	356,359	0,627056	22,480000	54,630000
3,971769	1640,534103	357,112	0,624562	22,480000	54,630000
3,966828	1637,021741	357,864	0,623090	22,490000	54,575000
3,961767	1631,700757	358,615	0,620861	22,490000	54,575000
3,956787	1626,452025	359,367	0,618662	22,490000	54,575000
3,951804	1621,557559	360,119	0,616611	22,490000	54,605000
3,946686	1616,323976	360,869	0,614418	22,490000	54,605000
3,941791	1610,875970	361,620	0,612135	22,490000	54,605000
3,936804	1605,374357	362,370	0,609830	22,490000	54,605000
3,931740	1600,993810	363,120	0,607995	22,490000	54,605000
3,926747	1595,522496	363,873	0,605702	22,480000	54,590000
3,921802	1590,951997	364,624	0,603787	22,480000	54,590000
3,916751	1586,136775	365,376	0,601770	22,480000	54,590000
3,911773	1580,200487	366,128	0,599282	22,480000	54,605000
3,906811	1575,787310	366,880	0,597433	22,480000	54,605000
3,901803	1570,261225	367,631	0,595118	22,480000	54,605000
3,896808	1565,769969	368,382	0,593236	22,480000	54,605000
3,891762	1560,465301	369,134	0,591013	22,480000	54,605000
3,886746	1554,497548	369,884	0,588513	22,480000	54,590000
3,881754	1549,270958	370,634	0,586323	22,480000	54,590000
3,876792	1545,545337	371,387	0,584762	22,480000	54,590000
3,871793	1539,300231	372,138	0,582145	22,490000	54,590000
3,866728	1535,480217	372,889	0,580544	22,490000	54,590000
3,861735	1530,104462	373,640	0,578292	22,490000	54,590000
3,856724	1524,940800	374,392	0,576128	22,490000	54,590000
3,851825	1519,217771	375,143	0,573730	22,490000	54,590000
3,846727	1514,852374	375,894	0,571901	22,480000	54,660000
3,841695	1509,248210	376,646	0,569553	22,480000	54,660000
3,836783	1504,859506	377,396	0,567714	22,480000	54,660000
3,831793	1499,798395	378,147	0,565594	22,490000	54,605000
3,826739	1494,020594	378,898	0,563173	22,490000	54,605000
3,821748	1489,339387	379,648	0,561211	22,490000	54,615000
3,816726	1483,332013	380,401	0,558694	22,490000	54,615000
3,811863	1478,634491	381,153	0,556726	22,490000	54,615000
3,806751	1474,490509	381,904	0,554990	22,490000	54,615000
3,801792	1468,427198	382,655	0,552449	22,490000	54,615000
3,796790	1464,069958	383,405	0,550624	22,490000	54,575000
3,791778	1458,094048	384,156	0,548120	22,490000	54,575000
3,786786	1454,067767	384,908	0,546433	22,490000	54,575000
3,781849	1448,637241	385,659	0,544157	22,490000	54,605000
3,776813	1444,208914	386,410	0,542302	22,490000	54,605000
3,771720	1438,911238	387,162	0,540082	22,490000	54,605000
3,766788	1432,572904	387,915	0,537426	22,480000	54,550000
3,761814	1428,854275	388,666	0,535868	22,480000	54,550000
3,756754	1422,531092	389,417	0,533219	22,490000	54,605000
3,751788	1418,584054	390,167	0,531565	22,490000	54,605000
3,746796	1413,074284	390,917	0,529256	22,490000	54,605000
3,741761	1407,248704	391,669	0,526815	22,490000	54,575000
3,736758	1403,450832	392,420	0,525224	22,490000	54,575000
3,731821	1398,541216	393,170	0,523167	22,490000	54,575000
3,726836	1393,244705	393,922	0,520948	22,490000	54,575000
3,721820	1388,199909	394,673	0,518834	22,490000	54,575000
3,716801	1382,587588	395,424	0,516482	22,490000	54,575000
3,711817	1377,946002	396,177	0,514538	22,490000	54,575000
3,706804	1372,309209	396,930	0,512176	22,490000	54,575000
3,701768	1368,038205	397,682	0,510386	22,490000	54,575000
3,696808	1363,026039	398,434	0,508286	22,490000	54,575000
3,691790	1356,939420	399,185	0,505736	22,490000	54,575000
3,686836	1352,549551	399,937	0,503896	22,480000	54,575000
3,681840	1347,190110	400,689	0,501651	22,480000	54,575000
3,676744	1342,895799	401,443	0,499852	22,480000	54,575000
3,671826	1337,440800	402,193	0,497566	22,480000	54,575000
3,666826	1331,678149	402,944	0,495151	22,480000	54,575000
3,661821	1327,320909	403,694	0,493326	22,480000	54,630000
3,656832	1321,029190	404,444	0,490689	22,480000	54,630000
3,651857	1317,406119	405,196	0,489171	22,480000	54,630000
3,646837	1311,430210	405,947	0,486667	22,480000	54,590000
3,641845	1306,583523	406,698	0,484637	22,480000	54,590000
3,636834	1301,562034	407,448	0,482533	22,490000	54,590000
3,631790	1296,171129	408,199	0,480274	22,490000	54,590000
3,626772	1292,412879	408,950	0,478699	22,490000	54,590000
3,621809	1285,924215	409,703	0,475980	22,480000	54,575000
3,616779	1281,573967	410,456	0,474158	22,480000	54,575000
3,611797	1276,419628	411,208	0,471998	22,480000	54,575000
3,606803	1270,648820	411,959	0,469580	22,480000	54,605000
3,601843	1266,654003	412,710	0,467906	22,480000	54,605000
3,596728	1261,602215	413,460	0,465790	22,480000	54,660000
3,591788	1256,510805	414,211	0,463656	22,480000	54,660000
3,586849	1251,340151	414,963	0,461490	22,480000	54,660000
3,581796	1246,690409	415,715	0,459542	22,500000	54,595000
3,576759	1241,393897	416,466	0,457322	22,500000	54,595000
3,571817	1236,476124	417,217	0,455262	22,500000	54,595000
3,566790	1231,810067	417,968	0,453307	22,500000	54,595000
3,561798	1226,687192	418,720	0,451160	22,500000	54,595000
3,556816	1220,860447	419,472	0,448719	22,490000	54,590000
3,551845	1215,769037	420,224	0,446585	22,490000	54,590000
3,546888	1210,756871	420,975	0,444485	22,490000	54,590000
3,541856	1206,075664	421,727	0,442524	22,490000	54,590000
3,536837	1200,399249	422,477	0,440146	22,490000	54,590000
3,531815	1194,975714	423,229	0,437873	22,490000	54,590000
3,526795	1190,831733	423,980	0,436137	22,490000	54,605000
3,521769	1185,495600	424,733	0,433901	22,490000	54,605000
3,516844	1180,751464	425,484	0,431913	22,500000	54,580000
3,511826	1175,390858	426,236	0,429667	22,500000	54,580000
3,506895	1170,946217	426,986	0,427805	22,500000	54,580000
3,501853	1165,342053	427,737	0,425457	22,490000	54,605000
3,496860	1160,937034	428,489	0,423611	22,490000	54,605000
3,491811	1155,331705	429,240	0,421262	22,490000	54,605000
3,486818	1150,501333	429,992	0,419238	22,490000	54,605000
3,481878	1144,714210	430,744	0,416813	22,490000	54,605000
3,476804	1140,396592	431,495	0,415004	22,480000	54,605000
3,471815	1134,222572	432,245	0,412417	22,480000	54,605000
3,466868	1130,031977	432,995	0,410662	22,480000	54,605000
3,461813	1124,829859	433,746	0,408482	22,490000	54,575000
3,456784	1120,195266	434,496	0,406540	22,490000	54,575000
3,451813	1114,867290	435,247	0,404308	22,490000	54,575000
3,446802	1110,217547	435,997	0,402359	22,480000	54,590000
3,441807	1103,988757	436,747	0,399750	22,480000	54,590000
3,436852	1098,636309	437,498	0,397507	22,480000	54,590000
3,431756	1094,153211	438,249	0,395628	22,480000	54,590000
3,426838	1088,658590	439,000	0,393326	22,480000	54,590000
3,421809	1084,466830	439,751	0,391570	22,480000	54,590000
3,416881	1078,877815	440,502	0,389228	22,480000	54,590000
3,411849	1074,985550	441,252	0,387597	22,480000	54,590000
3,406855	1068,371028	442,003	0,384826	22,490000	54,590000
3,401818	1063,294768	442,754	0,382699	22,490000	54,590000
3,396825	1059,205558	443,505	0,380985	22,490000	54,565000
3,391857	1054,224856	444,256	0,378898	22,490000	54,565000
3,386803	1048,951652	445,007	0,376689	22,490000	54,565000
3,381873	1043,402260	445,759	0,374364	22,500000	54,595000
3,376877	1037,922789	446,510	0,372068	22,500000	54,595000
3,371854	1033,471155	447,261	0,370203	22,500000	54,595000
3,366850	1028,513760	448,013	0,368125	22,480000	54,605000
3,361852	1023,090226	448,767	0,365853	22,480000	54,605000
3,356839	1017,871793	449,519	0,363667	22,480000	54,605000
3,351912	1013,727812	450,270	0,361930	22,480000	54,605000
3,346850	1008,533851	451,022	0,359754	22,480000	54,605000
3,341871	1002,037030	451,772	0,357032	22,490000	54,630000
3,336929	998,405803	452,524	0,355510	22,490000	54,630000
3,331809	992,366964	453,276	0,352980	22,490000	54,630000
3,326803	988,071487	454,029	0,351180	22,490000	54,590000
3,321919	983,011542	454,780	0,349060	22,490000	54,590000
3,316850	978,085611	455,531	0,346996	22,490000	54,615000
3,311875	972,015308	456,284	0,344453	22,490000	54,615000
3,306888	967,532210	457,036	0,342574	22,490000	54,615000
3,301821	962,811381	457,788	0,340596	22,480000	54,565000
3,296849	957,530019	458,541	0,338383	22,480000	54,565000
3,291921	951,838455	459,293	0,335999	22,480000	54,565000
3,286885	947,891417	460,045	0,334345	22,480000	54,605000
3,281924	942,728921	460,796	0,332182	22,480000	54,605000
3,276824	937,763369	461,548	0,330101	22,480000	54,605000
3,271870	932,410921	462,298	0,327858	22,480000	54,605000
3,266908	927,334660	463,049	0,325731	22,480000	54,605000
3,261842	922,456509	463,801	0,323688	22,480000	54,630000
3,256886	917,325477	464,553	0,321538	22,480000	54,630000
3,251855	911,341410	465,305	0,319030	22,480000	54,630000
3,246924	907,520230	466,057	0,317429	22,480000	54,630000
3,241909	901,782052	466,807	0,315025	22,480000	54,630000
3,236887	896,523997	467,560	0,312822	22,470000	54,630000
3,231877	892,190064	468,311	0,311006	22,470000	54,630000
3,226870	886,782844	469,062	0,308740	22,470000	54,630000
3,221917	882,109795	469,812	0,306782	22,480000	54,575000
3,216838	876,441537	470,564	0,304407	22,480000	54,575000
3,211929	870,868838	471,315	0,302072	22,480000	54,575000
3,206897	866,779628	472,069	0,300359	22,480000	54,575000
3,201870	860,874804	472,820	0,297885	22,480000	54,575000
3,196901	855,909252	473,570	0,295804	22,480000	54,615000
3,191912	851,701177	474,322	0,294041	22,480000	54,615000
3,186904	845,757896	475,074	0,291551	22,480000	54,615000
3,181923	841,361034	475,826	0,289708	22,480000	54,615000
3,176887	836,853464	476,578	0,287820	22,480000	54,615000
3,171875	831,216671	477,329	0,285458	22,480000	54,615000
3,166878	826,305890	478,079	0,283400	22,480000	54,605000
3,161886	820,369602	478,829	0,280913	22,480000	54,605000
3,156891	816,422565	479,579	0,279259	22,480000	54,605000
3,151994	810,375569	480,331	0,276726	22,480000	54,605000
3,146962	806,263052	481,082	0,275002	22,480000	54,605000
3,141915	800,847675	481,833	0,272733	22,490000	54,605000
3,136882	796,000988	482,585	0,270703	22,490000	54,605000
3,131888	790,127629	483,336	0,268242	22,490000	54,605000
3,126957	785,075841	484,088	0,266125	22,480000	54,615000
3,121932	779,873723	484,839	0,263945	22,480000	54,615000
3,117010	775,878906	485,590	0,262271	22,490000	54,590000
3,111921	769,539407	486,340	0,259615	22,490000	54,590000
3,106875	765,301033	487,090	0,257839	22,490000	54,590000
3,101850	760,643133	487,840	0,255888	22,490000	54,590000
3,096944	754,959726	488,592	0,253506	22,490000	54,590000
3,091954	750,822736	489,343	0,251773	22,490000	54,590000
3,086949	745,597311	490,095	0,249583	22,490000	54,590000
3,081881	739,502536	490,847	0,247030	22,490000	54,590000
3,076914	734,260796	491,600	0,244833	22,480000	54,565000
3,071847	730,250830	492,351	0,243153	22,480000	54,565000
3,066916	724,425250	493,104	0,240712	22,480000	54,565000
3,061917	719,932829	493,855	0,238830	22,480000	54,565000
3,056946	713,965077	494,606	0,236330	22,480000	54,565000
3,051926	708,961068	495,356	0,234233	22,480000	54,565000
3,046939	704,903323	496,110	0,232533	22,500000	54,620000
3,041866	698,816705	496,861	0,229982	22,500000	54,620000
3,036908	694,049262	497,613	0,227985	22,500000	54,620000
3,031869	689,778257	498,363	0,226195	22,500000	54,620000
3,026933	684,693839	499,114	0,224065	22,500000	54,620000
3,021968	678,631694	499,864	0,221525	22,500000	54,580000
3,016898	674,486547	500,616	0,219788	22,500000	54,580000
3,011936	669,024556	501,366	0,217500	22,500000	54,580000
3,006854	663,529935	502,117	0,215197	22,500000	54,595000
3,001871	659,693606	502,868	0,213590	22,500000	54,595000
2,996910	653,157164	503,619	0,210851	22,500000	54,595000
2,991937	649,281213	504,371	0,209227	22,500000	54,595000
2,986912	643,700356	505,123	0,206889	22,500000	54,595000
2,981926	639,247557	505,874	0,205023	22,480000	54,605000
2,976925	634,013975	506,626	0,202830	22,480000	54,605000
2,971971	628,109151	507,376	0,200356	22,480000	54,605000
2,966952	623,143599	508,126	0,198275	22,490000	54,575000
2,961901	619,102168	508,878	0,196582	22,490000	54,575000
2,956964	613,031865	509,629	0,194039	22,490000	54,575000
2,951974	608,524295	510,381	0,192150	22,490000	54,575000
2,946895	602,864195	511,132	0,189778	22,490000	54,575000
2,941906	598,640970	511,883	0,188009	22,480000	54,590000
2,936956	593,706882	512,636	0,185941	22,480000	54,590000
2,931959	587,494406	513,388	0,183338	22,480000	54,590000
2,926958	583,610298	514,139	0,181711	22,480000	54,590000
2,921906	578,013126	514,891	0,179366	22,480000	54,590000
2,916976	572,495199	515,642	0,177054	22,490000	54,575000
2,911997	568,192730	516,393	0,175251	22,490000	54,575000
2,906935	563,314579	517,144	0,173207	22,490000	54,575000
2,901937	558,411956	517,894	0,171153	22,490000	54,605000
2,896873	552,500140	518,644	0,168676	22,490000	54,605000
2,891884	548,141734	519,395	0,166850	22,490000	54,605000
2,886958	543,334670	520,148	0,164835	22,490000	54,590000
2,881969	538,266567	520,900	0,162712	22,490000	54,590000
2,876967	533,198464	521,652	0,160588	22,490000	54,590000
2,871886	527,206239	522,406	0,158078	22,490000	54,590000
2,866955	522,154451	523,158	0,155961	22,490000	54,590000
2,861919	518,152642	523,909	0,154284	22,480000	54,615000
2,856928	511,813143	524,661	0,151628	22,480000	54,615000
2,851953	507,613225	525,411	0,149868	22,480000	54,615000
2,846934	502,900554	526,162	0,147894	22,480000	54,615000
2,841891	497,967631	526,913	0,145827	22,480000	54,615000
2,836909	491,541897	527,664	0,143134	22,500000	54,595000
2,831983	486,710359	528,415	0,141110	22,500000	54,595000
2,826922	481,650414	529,165	0,138990	22,500000	54,595000
2,821913	477,142844	529,916	0,137101	22,480000	54,605000
2,816970	471,932568	530,667	0,134918	22,480000	54,605000
2,811920	466,256153	531,417	0,132540	22,480000	54,605000
2,806922	462,333588	532,168	0,130896	22,480000	54,630000
2,801915	456,199191	532,919	0,128326	22,480000	54,630000
2,796910	451,937509	533,669	0,126540	22,480000	54,590000
2,791914	446,687612	534,420	0,124340	22,480000	54,590000
2,786901	441,919004	535,172	0,122342	22,480000	54,590000
2,781921	437,040852	535,924	0,120298	22,490000	54,575000
2,776975	431,071935	536,674	0,117797	22,490000	54,575000
2,771936	426,099390	537,426	0,115714	22,490000	54,575000
2,766903	421,710686	538,176	0,113875	22,490000	54,575000
2,761890	415,946869	538,928	0,111460	22,490000	54,575000
2,757023	411,756274	539,680	0,109704	22,500000	54,595000
2,751928	406,767415	540,433	0,107614	22,500000	54,595000
2,746987	401,737768	541,185	0,105506	22,500000	54,595000
2,741939	396,598579	541,935	0,103353	22,500000	54,610000
2,736992	391,743735	542,687	0,101319	22,500000	54,610000
2,732008	386,123257	543,438	0,098964	22,470000	54,615000
2,726931	380,573864	544,189	0,096639	22,470000	54,615000
2,721929	376,587205	544,939	0,094968	22,470000	54,615000
2,716936	370,698697	545,692	0,092501	22,490000	54,615000
2,711921	365,528043	546,444	0,090334	22,490000	54,615000
2,706913	360,459940	547,197	0,088211	22,490000	54,615000
2,701983	356,023456	547,948	0,086352	22,480000	54,590000
2,696889	351,239698	548,699	0,084348	22,480000	54,590000
2,691986	346,337075	549,449	0,082293	22,480000	54,590000
2,686945	341,245665	550,200	0,080160	22,480000	54,590000
2,681987	335,679958	550,950	0,077828	22,480000	54,590000
2,676998	330,241274	551,700	0,075549	22,480000	54,590000
2,671944	325,331658	552,450	0,073492	22,480000	54,590000
2,667003	321,376464	553,201	0,071835	22,480000	54,590000
2,661948	316,071795	553,952	0,069612	22,480000	54,590000
2,656969	311,003692	554,704	0,067489	22,480000	54,590000
2,651957	306,219934	555,455	0,065484	22,480000	54,605000
2,646926	300,804557	556,206	0,063215	22,480000	54,605000
2,641931	294,820490	556,957	0,060708	22,480000	54,605000
2,636940	290,036732	557,708	0,058704	22,480000	54,590000
2,631983	284,747212	558,461	0,056487	22,480000	54,590000
2,626944	280,011234	559,215	0,054503	22,480000	54,590000
2,621896	275,637679	559,965	0,052670	22,480000	54,615000
2,616926	269,732855	560,716	0,050196	22,480000	54,615000
2,611890	265,201978	561,468	0,048298	22,480000	54,605000
2,606997	260,780644	562,218	0,046445	22,480000	54,605000
2,602011	255,998052	562,968	0,044441	22,480000	54,605000
2,596974	250,739997	563,719	0,042238	22,490000	54,615000
2,591984	245,663736	564,474	0,040111	22,490000	54,615000
2,586977	240,390532	565,226	0,037902	22,490000	54,615000
2,581931	235,472759	565,976	0,035841	22,480000	54,575000
2,576917	230,341727	566,726	0,033691	22,480000	54,575000
2,571898	224,484683	567,479	0,031237	22,490000	54,590000
2,566943	220,426937	568,232	0,029537	22,490000	54,590000
2,561953	215,476535	568,982	0,027463	22,490000	54,590000
2,556939	210,732399	569,733	0,025475	22,490000	54,590000
2,551930	204,582852	570,484	0,022898	22,490000	54,590000
2,546989	200,210462	571,234	0,021066	22,490000	54,590000
2,541977	195,315996	571,984	0,019016	22,490000	54,590000
2,536945	189,323771	572,734	0,016505	22,490000	54,590000
2,531926	185,234561	573,486	0,014792	22,480000	54,590000
2,526945	179,875121	574,236	0,012546	22,480000	54,590000
2,522014	175,028435	575,002	0,010515	22,480000	54,590000
2,516981	169,517499	575,754	0,008206	22,510000	54,595000
2,512011	165,239503	576,505	0,006414	22,510000	54,595000
2,506935	159,729732	577,257	0,004105	22,510000	54,595000
2,501949	155,134761	578,008	0,002180	22,480000	54,590000
2,496963	149,687920	578,759	-0,000103	22,480000	54,590000
2,491926	143,971882	579,511	-0,002498	22,480000	54,605000
2,486994	140,175175	580,261	-0,004088	22,480000	54,605000
2,481919	134,554697	581,013	-0,006443	22,480000	54,605000
2,476981	130,023820	581,766	-0,008342	22,500000	54,580000
2,471996	124,979024	582,516	-0,010456	22,500000	54,580000
2,466924	119,595111	583,268	-0,012711	22,500000	54,580000
2,461931	114,622567	584,020	-0,014795	22,500000	54,580000
2,456949	108,480012	584,770	-0,017369	22,500000	54,580000
2,451962	103,348980	585,522	-0,019519	22,480000	54,630000
2,446944	99,165377	586,275	-0,021271	22,480000	54,630000
2,441951	93,710378	587,026	-0,023557	22,480000	54,630000
2,436970	88,279852	587,777	-0,025833	22,490000	54,605000
2,431919	84,048469	588,528	-0,027605	22,490000	54,605000
2,426968	79,170318	589,278	-0,029649	22,490000	54,605000
2,422011	73,525367	590,028	-0,032015	22,490000	54,605000
2,416974	68,030747	590,780	-0,034317	22,490000	54,605000
2,412027	63,997474	591,532	-0,036007	22,490000	54,605000
2,406993	59,165936	592,282	-0,038031	22,490000	54,605000
2,401957	54,263313	593,032	-0,040085	22,490000	54,605000
2,396974	48,138238	593,782	-0,042652	22,480000	54,590000
2,391926	43,653975	594,532	-0,044531	22,480000	54,590000
2,386933	38,405243	595,284	-0,046730	22,480000	54,590000
2,381969	33,904665	596,034	-0,048616	22,490000	54,605000
2,376987	28,576689	596,787	-0,050848	22,490000	54,605000
2,371988	22,766259	597,538	-0,053283	22,490000	54,605000
2,366930	18,850686	598,288	-0,054923	22,490000	54,605000
2,361986	13,215058	599,038	-0,057285	22,490000	54,605000
2,356959	8,904432	599,789	-0,059091	22,490000	54,630000
2,351939	3,275796	600,541	-0,061449	22,490000	54,630000
2,346927	-2,486855	601,292	-0,063864	22,490000	54,630000
2,341962	-6,450207	602,042	-0,065524	22,470000	54,590000
2,339938	-8,542009	602,342	-0,066401	22,470000	54,590000