File: Nanoindentation Datenauswertung/data/S_calib/S_calib_2308-2x2
Quasi static measurement routine
Tip parameters (shape,radius, material...)
23.08.2022

Piezo position[nm]	MEMS displ.[nm]	Time[ms]	Cap [pf]	Temp [°C]	Rh [%]
eoh

X-Pos [um]	Y-Pos [um]
0,000013	0,000000

POC
2,615900
2,318870	0,207002	0,289	-0,134610	22,350000	51,645000
2,322896	0,082801	0,489	-0,134660	22,350000	51,645000
2,326858	0,115678	0,690	-0,134647	22,350000	51,645000
2,330824	0,231355	0,892	-0,134601	22,350000	51,645000
2,334873	0,189955	1,093	-0,134617	22,350000	51,645000
2,338813	0,248402	1,293	-0,134594	22,350000	51,645000
2,342817	0,008524	1,495	-0,134690	22,350000	51,645000
2,346821	0,181431	1,696	-0,134621	22,350000	51,645000
2,350817	0,280062	1,897	-0,134581	22,350000	51,645000
2,354830	0,041400	2,097	-0,134677	22,350000	51,645000
2,358804	0,222832	2,299	-0,134604	22,350000	51,645000
2,362889	0,264232	2,502	-0,134587	22,350000	51,645000
2,366881	0,272756	2,703	-0,134584	22,350000	51,645000
2,370831	0,207002	2,904	-0,134610	22,350000	51,645000
2,374860	0,255708	3,108	-0,134591	22,350000	51,645000
2,378790	0,148554	3,309	-0,134634	22,350000	51,645000
2,382846	0,321462	3,511	-0,134564	22,350000	51,645000
2,386856	-0,048706	3,712	-0,134713	22,350000	51,645000
2,390851	0,248402	3,914	-0,134594	22,350000	51,645000
2,394876	0,321462	4,114	-0,134564	22,350000	51,645000
2,398873	0,008524	4,315	-0,134690	22,350000	51,645000
2,402855	0,189955	4,516	-0,134617	22,350000	51,645000
2,406826	0,396957	4,717	-0,134534	22,350000	51,645000
2,410932	0,215526	4,918	-0,134607	22,350000	51,645000
2,414881	0,000000	5,119	-0,134693	22,350000	51,645000
2,418853	0,025571	5,320	-0,134683	22,350000	51,645000
2,422799	0,148554	5,521	-0,134634	22,340000	51,655000
2,426799	0,181431	5,726	-0,134621	22,340000	51,655000
2,430862	0,140031	5,926	-0,134637	22,340000	51,655000
2,434832	0,231355	6,126	-0,134601	22,340000	51,655000
2,438878	0,174125	6,330	-0,134624	22,340000	51,655000
2,442832	0,321462	6,530	-0,134564	22,340000	51,655000
2,446833	0,082801	6,731	-0,134660	22,340000	51,655000
2,450849	0,132725	6,932	-0,134640	22,340000	51,655000
2,454839	0,215526	7,132	-0,134607	22,340000	51,655000
2,458836	0,091324	7,332	-0,134657	22,340000	51,655000
2,462850	0,124201	7,538	-0,134644	22,340000	51,645000
2,466858	0,255708	7,739	-0,134591	22,340000	51,645000
2,470900	-0,115678	7,940	-0,134740	22,340000	51,645000
2,474838	0,058448	8,142	-0,134670	22,340000	51,645000
2,478842	-0,090107	8,342	-0,134729	22,340000	51,645000
2,482812	-0,007306	8,542	-0,134696	22,340000	51,645000
2,486809	-0,015830	8,742	-0,134700	22,340000	51,645000
2,490851	-0,015830	8,944	-0,134700	22,340000	51,645000
2,494839	-0,074277	9,146	-0,134723	22,340000	51,645000
2,498818	0,049924	9,347	-0,134673	22,340000	51,645000
2,502835	-0,032877	9,548	-0,134707	22,340000	51,645000
2,506863	-0,255708	9,749	-0,134796	22,340000	51,645000
2,510807	-0,107154	9,950	-0,134736	22,340000	51,645000
2,514851	-0,081583	10,151	-0,134726	22,340000	51,645000
2,518836	-0,074277	10,352	-0,134723	22,340000	51,645000
2,522842	-0,271538	10,556	-0,134802	22,340000	51,645000
2,526869	-0,230138	10,797	-0,134786	22,340000	51,645000
2,530804	-0,081583	10,997	-0,134726	22,340000	51,645000
2,534829	-0,122984	11,198	-0,134743	22,340000	51,645000
2,538824	-0,371386	11,400	-0,134842	22,340000	51,645000
2,542850	-0,485846	11,601	-0,134888	22,340000	51,645000
2,546818	0,099848	11,806	-0,134653	22,340000	51,645000
2,550855	-0,304415	12,007	-0,134815	22,340000	51,645000
2,554855	-0,527246	12,208	-0,134905	22,340000	51,645000
2,558846	-0,594218	12,408	-0,134932	22,340000	51,645000
2,562884	-0,594218	12,609	-0,134932	22,340000	51,645000
2,566803	-0,708678	12,809	-0,134978	22,340000	51,645000
2,570850	-0,758602	13,009	-0,134998	22,340000	51,645000
2,574830	-1,187218	13,223	-0,135169	22,340000	51,645000
2,578887	-1,814312	13,436	-0,135421	22,340000	51,645000
2,582837	-7,654204	13,643	-0,137763	22,340000	51,645000
2,586833	-4,528474	13,845	-0,136509	22,340000	51,645000
2,590813	-0,874279	14,046	-0,135044	22,340000	51,645000
2,594829	3,044147	14,262	-0,133473	22,340000	51,645000
2,598856	6,624065	14,462	-0,132037	22,340000	51,645000
2,602826	10,566845	14,665	-0,130456	22,340000	51,645000
2,606892	14,014037	14,866	-0,129074	22,340000	51,645000
2,610849	18,130942	15,069	-0,127423	22,340000	51,645000
2,614819	22,996707	15,269	-0,125472	22,340000	51,645000
2,618827	25,512391	15,472	-0,124463	22,340000	51,655000
2,622906	30,107836	15,672	-0,122620	22,340000	51,655000
2,626824	33,885014	15,874	-0,121105	22,340000	51,655000
2,630818	37,836317	16,074	-0,119521	22,340000	51,655000
2,634818	41,762050	16,276	-0,117947	22,340000	51,655000
2,638869	46,043339	16,477	-0,116230	22,340000	51,655000
2,642779	50,283227	16,693	-0,114530	22,340000	51,655000
2,646855	54,233313	16,896	-0,112946	22,340000	51,655000
2,650814	57,301814	17,097	-0,111715	22,340000	51,655000
2,654861	61,178840	17,297	-0,110161	22,340000	51,655000
2,658787	65,947193	17,499	-0,108249	22,350000	51,670000
2,662934	69,650094	17,701	-0,106764	22,350000	51,670000
2,666810	73,527120	17,902	-0,105209	22,350000	51,670000
2,670815	77,089990	18,103	-0,103780	22,350000	51,670000
2,674846	81,865648	18,304	-0,101865	22,350000	51,670000
2,678780	85,916800	18,506	-0,100241	22,350000	51,670000
2,682891	88,902500	18,707	-0,099043	22,350000	51,670000
2,686836	93,728082	18,908	-0,097108	22,350000	51,670000
2,690826	96,613934	19,115	-0,095951	22,350000	51,670000
2,694838	100,589590	19,317	-0,094357	22,350000	51,670000
2,698806	105,019434	19,517	-0,092581	22,350000	51,670000
2,702840	108,715029	19,717	-0,091099	22,350000	51,670000
2,706798	113,499211	19,917	-0,089180	22,350000	51,670000
2,710871	117,267865	20,118	-0,087669	22,350000	51,670000
2,714807	120,733323	20,322	-0,086279	22,350000	51,670000
2,718801	125,244749	20,523	-0,084470	22,350000	51,670000
2,722828	129,451761	20,726	-0,082783	22,350000	51,670000
2,726826	133,270340	20,928	-0,081252	22,350000	51,670000
2,730840	136,693179	21,130	-0,079879	22,350000	51,670000
2,734793	140,157419	21,333	-0,078490	22,350000	51,670000
2,738782	144,414355	21,535	-0,076783	22,350000	51,630000
2,742859	148,134303	21,737	-0,075292	22,350000	51,630000
2,746880	152,678606	21,938	-0,073469	22,350000	51,630000
2,750822	156,976942	22,138	-0,071746	22,350000	51,630000
2,754839	160,688367	22,338	-0,070257	22,350000	51,630000
2,758831	164,416839	22,540	-0,068762	22,350000	51,630000
2,762823	168,383972	22,742	-0,067171	22,350000	51,630000
2,766806	173,366632	22,942	-0,065173	22,350000	51,630000
2,770850	177,061010	23,142	-0,063692	22,350000	51,630000
2,774840	180,170911	23,342	-0,062445	22,350000	51,630000
2,778885	184,030890	23,544	-0,060897	22,350000	51,670000
2,782818	188,032117	23,746	-0,059292	22,350000	51,670000
2,786900	192,213558	23,947	-0,057616	22,350000	51,670000
2,790834	196,947816	24,147	-0,055717	22,350000	51,670000
2,794880	199,959087	24,349	-0,054510	22,350000	51,670000
2,798858	204,809022	24,550	-0,052565	22,350000	51,670000
2,802847	208,561847	24,750	-0,051060	22,350000	51,670000
2,806828	211,993210	24,951	-0,049684	22,350000	51,670000
2,810803	216,703115	25,151	-0,047795	22,350000	51,670000
2,814855	220,308603	25,352	-0,046350	22,350000	51,670000
2,818811	224,472997	25,554	-0,044680	22,340000	51,630000
2,822841	227,838607	25,757	-0,043330	22,340000	51,630000
2,826839	231,739986	25,959	-0,041766	22,340000	51,630000
2,830741	236,779876	26,160	-0,039745	22,340000	51,630000
2,834840	240,558272	26,361	-0,038229	22,340000	51,630000
2,838842	244,896791	26,563	-0,036490	22,340000	51,630000
2,842817	248,789647	26,767	-0,034929	22,340000	51,630000
2,846826	251,528162	26,976	-0,033831	22,340000	51,630000
2,850772	255,726650	27,177	-0,032147	22,340000	51,630000
2,854809	260,445079	27,377	-0,030255	22,340000	51,630000
2,858777	263,785117	27,592	-0,028916	22,350000	51,645000
2,862817	267,537942	27,793	-0,027411	22,350000	51,645000
2,866817	271,506293	27,995	-0,025819	22,350000	51,645000
2,870844	275,341919	28,195	-0,024281	22,350000	51,645000
2,874811	279,523360	28,399	-0,022604	22,350000	51,645000
2,878796	283,631741	28,599	-0,020957	22,350000	51,645000
2,882792	287,334642	28,800	-0,019472	22,350000	51,645000
2,886809	291,194621	29,000	-0,017924	22,350000	51,645000
2,890750	296,424466	29,202	-0,015827	22,350000	51,645000
2,894792	300,012907	29,403	-0,014388	22,350000	51,645000
2,898821	304,104241	29,605	-0,012748	22,350000	51,645000
2,902834	307,370003	29,814	-0,011438	22,350000	51,645000
2,906821	312,409893	30,022	-0,009417	22,350000	51,645000
2,910849	316,418427	30,222	-0,007810	22,350000	51,645000
2,914814	320,345377	30,423	-0,006235	22,350000	51,645000
2,918865	324,353910	30,626	-0,004627	22,350000	51,645000
2,922848	328,040982	30,828	-0,003149	22,350000	51,645000
2,926839	331,852254	31,028	-0,001621	22,350000	51,645000
2,930826	334,837954	31,229	-0,000423	22,350000	51,645000
2,934812	339,043748	31,434	0,001263	22,340000	51,645000
2,938769	343,193530	31,635	0,002927	22,340000	51,645000
2,942785	346,896431	31,836	0,004412	22,340000	51,645000
2,946831	350,823381	32,036	0,005987	22,340000	51,645000
2,950809	354,889144	32,253	0,007617	22,340000	51,645000
2,954795	358,931772	32,454	0,009238	22,340000	51,645000
2,958814	362,973182	32,655	0,010859	22,340000	51,645000
2,962798	367,121746	32,856	0,012522	22,340000	51,645000
2,966832	371,171680	33,057	0,014146	22,340000	51,645000
2,970799	374,867275	33,257	0,015628	22,340000	51,645000
2,974832	379,701381	33,457	0,017567	22,350000	51,645000
2,978859	382,735787	33,658	0,018784	22,350000	51,645000
2,982815	386,934276	33,858	0,020467	22,350000	51,645000
2,986868	390,704148	34,060	0,021979	22,350000	51,645000
2,990820	394,441143	34,262	0,023478	22,350000	51,645000
2,994844	398,944046	34,462	0,025283	22,350000	51,645000
2,998801	403,670998	34,663	0,027179	22,350000	51,645000
3,002859	407,110885	34,863	0,028558	22,350000	51,645000
3,006853	410,872233	35,066	0,030066	22,350000	51,645000
3,010799	414,789442	35,269	0,031637	22,350000	51,645000
3,014817	418,906347	35,471	0,033288	22,350000	51,645000
3,018816	422,534971	35,673	0,034743	22,350000	51,645000
3,022781	426,609258	35,874	0,036377	22,350000	51,645000
3,026766	430,519161	36,076	0,037945	22,350000	51,645000
3,030822	434,651896	36,278	0,039602	22,350000	51,645000
3,034815	439,477478	36,478	0,041537	22,350000	51,645000
3,038807	443,304580	36,679	0,043072	22,350000	51,645000
3,042812	447,560298	36,880	0,044778	22,350000	51,645000
3,046777	451,198663	37,081	0,046237	22,350000	51,645000
3,050831	454,695780	37,285	0,047640	22,350000	51,645000
3,054796	458,787114	37,488	0,049280	22,350000	51,620000
3,058789	462,275707	37,689	0,050679	22,350000	51,620000
3,062817	466,325641	37,891	0,052303	22,350000	51,620000
3,066764	470,112560	38,092	0,053822	22,350000	51,620000
3,070851	474,276954	38,292	0,055492	22,350000	51,620000
3,074815	477,996902	38,494	0,056983	22,350000	51,620000
3,078798	482,080930	38,697	0,058621	22,350000	51,620000
3,082772	486,880942	38,897	0,060546	22,350000	51,620000
3,086767	489,940919	39,097	0,061773	22,350000	51,620000
3,090816	494,082177	39,297	0,063434	22,350000	51,620000
3,094770	497,933633	39,498	0,064978	22,350000	51,645000
3,098758	502,776262	39,699	0,066920	22,350000	51,645000
3,102758	506,281903	39,908	0,068326	22,350000	51,645000
3,106751	510,157711	40,109	0,069880	22,350000	51,645000
3,110752	513,886183	40,311	0,071375	22,350000	51,645000
3,114774	517,498977	40,511	0,072824	22,350000	51,645000
3,118751	522,101728	40,712	0,074669	22,350000	51,645000
3,122733	525,855771	40,913	0,076175	22,350000	51,645000
3,126767	529,583025	41,116	0,077669	22,350000	51,645000
3,130804	533,665835	41,316	0,079307	22,350000	51,645000
3,134792	538,434188	41,517	0,081219	22,350000	51,645000
3,138792	542,425674	41,717	0,082819	22,350000	51,645000
3,142806	546,525532	41,919	0,084463	22,350000	51,645000
3,146743	550,592513	42,119	0,086094	22,350000	51,645000
3,150765	554,369691	42,321	0,087609	22,350000	51,645000
3,154751	558,543826	42,522	0,089283	22,350000	51,645000
3,158754	561,645203	42,722	0,090526	22,350000	51,645000
3,162763	565,380981	42,922	0,092024	22,350000	51,645000
3,166788	569,605040	43,126	0,093718	22,350000	51,645000
3,170774	573,720727	43,327	0,095369	22,350000	51,645000
3,174755	576,789228	43,528	0,096599	22,350000	51,655000
3,178782	580,929269	43,730	0,098259	22,350000	51,655000
3,182800	585,013297	43,930	0,099897	22,350000	51,655000
3,186790	589,994740	44,131	0,101895	22,350000	51,655000
3,190774	593,673287	44,332	0,103370	22,350000	51,655000
3,194757	596,907390	44,532	0,104667	22,350000	51,655000
3,198808	601,097354	44,737	0,106347	22,350000	51,655000
3,202777	605,840136	44,937	0,108249	22,350000	51,655000
3,206759	609,922947	45,151	0,109886	22,350000	51,655000
3,210792	613,074248	45,353	0,111149	22,350000	51,655000
3,214770	617,247165	45,553	0,112823	22,340000	51,630000
3,218754	620,679746	45,754	0,114199	22,340000	51,630000
3,222775	624,688279	45,957	0,115807	22,340000	51,630000
3,226760	629,241106	46,159	0,117632	22,340000	51,630000
3,230826	632,919654	46,362	0,119107	22,340000	51,630000
3,234750	636,491048	46,565	0,120540	22,340000	51,630000
3,238747	640,508105	46,767	0,122150	22,340000	51,630000
3,242751	644,336425	46,967	0,123686	22,340000	51,630000
3,246743	648,270681	47,168	0,125263	22,340000	51,630000
3,250808	652,509352	47,368	0,126963	22,340000	51,630000
3,254804	657,236304	47,569	0,128858	22,350000	51,630000
3,258789	660,881975	47,769	0,130320	22,350000	51,630000
3,262740	664,411968	47,986	0,131736	22,350000	51,630000
3,266762	668,924612	48,187	0,133545	22,350000	51,630000
3,270789	672,207421	48,389	0,134862	22,350000	51,630000
3,274787	676,323108	48,589	0,136512	22,350000	51,630000
3,278786	681,520077	48,789	0,138596	22,350000	51,630000
3,282736	685,314302	48,989	0,140118	22,350000	51,630000
3,286723	688,077170	49,191	0,141226	22,350000	51,630000
3,290681	692,647044	49,392	0,143058	22,350000	51,630000
3,294726	696,045531	49,595	0,144421	22,350000	51,630000
3,298756	699,929863	49,797	0,145979	22,350000	51,630000
3,302742	703,815413	49,997	0,147537	22,350000	51,630000
3,306753	708,475394	50,207	0,149405	22,350000	51,630000
3,310752	712,632481	50,410	0,151072	22,350000	51,630000
3,314729	717,243756	50,610	0,152921	22,350000	51,630000
3,318772	720,270856	50,810	0,154135	22,350000	51,630000
3,322714	723,883650	51,011	0,155584	22,350000	51,630000
3,326743	728,923541	51,211	0,157605	22,350000	51,630000
3,330724	732,841967	51,411	0,159176	22,350000	51,630000
3,334725	736,553392	51,611	0,160665	22,350000	51,645000
3,338749	741,031942	51,813	0,162460	22,350000	51,645000
3,342760	743,910487	52,014	0,163615	22,350000	51,645000
3,346778	747,400298	52,215	0,165014	22,350000	51,645000
3,350760	752,101679	52,417	0,166899	22,350000	51,645000
3,354700	755,500166	52,619	0,168262	22,350000	51,645000
3,358791	760,242947	52,819	0,170164	22,350000	51,645000
3,362774	763,797294	53,021	0,171589	22,350000	51,645000
3,366779	767,048443	53,223	0,172893	22,350000	51,645000
3,370736	771,402792	53,425	0,174639	22,350000	51,645000
3,374712	775,345572	53,627	0,176220	22,350000	51,645000
3,378776	779,189721	53,827	0,177762	22,350000	51,645000
3,382759	783,189731	54,028	0,179366	22,350000	51,645000
3,386761	787,141034	54,229	0,180950	22,350000	51,645000
3,390689	791,348046	54,429	0,182637	22,350000	51,645000
3,394729	796,132228	54,629	0,184556	22,350000	51,645000
3,398684	800,272269	54,831	0,186216	22,350000	51,645000
3,402775	803,250662	55,052	0,187410	22,350000	51,645000
3,406767	807,729212	55,252	0,189206	22,350000	51,645000
3,410694	811,803499	55,453	0,190840	22,350000	51,620000
3,414719	815,433340	55,654	0,192295	22,350000	51,620000
3,418700	819,706106	55,860	0,194009	22,350000	51,620000
3,422733	823,474760	56,062	0,195520	22,350000	51,620000
3,426731	826,394707	56,263	0,196691	22,350000	51,620000
3,430709	831,064429	56,466	0,198563	22,350000	51,620000
3,434718	835,617256	56,667	0,200389	22,350000	51,620000
3,438757	838,867188	56,867	0,201692	22,350000	51,620000
3,442747	842,718643	57,067	0,203237	22,350000	51,620000
3,446694	846,761271	57,268	0,204858	22,350000	51,620000
3,450706	851,594159	57,470	0,206796	22,350000	51,645000
3,454690	855,191124	57,670	0,208238	22,350000	51,645000
3,458714	859,488242	57,871	0,209961	22,350000	51,645000
3,462794	863,075466	58,071	0,211400	22,350000	51,645000
3,466730	867,480956	58,272	0,213167	22,350000	51,645000
3,470722	871,109580	58,473	0,214622	22,350000	51,645000
3,474747	875,053577	58,674	0,216203	22,350000	51,645000
3,478708	878,442322	58,877	0,217562	22,350000	51,645000
3,482728	882,096517	59,078	0,219027	22,350000	51,645000
3,486728	886,229251	59,280	0,220685	22,350000	51,645000
3,490737	890,674924	59,484	0,222467	22,350000	51,645000
3,494679	894,403396	59,684	0,223962	22,350000	51,645000
3,498692	898,231716	59,887	0,225498	22,350000	51,645000
3,502774	902,413157	60,088	0,227174	22,350000	51,645000
3,506799	906,471614	60,293	0,228802	22,350000	51,645000
3,510711	910,818656	60,494	0,230545	22,350000	51,645000
3,514728	914,217143	60,696	0,231908	22,350000	51,645000
3,518673	918,472861	60,896	0,233614	22,350000	51,645000
3,522731	922,168456	61,098	0,235096	22,350000	51,645000
3,526741	926,144112	61,301	0,236690	22,350000	51,645000
3,530703	931,208356	61,504	0,238721	22,340000	51,645000
3,534698	934,681119	61,706	0,240114	22,340000	51,645000
3,538712	939,052515	61,908	0,241867	22,340000	51,645000
3,542656	942,689663	62,109	0,243325	22,340000	51,645000
3,546706	946,105196	62,309	0,244695	22,340000	51,645000
3,550742	949,495159	62,509	0,246054	22,340000	51,645000
3,554715	953,610846	62,711	0,247705	22,340000	51,645000
3,558645	957,545102	62,912	0,249282	22,340000	51,645000
3,562693	961,513453	63,112	0,250874	22,340000	51,645000
3,566706	965,992002	63,314	0,252669	22,340000	51,645000
3,570701	969,571920	63,518	0,254105	22,340000	51,645000
3,574651	973,126266	63,719	0,255530	22,340000	51,645000
3,578675	977,341802	63,921	0,257221	22,340000	51,645000
3,582676	981,466013	64,122	0,258875	22,340000	51,645000
3,586655	986,423102	64,322	0,260862	22,340000	51,645000
3,590739	990,324482	64,522	0,262427	22,340000	51,645000
3,594745	994,151584	64,724	0,263961	22,340000	51,645000
3,598681	997,962857	64,926	0,265490	22,340000	51,645000
3,602695	1002,449930	65,127	0,267289	22,340000	51,645000
3,606677	1005,279769	65,331	0,268424	22,340000	51,645000
3,610652	1010,154058	65,545	0,270378	22,340000	51,645000
3,614656	1013,436867	65,745	0,271695	22,340000	51,645000
3,615733	1015,202472	65,946	0,272403	22,340000	51,645000
3,615663	1015,086795	66,147	0,272356	22,340000	51,645000
3,615669	1014,798210	66,349	0,272241	22,340000	51,645000
3,615705	1014,731238	66,549	0,272214	22,340000	51,645000
3,615713	1014,946764	66,751	0,272300	22,340000	51,645000
3,615617	1015,045394	66,953	0,272340	22,340000	51,645000
3,615699	1014,426824	67,155	0,272092	22,340000	51,645000
3,615708	1014,756809	67,356	0,272224	22,340000	51,645000
3,615685	1014,549807	67,559	0,272141	22,360000	51,660000
3,615672	1014,658179	67,759	0,272185	22,360000	51,660000
3,615687	1015,128195	67,965	0,272373	22,360000	51,660000
3,615670	1014,674008	68,167	0,272191	22,360000	51,660000
3,615681	1014,542501	68,367	0,272138	22,360000	51,660000
3,615620	1014,476748	68,569	0,272112	22,360000	51,660000
3,615681	1014,393947	68,772	0,272079	22,360000	51,660000
3,615689	1014,558331	68,974	0,272145	22,360000	51,660000
3,615610	1014,361070	69,175	0,272065	22,360000	51,660000
3,615743	1014,245392	69,376	0,272019	22,360000	51,660000
3,615661	1014,616778	69,578	0,272168	22,340000	51,645000
3,615663	1014,228345	69,780	0,272012	22,340000	51,645000
3,615715	1014,253916	69,982	0,272022	22,340000	51,645000
3,615672	1014,063961	70,183	0,271946	22,340000	51,645000
3,615659	1013,923930	70,385	0,271890	22,340000	51,645000
3,615696	1014,154068	70,586	0,271982	22,340000	51,645000
3,615707	1014,262440	70,788	0,272026	22,340000	51,645000
3,615734	1014,039608	70,988	0,271937	22,340000	51,645000
3,615788	1014,369594	71,189	0,272069	22,340000	51,645000
3,615673	1013,891054	71,390	0,271877	22,340000	51,645000
3,615687	1013,783900	71,592	0,271834	22,340000	51,655000
3,615653	1013,882530	71,793	0,271874	22,340000	51,655000
3,615692	1013,593945	71,996	0,271758	22,340000	51,655000
3,615714	1013,412514	72,197	0,271685	22,340000	51,655000
3,615743	1013,362590	72,397	0,271665	22,340000	51,655000
3,615726	1013,865483	72,597	0,271867	22,340000	51,655000
3,615691	1013,453914	72,798	0,271702	22,340000	51,655000
3,615677	1013,255436	73,000	0,271622	22,340000	51,655000
3,615762	1013,528191	73,202	0,271731	22,340000	51,655000
3,615684	1013,709622	73,413	0,271804	22,340000	51,655000
3,615729	1013,494097	73,615	0,271718	22,340000	51,655000
3,615729	1013,132452	73,817	0,271573	22,340000	51,655000
3,615725	1013,346760	74,018	0,271659	22,340000	51,655000
3,615705	1013,346760	74,234	0,271659	22,340000	51,655000
3,615691	1013,106881	74,435	0,271562	22,340000	51,655000
3,615652	1013,371113	74,638	0,271668	22,340000	51,655000
3,615718	1013,279789	74,839	0,271632	22,340000	51,655000
3,615753	1013,305360	75,040	0,271642	22,340000	51,655000
3,615705	1013,074004	75,242	0,271549	22,340000	51,655000
3,615729	1013,272483	75,442	0,271629	22,350000	51,645000
3,615740	1013,395466	75,643	0,271678	22,350000	51,645000
3,615701	1013,091052	75,847	0,271556	22,350000	51,645000
3,612667	1011,308399	76,048	0,270841	22,350000	51,645000
3,608680	1005,856940	76,254	0,268655	22,350000	51,645000
3,604736	1002,062714	76,454	0,267134	22,350000	51,645000
3,600710	998,308672	76,659	0,265628	22,350000	51,645000
3,596712	994,795726	76,859	0,264220	22,350000	51,645000
3,592723	990,283081	77,062	0,262410	22,350000	51,645000
3,588777	986,794488	77,262	0,261011	22,350000	51,645000
3,584690	982,563123	77,463	0,259314	22,340000	51,655000
3,580720	977,523233	77,665	0,257293	22,340000	51,655000
3,576731	974,561886	77,866	0,256106	22,340000	51,655000
3,572733	970,050460	78,066	0,254297	22,340000	51,655000
3,568716	966,197787	78,268	0,252752	22,340000	51,655000
3,564687	962,519239	78,469	0,251277	22,340000	51,655000
3,560719	958,370675	78,670	0,249613	22,340000	51,655000
3,556768	954,097910	78,871	0,247900	22,340000	51,655000
3,552724	949,223621	79,071	0,245945	22,340000	51,655000
3,548757	944,752377	79,272	0,244152	22,340000	51,655000
3,544805	941,098182	79,473	0,242687	22,350000	51,655000
3,540706	938,194066	79,673	0,241522	22,350000	51,655000
3,536716	932,998315	79,873	0,239439	22,350000	51,655000
3,532679	929,822660	80,073	0,238166	22,350000	51,655000
3,528669	926,118542	80,275	0,236680	22,350000	51,655000
3,524766	921,788546	80,476	0,234944	22,350000	51,655000
3,520756	917,441504	80,677	0,233201	22,350000	51,655000
3,516707	913,185786	80,877	0,231494	22,350000	51,655000
3,512704	909,341636	81,078	0,229953	22,350000	51,655000
3,508737	905,101748	81,278	0,228252	22,350000	51,655000
3,504773	901,563231	81,480	0,226833	22,350000	51,655000
3,500775	897,183311	81,680	0,225077	22,350000	51,655000
3,496777	893,768995	81,881	0,223708	22,350000	51,655000
3,492658	889,627737	82,082	0,222047	22,350000	51,655000
3,488750	885,453602	82,283	0,220374	22,350000	51,655000
3,484712	881,543699	82,486	0,218806	22,350000	51,655000
3,480700	876,776564	82,686	0,216894	22,350000	51,655000
3,476701	872,735154	82,887	0,215273	22,350000	51,655000
3,472780	869,649606	83,090	0,214036	22,350000	51,655000
3,468759	865,435289	83,291	0,212346	22,350000	51,655000
3,464726	861,096770	83,492	0,210606	22,350000	51,645000
3,460746	856,585343	83,692	0,208797	22,350000	51,645000
3,456773	852,518362	83,894	0,207167	22,350000	51,645000
3,452739	848,427028	84,096	0,205526	22,350000	51,645000
3,448733	844,987142	84,298	0,204146	22,350000	51,645000
3,444701	841,118639	84,499	0,202595	22,350000	51,645000
3,440748	837,300060	84,700	0,201064	22,350000	51,645000
3,436759	833,110096	84,901	0,199384	22,350000	51,645000
3,432770	828,218760	85,102	0,197422	22,350000	51,645000
3,428775	824,366087	85,303	0,195877	22,350000	51,645000
3,424750	820,134722	85,503	0,194181	22,340000	51,630000
3,420746	817,437607	85,704	0,193099	22,340000	51,630000
3,416696	813,700612	85,906	0,191601	22,340000	51,630000
3,412779	809,427846	86,106	0,189887	22,340000	51,630000
3,408800	805,369389	86,307	0,188260	22,340000	51,630000
3,404772	800,239392	86,507	0,186203	22,340000	51,630000
3,400761	796,065257	86,708	0,184529	22,340000	51,630000
3,396791	792,205278	86,908	0,182981	22,340000	51,630000
3,392793	788,773915	87,134	0,181605	22,340000	51,630000
3,388741	784,600998	87,336	0,179932	22,340000	51,630000
3,384712	781,259741	87,538	0,178592	22,340000	51,655000
3,380760	776,971146	87,738	0,176872	22,340000	51,655000
3,376769	773,061243	87,939	0,175304	22,340000	51,655000
3,372740	768,070059	88,141	0,173303	22,340000	51,655000
3,368751	764,242957	88,343	0,171768	22,340000	51,655000
3,364789	760,020116	88,546	0,170075	22,340000	51,655000
3,360776	756,175966	88,746	0,168533	22,340000	51,655000
3,356735	751,895895	88,948	0,166817	22,340000	51,655000
3,352763	748,554639	89,155	0,165477	22,340000	51,655000
3,348766	745,016122	89,357	0,164058	22,340000	51,655000
3,344785	741,123266	89,558	0,162497	22,340000	51,655000
3,340730	736,940607	89,758	0,160820	22,340000	51,655000
3,336777	733,047752	89,958	0,159259	22,340000	51,655000
3,332846	729,410604	90,158	0,157800	22,340000	51,655000
3,328732	724,823683	90,359	0,155961	22,340000	51,655000
3,324784	721,079382	90,559	0,154459	22,340000	51,655000
3,320763	716,295200	90,761	0,152541	22,340000	51,655000
3,316782	712,765206	90,962	0,151125	22,340000	51,655000
3,312766	708,772502	91,172	0,149524	22,340000	51,655000
3,308748	704,342659	91,372	0,147748	22,340000	51,655000
3,304814	700,672635	91,573	0,146276	22,340000	51,645000
3,300730	696,605654	91,773	0,144646	22,340000	51,645000
3,296735	693,101231	91,976	0,143240	22,340000	51,645000
3,292793	688,068647	92,177	0,141222	22,340000	51,645000
3,288753	685,173054	92,378	0,140061	22,340000	51,645000
3,284769	680,868629	92,579	0,138335	22,340000	51,645000
3,280773	677,000127	92,782	0,136784	22,340000	51,645000
3,276743	673,015946	92,982	0,135186	22,340000	51,645000
3,272751	669,188844	93,183	0,133651	22,340000	51,645000
3,268801	665,353219	93,385	0,132113	22,340000	51,645000
3,264754	660,980605	93,585	0,130360	22,350000	51,630000
3,260804	657,236304	93,787	0,128858	22,350000	51,630000
3,256773	652,270690	93,989	0,126867	22,350000	51,630000
3,252806	648,146480	94,189	0,125213	22,350000	51,630000
3,248776	644,509332	94,389	0,123755	22,350000	51,630000
3,244788	640,945244	94,589	0,122326	22,350000	51,630000
3,240810	636,722403	94,789	0,120632	22,350000	51,630000
3,236787	631,855420	94,989	0,118681	22,350000	51,630000
3,232816	628,316903	95,190	0,117262	22,350000	51,630000
3,228750	624,019785	95,391	0,115539	22,350000	51,630000
3,224813	620,769853	95,593	0,114235	22,350000	51,630000
3,220790	616,184149	95,795	0,112396	22,350000	51,630000
3,216776	612,182922	95,996	0,110792	22,350000	51,630000
3,212808	608,257189	96,197	0,109218	22,350000	51,630000
3,208793	605,031610	96,397	0,107924	22,350000	51,630000
3,204845	601,031601	96,598	0,106320	22,350000	51,630000
3,200821	597,105868	96,800	0,104746	22,350000	51,630000
3,196790	592,081807	97,002	0,102731	22,350000	51,630000
3,192829	589,219091	97,204	0,101583	22,350000	51,630000
3,188810	584,476309	97,405	0,099682	22,350000	51,630000
3,184764	581,079041	97,609	0,098319	22,340000	51,655000
3,180771	576,524996	97,810	0,096493	22,340000	51,655000
3,176857	573,250711	98,014	0,095180	22,340000	51,655000
3,172810	568,772161	98,215	0,093384	22,340000	51,655000
3,168767	565,389505	98,416	0,092028	22,340000	51,655000
3,164822	560,869555	98,617	0,090215	22,340000	51,655000
3,160824	557,223884	98,818	0,088753	22,340000	51,655000
3,156806	553,248227	99,019	0,087159	22,340000	51,655000
3,152772	548,265567	99,222	0,085161	22,340000	51,655000
3,148784	544,744097	99,422	0,083749	22,350000	51,655000
3,144778	540,619886	99,623	0,082095	22,350000	51,655000
3,140803	537,089892	99,823	0,080680	22,350000	51,655000
3,136832	532,775727	100,023	0,078950	22,350000	51,655000
3,132810	529,080132	100,228	0,077468	22,350000	51,655000
3,128849	525,121522	100,429	0,075880	22,350000	51,655000
3,124785	520,510248	100,636	0,074031	22,350000	51,655000
3,120772	516,336113	100,836	0,072357	22,350000	51,655000
3,116843	512,847520	101,056	0,070958	22,350000	51,655000
3,112820	509,547664	101,256	0,069635	22,350000	51,655000
3,108803	505,357700	101,459	0,067955	22,360000	51,635000
3,104798	500,383563	101,659	0,065960	22,360000	51,635000
3,100842	497,117801	101,863	0,064651	22,360000	51,635000
3,096829	493,265128	102,064	0,063106	22,360000	51,635000
3,092772	489,363749	102,267	0,061542	22,360000	51,635000
3,088818	484,968000	102,468	0,059779	22,360000	51,635000
3,084856	480,496756	102,671	0,057986	22,360000	51,635000
3,080805	477,156718	102,871	0,056646	22,360000	51,635000
3,076819	473,478170	103,072	0,055171	22,360000	51,635000
3,072794	469,254111	103,274	0,053478	22,360000	51,635000
3,068781	465,138423	103,483	0,051827	22,340000	51,630000
3,064808	461,567030	103,685	0,050395	22,340000	51,630000
3,060782	457,219987	103,887	0,048652	22,340000	51,630000
3,056832	453,408715	104,087	0,047124	22,340000	51,630000
3,052820	449,531688	104,289	0,045569	22,340000	51,630000
3,048846	445,433048	104,490	0,043925	22,340000	51,630000
3,044817	442,166069	104,693	0,042615	22,340000	51,630000
3,040800	437,637595	104,894	0,040799	22,340000	51,630000
3,036819	432,746259	105,096	0,038838	22,340000	51,630000
3,032844	428,704849	105,297	0,037217	22,340000	51,630000
3,028784	424,770593	105,497	0,035640	22,340000	51,630000
3,024799	420,852166	105,699	0,034068	22,340000	51,630000
3,020886	416,629325	105,899	0,032375	22,340000	51,630000
3,016854	413,008007	106,102	0,030923	22,340000	51,630000
3,012797	408,982427	106,302	0,029309	22,340000	51,630000
3,008817	406,022298	106,502	0,028122	22,340000	51,630000
3,004863	401,749532	106,705	0,026408	22,340000	51,630000
3,000823	398,211015	106,906	0,024989	22,340000	51,630000
2,996795	394,161082	107,111	0,023365	22,340000	51,630000
2,992832	389,904146	107,312	0,021658	22,340000	51,630000
2,988722	384,955580	107,512	0,019674	22,340000	51,655000
2,984837	380,814322	107,712	0,018013	22,340000	51,655000
2,980858	377,581437	107,919	0,016717	22,340000	51,655000
2,976812	372,887362	108,119	0,014834	22,340000	51,655000
2,972811	370,240171	108,329	0,013773	22,340000	51,655000
2,968812	366,223114	108,529	0,012162	22,340000	51,655000
2,964862	361,158870	108,738	0,010131	22,340000	51,655000
2,960853	357,034659	108,939	0,008478	22,340000	51,655000
2,956880	353,981988	109,144	0,007253	22,340000	51,655000
2,952860	349,099176	109,346	0,005295	22,340000	51,655000
2,948818	346,130523	109,556	0,004105	22,340000	51,670000
2,944826	341,345124	109,757	0,002186	22,340000	51,670000
2,940853	338,195040	109,957	0,000923	22,340000	51,670000
2,936865	333,946628	110,159	-0,000781	22,340000	51,670000
2,932803	330,045248	110,359	-0,002345	22,340000	51,670000
2,928806	325,763959	110,559	-0,004062	22,340000	51,670000
2,924835	322,358167	110,759	-0,005428	22,340000	51,670000
2,920821	317,886923	110,960	-0,007221	22,340000	51,670000
2,916832	313,779760	111,160	-0,008868	22,340000	51,670000
2,912814	310,067117	111,361	-0,010356	22,340000	51,670000
2,908864	306,191309	111,562	-0,011911	22,340000	51,655000
2,904829	301,299973	111,762	-0,013872	22,340000	51,655000
2,900896	297,167238	111,966	-0,015529	22,340000	51,655000
2,896820	294,354446	112,166	-0,016657	22,340000	51,655000
2,892828	289,578787	112,367	-0,018572	22,340000	51,655000
2,888803	285,314546	112,568	-0,020282	22,340000	51,655000
2,884801	282,327628	112,783	-0,021480	22,340000	51,655000
2,880880	278,351972	112,985	-0,023074	22,340000	51,655000
2,876843	274,474945	113,198	-0,024629	22,340000	51,655000
2,872860	269,502026	113,398	-0,026623	22,340000	51,655000
2,868903	266,202170	113,600	-0,027946	22,350000	51,645000
2,864820	261,409465	113,800	-0,029868	22,350000	51,645000
2,860807	258,473689	114,002	-0,031045	22,350000	51,645000
2,856860	253,713860	114,202	-0,032954	22,350000	51,645000
2,852831	249,639573	114,404	-0,034588	22,350000	51,645000
2,848849	245,548239	114,607	-0,036229	22,350000	51,645000
2,844831	242,752494	114,807	-0,037350	22,350000	51,645000
2,840821	237,984141	115,008	-0,039262	22,350000	51,645000
2,836840	233,728423	115,208	-0,040968	22,350000	51,645000
2,832882	229,694319	115,408	-0,042586	22,350000	51,645000
2,828801	225,578632	115,609	-0,044236	22,350000	51,645000
2,824885	221,801453	115,810	-0,045751	22,350000	51,645000
2,820820	217,825797	116,010	-0,047345	22,350000	51,645000
2,816860	213,767339	116,212	-0,048973	22,350000	51,645000
2,812877	210,723192	116,412	-0,050193	22,350000	51,645000
2,808846	206,441903	116,613	-0,051910	22,350000	51,645000
2,804840	202,706125	116,814	-0,053408	22,350000	51,645000
2,800881	198,647668	117,016	-0,055036	22,350000	51,645000
2,796835	195,109151	117,218	-0,056455	22,350000	51,645000
2,792886	190,044907	117,419	-0,058485	22,350000	51,645000
2,788824	186,959359	117,622	-0,059723	22,350000	51,645000
2,784850	182,133777	117,822	-0,061658	22,350000	51,645000
2,780872	178,339552	118,024	-0,063179	22,350000	51,645000
2,776852	173,968156	118,226	-0,064932	22,350000	51,645000
2,772857	170,173930	118,432	-0,066454	22,350000	51,645000
2,768863	167,311214	118,632	-0,067602	22,350000	51,645000
2,764860	162,675586	118,835	-0,069460	22,350000	51,645000
2,760831	158,304191	119,035	-0,071213	22,350000	51,645000
2,756814	155,574199	119,236	-0,072308	22,350000	51,645000
2,752864	150,632939	119,437	-0,074290	22,350000	51,630000
2,748867	147,367178	119,638	-0,075599	22,350000	51,630000
2,744849	142,847228	119,839	-0,077412	22,350000	51,630000
2,740869	138,607339	120,041	-0,079112	22,350000	51,630000
2,736854	135,381760	120,247	-0,080405	22,350000	51,630000
2,732903	131,034718	120,448	-0,082148	22,350000	51,630000
2,728854	127,851757	120,649	-0,083425	22,350000	51,630000
2,724890	123,389037	120,849	-0,085214	22,350000	51,630000
2,720886	119,874873	121,054	-0,086624	22,350000	51,630000
2,716845	114,819153	121,256	-0,088651	22,350000	51,630000
2,712842	111,552174	121,457	-0,089961	22,350000	51,645000
2,708915	107,675148	121,657	-0,091516	22,350000	51,645000
2,704886	102,982290	121,858	-0,093397	22,350000	51,645000
2,700886	100,037991	122,058	-0,094578	22,350000	51,645000
2,696869	96,102517	122,259	-0,096156	22,350000	51,645000
2,692882	92,349692	122,459	-0,097661	22,350000	51,645000
2,688844	88,291235	122,660	-0,099289	22,350000	51,645000
2,684866	83,541147	122,861	-0,101193	22,350000	51,645000
2,680954	80,604154	123,062	-0,102371	22,350000	51,645000
2,676913	76,274158	123,262	-0,104107	22,350000	51,645000
2,672879	71,365775	123,462	-0,106076	22,350000	51,645000
2,668809	67,448566	123,664	-0,107646	22,350000	51,645000
2,664904	64,165757	123,866	-0,108963	22,350000	51,645000
2,660863	60,363008	124,067	-0,110488	22,350000	51,645000
2,656875	56,361781	124,275	-0,112092	22,350000	51,645000
2,652869	52,196170	124,478	-0,113763	22,350000	51,645000
2,648858	48,320361	124,684	-0,115317	22,350000	51,645000
2,644828	44,384887	124,884	-0,116895	22,350000	51,645000
2,640851	39,956262	125,094	-0,118671	22,350000	51,645000
2,636879	35,576342	125,297	-0,120427	22,350000	51,645000
2,632853	31,955025	125,497	-0,121879	22,350000	51,630000
2,628880	27,170842	125,698	-0,123798	22,350000	51,630000
2,624854	24,300820	125,902	-0,124949	22,350000	51,630000
2,620852	20,398223	126,102	-0,126514	22,350000	51,630000
2,616870	15,318150	126,303	-0,128551	22,350000	51,630000
2,612885	11,176892	126,504	-0,130211	22,350000	51,630000
2,608890	7,159835	126,706	-0,131822	22,350000	51,630000
2,604908	3,324209	126,908	-0,133360	22,350000	51,630000
2,600891	-0,708678	127,109	-0,134978	22,350000	51,630000
2,596806	-3,785702	127,309	-0,136211	22,350000	51,630000
2,592891	-8,396976	127,510	-0,138061	22,350000	51,645000
2,588888	-12,289832	127,711	-0,139622	22,350000	51,645000
2,584850	-16,207041	127,911	-0,141192	22,350000	51,645000
2,580849	-20,588178	128,112	-0,142949	22,350000	51,645000
2,576809	-24,274032	128,313	-0,144427	22,350000	51,645000
2,572857	-28,472520	128,513	-0,146111	22,350000	51,645000
2,568846	-31,640869	128,713	-0,147381	22,350000	51,645000
2,564892	-36,532205	128,914	-0,149343	22,350000	51,645000
2,560862	-40,689292	129,114	-0,151010	22,350000	51,645000
2,556879	-44,590672	129,316	-0,152574	22,350000	51,645000
2,552843	-49,506361	129,517	-0,154545	22,340000	51,645000
2,548890	-52,591909	129,720	-0,155783	22,340000	51,645000
2,544867	-57,566046	129,920	-0,157777	22,340000	51,645000
2,540877	-61,830288	130,122	-0,159487	22,340000	51,645000
2,536896	-64,988895	130,329	-0,160754	22,340000	51,645000
2,532902	-69,401691	130,529	-0,162523	22,340000	51,645000
2,528868	-73,377348	130,730	-0,164118	22,340000	51,645000
2,524892	-77,997146	130,932	-0,165970	22,340000	51,645000
2,520934	-81,988632	131,135	-0,167571	22,340000	51,645000
2,516935	-86,105537	131,336	-0,169222	22,340000	51,645000
2,512836	-89,924115	131,547	-0,170753	22,340000	51,645000
2,508915	-93,842542	131,748	-0,172324	22,340000	51,645000
2,504876	-98,148184	131,955	-0,174051	22,340000	51,645000
2,500796	-101,142408	132,155	-0,175251	22,340000	51,645000
2,496834	-105,406649	132,359	-0,176961	22,340000	51,645000
2,492845	-109,415183	132,562	-0,178569	22,340000	51,645000
2,488875	-113,926609	132,765	-0,180378	22,340000	51,645000
2,484861	-117,770759	132,967	-0,181919	22,340000	51,645000
2,480885	-121,442000	133,170	-0,183392	22,340000	51,645000
2,476843	-126,836230	133,370	-0,185555	22,340000	51,645000
2,472818	-129,697728	133,571	-0,186702	22,350000	51,655000
2,468859	-134,053294	133,775	-0,188449	22,350000	51,655000
2,464864	-137,649041	133,976	-0,189891	22,350000	51,655000
2,460851	-141,468838	134,177	-0,191422	22,350000	51,655000
2,456860	-146,714513	134,380	-0,193526	22,350000	51,655000
2,452854	-150,755923	134,581	-0,195146	22,350000	51,655000
2,448869	-153,972978	134,793	-0,196437	22,350000	51,655000
2,444902	-158,765683	134,996	-0,198358	22,350000	51,655000
2,440902	-162,889894	135,198	-0,200012	22,350000	51,655000
2,436910	-166,585489	135,398	-0,201494	22,350000	51,655000
2,432855	-170,288390	135,605	-0,202979	22,340000	51,655000
2,428864	-174,016862	135,807	-0,204474	22,340000	51,655000
2,424920	-177,843964	136,009	-0,206009	22,340000	51,655000
2,420866	-182,809578	136,209	-0,208000	22,340000	51,655000
2,416887	-185,878078	136,409	-0,209230	22,340000	51,655000
2,412862	-190,703661	136,610	-0,211166	22,340000	51,655000
2,408846	-193,962116	136,812	-0,212472	22,340000	51,655000
2,404899	-198,729251	137,012	-0,214384	22,340000	51,655000
2,400887	-202,127737	137,221	-0,215747	22,340000	51,655000
2,396866	-206,886349	137,423	-0,217655	22,350000	51,655000
2,392874	-210,046174	137,626	-0,218922	22,350000	51,655000
2,388866	-213,700368	137,827	-0,220387	22,350000	51,655000
2,384842	-217,667501	138,037	-0,221978	22,350000	51,655000
2,380892	-221,997496	138,237	-0,223714	22,350000	51,655000
2,376899	-226,518664	138,452	-0,225527	22,350000	51,655000
2,372857	-229,883056	138,653	-0,226876	22,350000	51,655000
2,368878	-233,545774	138,855	-0,228345	22,350000	51,655000
2,364884	-237,398447	139,061	-0,229890	22,350000	51,655000
2,360843	-241,811243	139,262	-0,231660	22,350000	51,655000
2,356896	-244,945498	139,466	-0,232917	22,350000	51,655000
2,352838	-248,788429	139,669	-0,234458	22,350000	51,655000
2,348898	-0,032877	139,870	-0,134707	22,350000	51,655000
2,344851	0,314156	140,070	-0,134567	22,350000	51,655000
2,340907	0,181431	140,273	-0,134621	22,350000	51,655000
2,336942	0,347033	140,475	-0,134554	22,350000	51,655000
2,332894	0,034094	140,691	-0,134680	22,350000	51,655000
2,328838	0,107154	140,891	-0,134650	22,350000	51,655000
2,324864	0,239879	141,095	-0,134597	22,350000	51,655000
2,320918	0,025571	141,296	-0,134683	22,350000	51,655000
2,316859	0,132725	141,502	-0,134640	22,340000	51,685000
2,315818	0,305632	141,552	-0,134571	22,340000	51,685000

X-Pos [um]	Y-Pos [um]
0,000000	2,000975

POC
2,619679
2,322665	-0,090107	0,308	-0,134610	22,340000	51,645000
[...]
3,611250	1012,776896	71,932	0,271632	22,350000	51,645000
3,611197	1012,389680	72,134	0,271477	22,350000	51,645000
3,611165	1012,339756	72,340	0,271457	22,350000	51,645000
3,611198	1012,224078	72,541	0,271410	22,350000	51,645000
3,611208	1012,571111	72,748	0,271549	22,350000	51,645000
3,611226	1012,356803	72,951	0,271463	22,350000	51,645000
3,611204	1012,258173	73,157	0,271424	22,350000	51,645000
3,611256	1012,042647	73,358	0,271337	22,350000	51,645000
3,611226	1012,603988	73,561	0,271562	22,350000	51,645000
3,611246	1012,332450	73,762	0,271454	22,350000	51,645000
3,611205	1012,463957	73,963	0,271506	22,350000	51,645000
3,611219	1012,166849	74,164	0,271387	22,350000	51,645000
3,611193	1012,265479	74,365	0,271427	22,340000	51,655000
3,611200	1012,084048	74,567	0,271354	22,340000	51,655000
3,611204	1012,092571	74,768	0,271357	22,340000	51,655000
3,611210	1012,339756	74,969	0,271457	22,340000	51,655000
3,611244	1012,076742	75,171	0,271351	22,340000	51,655000
3,611176	1012,389680	75,372	0,271477	22,340000	51,655000
3,611183	1011,861216	75,572	0,271265	22,340000	51,655000
3,611301	1011,672479	75,773	0,271189	22,340000	51,655000
3,611208	1012,208249	75,990	0,271404	22,340000	51,655000
3,611237	1011,928187	76,190	0,271292	22,340000	51,655000
3,611232	1011,828339	76,398	0,271251	22,350000	51,630000
3,608250	1009,766843	76,600	0,270425	22,350000	51,630000
3,604205	1004,521168	76,802	0,268321	22,350000	51,630000
3,600247	1001,551298	77,004	0,267130	22,350000	51,630000
3,596244	997,591471	77,206	0,265542	22,350000	51,630000
3,592231	992,601504	77,418	0,263542	22,350000	51,630000
3,588216	989,467250	77,625	0,262285	22,350000	51,630000
3,584278	985,343039	77,828	0,260631	22,350000	51,630000
3,580250	981,564643	78,042	0,259116	22,350000	51,630000
3,576271	976,558847	78,244	0,257108	22,350000	51,630000
3,572270	972,269034	78,444	0,255388	22,340000	51,645000
3,568209	968,986226	78,650	0,254072	22,340000	51,645000
3,564218	964,787738	78,850	0,252388	22,340000	51,645000
3,560296	961,109190	79,051	0,250913	22,340000	51,645000
3,556243	956,333531	79,252	0,248998	22,340000	51,645000
3,552256	953,075076	79,462	0,247691	22,340000	51,645000
3,548220	948,935035	79,662	0,246031	22,340000	51,645000
3,544211	944,208083	79,865	0,244136	22,340000	51,645000
3,540262	940,859521	80,065	0,242793	22,340000	51,645000
3,536211	937,271080	80,266	0,241354	22,340000	51,645000
3,532241	933,096945	80,469	0,239680	22,340000	51,670000
3,528214	928,891151	80,679	0,237994	22,340000	51,670000
3,524225	924,651262	80,882	0,236293	22,340000	51,670000
3,520252	920,839990	81,087	0,234765	22,340000	51,670000
3,516217	916,245763	81,287	0,232923	22,340000	51,670000
3,512245	913,078632	81,497	0,231653	22,340000	51,670000
3,508239	908,533111	81,697	0,229830	22,340000	51,670000
3,504171	904,590331	81,898	0,228249	22,340000	51,670000
3,500214	901,373276	82,100	0,226959	22,340000	51,670000
3,496208	896,903250	82,302	0,225167	22,340000	51,655000
3,492263	892,309022	82,503	0,223324	22,340000	51,655000
3,488260	887,566241	82,703	0,221422	22,340000	51,655000
3,484263	884,653600	82,903	0,220254	22,340000	51,655000
3,480219	880,373529	83,110	0,218538	22,340000	51,655000
3,476248	876,430749	83,311	0,216957	22,340000	51,655000
3,472241	872,595124	83,512	0,215419	22,340000	51,655000
3,468304	868,536666	83,713	0,213792	22,340000	51,655000
3,464197	864,296778	83,921	0,212091	22,340000	51,655000
3,460229	859,652626	84,128	0,210229	22,340000	51,655000
3,456290	856,353988	84,348	0,208906	22,340000	51,630000
3,452237	852,428256	84,550	0,207332	22,340000	51,630000
3,448270	848,534182	84,750	0,205771	22,340000	51,630000
3,444224	844,112862	84,951	0,203998	22,340000	51,630000
3,440323	839,131419	85,151	0,202000	22,340000	51,630000
3,436255	836,293056	85,351	0,200862	22,340000	51,630000
3,432269	832,087262	85,551	0,199175	22,340000	51,630000
3,428292	828,441591	85,751	0,197713	22,340000	51,630000
3,424243	824,448888	85,952	0,196112	22,340000	51,630000
3,420221	820,333200	86,163	0,194462	22,340000	51,630000
3,416215	815,499094	86,363	0,192523	22,350000	51,655000
3,412321	811,466208	86,563	0,190906	22,350000	51,655000
3,408245	807,836366	86,764	0,189451	22,350000	51,655000
3,404271	803,786432	86,964	0,187827	22,350000	51,655000
3,400305	800,090837	87,176	0,186345	22,350000	51,655000
3,396224	795,067994	87,379	0,184331	22,350000	51,655000
3,392271	791,496600	87,583	0,182898	22,350000	51,655000
3,388288	787,678022	87,784	0,181367	22,350000	51,655000
3,384306	783,932503	88,005	0,179865	22,350000	51,655000
3,380309	779,965370	88,206	0,178274	22,350000	51,655000
3,376268	776,096867	88,421	0,176723	22,350000	51,655000
3,372231	771,254237	88,623	0,174781	22,350000	51,655000
3,368238	767,988476	88,824	0,173472	22,350000	51,655000
3,364222	763,492879	89,025	0,171669	22,350000	51,655000
3,360261	760,284348	89,228	0,170382	22,350000	51,655000
3,356217	756,085860	89,429	0,168699	22,350000	51,655000
3,352281	752,374435	89,632	0,167210	22,350000	51,655000
3,348281	747,120237	89,832	0,165104	22,350000	51,655000
3,344317	743,103180	90,033	0,163493	22,350000	51,655000
3,340380	739,267554	90,234	0,161955	22,350000	51,655000
3,336274	735,134819	90,435	0,160297	22,350000	51,645000
3,332293	731,504978	90,636	0,158842	22,350000	51,645000
3,328280	728,123539	90,837	0,157486	22,350000	51,645000
3,324320	724,023681	91,047	0,155842	22,350000	51,645000
3,320259	719,455025	91,249	0,154010	22,350000	51,645000
3,316279	716,163692	91,450	0,152690	22,350000	51,645000
3,312287	712,492451	91,659	0,151218	22,350000	51,645000
3,308254	708,162455	91,869	0,149481	22,350000	51,645000
3,304316	704,228199	92,070	0,147904	22,350000	51,645000
3,300301	699,271109	92,272	0,145916	22,350000	51,645000
3,296296	695,335636	92,472	0,144338	22,350000	51,645000
3,292281	692,044303	92,672	0,143018	22,350000	51,645000
3,288292	688,332879	92,872	0,141530	22,350000	51,645000
3,284290	683,252805	93,072	0,139493	22,350000	51,645000
3,280298	678,971517	93,272	0,137776	22,350000	51,645000
3,276301	675,977293	93,483	0,136575	22,350000	51,645000
3,272277	671,770281	93,683	0,134888	22,350000	51,645000
3,268294	667,917608	93,884	0,133343	22,350000	51,645000
3,264305	662,754734	94,086	0,131273	22,350000	51,645000
3,260317	658,993386	94,293	0,129765	22,350000	51,630000
3,256316	655,594899	94,496	0,128402	22,350000	51,630000
3,252319	651,173580	94,713	0,126629	22,350000	51,630000
3,248286	647,156523	94,914	0,125018	22,350000	51,630000
3,244306	643,527899	95,116	0,123563	22,350000	51,630000
3,240294	640,228043	95,316	0,122240	22,350000	51,630000
3,236303	634,998198	95,529	0,120143	22,350000	51,630000
3,232252	631,518129	95,731	0,118747	22,350000	51,630000
3,228321	627,236840	95,933	0,117030	22,350000	51,630000
3,224362	624,176863	96,144	0,115803	22,350000	51,630000
3,220253	619,104095	96,355	0,113769	22,340000	51,630000
3,216275	615,367100	96,556	0,112271	22,340000	51,630000
3,212286	611,160088	96,756	0,110583	22,340000	51,630000
3,208336	608,125682	96,959	0,109367	22,340000	51,630000
3,204319	604,331457	97,164	0,107845	22,340000	51,630000
3,200263	599,802983	97,364	0,106029	22,340000	51,630000
3,196310	595,381663	97,565	0,104256	22,340000	51,630000
3,192280	591,199004	97,766	0,102579	22,340000	51,630000
3,188264	587,981949	97,976	0,101289	22,340000	51,630000
3,184312	583,099137	98,178	0,099331	22,340000	51,630000
3,180324	580,476299	98,378	0,098279	22,340000	51,620000
3,176284	575,634887	98,579	0,096338	22,340000	51,620000
3,172295	572,310678	98,782	0,095005	22,340000	51,620000
3,168304	568,623607	98,983	0,093526	22,340000	51,620000
3,164317	563,245207	99,184	0,091370	22,340000	51,620000
3,160330	560,349614	99,390	0,090208	22,340000	51,620000
3,156359	556,531036	99,591	0,088677	22,340000	51,620000
3,152245	552,415348	99,791	0,087027	22,340000	51,620000
3,148361	548,422645	99,992	0,085426	22,340000	51,620000
3,144309	543,968448	100,199	0,083640	22,340000	51,620000
3,140306	539,539822	100,402	0,081864	22,340000	51,620000
3,136354	536,718506	100,611	0,080732	22,340000	51,620000
3,132361	532,222910	100,814	0,078930	22,340000	51,620000
3,128403	527,752883	101,014	0,077137	22,340000	51,620000
3,124366	523,884381	101,214	0,075586	22,340000	51,620000
3,120323	520,650279	101,418	0,074289	22,340000	51,620000
3,116273	515,808867	101,622	0,072348	22,340000	51,620000
3,112383	512,707489	101,823	0,071104	22,340000	51,620000
3,108314	508,574755	102,024	0,069447	22,340000	51,620000
3,104386	504,566221	102,227	0,067839	22,340000	51,620000
3,100317	500,623441	102,435	0,066258	22,350000	51,620000
3,096363	495,459350	102,637	0,064187	22,350000	51,620000
3,092400	491,970757	102,852	0,062789	22,350000	51,620000
3,088313	487,772269	103,054	0,061105	22,350000	51,620000
3,084331	483,788088	103,274	0,059507	22,350000	51,620000
3,080312	480,851095	103,485	0,058330	22,350000	51,620000
3,076344	476,068130	103,687	0,056412	22,350000	51,620000
3,072328	471,844071	103,890	0,054718	22,350000	51,620000
3,068396	468,346955	104,094	0,053315	22,350000	51,620000
3,064349	465,064146	104,294	0,051999	22,340000	51,605000
3,060375	460,502796	104,495	0,050170	22,340000	51,605000
3,056359	456,378585	104,696	0,048516	22,340000	51,605000
3,052359	452,378575	104,896	0,046912	22,340000	51,605000
3,048360	448,600179	105,120	0,045397	22,340000	51,605000
3,044355	444,715847	105,322	0,043839	22,340000	51,605000
3,040305	440,014466	105,523	0,041954	22,340000	51,605000
3,036289	437,184626	105,725	0,040819	22,340000	51,605000
3,032322	432,721906	105,926	0,039030	22,340000	51,605000
3,028319	430,197699	106,126	0,038018	22,340000	51,605000
3,024343	424,993425	106,331	0,035931	22,350000	51,630000
3,020371	421,389154	106,532	0,034485	22,350000	51,630000
3,016310	416,843633	106,733	0,032663	22,350000	51,630000
3,012324	412,406484	106,936	0,030883	22,350000	51,630000
3,008369	409,272230	107,138	0,029626	22,350000	51,630000
3,004372	404,248169	107,339	0,027612	22,350000	51,630000
3,000335	401,146791	107,545	0,026368	22,350000	51,630000
2,996392	396,288332	107,747	0,024420	22,350000	51,630000
2,992288	392,775386	107,949	0,023011	22,350000	51,630000
2,988373	388,824082	108,149	0,021427	22,350000	51,630000
2,984352	385,235641	108,355	0,019988	22,350000	51,630000
2,980345	381,177184	108,556	0,018360	22,350000	51,630000
2,976305	376,740035	108,767	0,016581	22,350000	51,630000
2,972337	373,440179	108,968	0,015258	22,350000	51,630000
2,968359	368,837428	109,191	0,013412	22,350000	51,630000
2,964350	365,694650	109,393	0,012152	22,350000	51,630000
2,960287	361,777441	109,594	0,010581	22,350000	51,630000
2,956409	357,273321	109,794	0,008775	22,350000	51,630000
2,952378	352,886095	109,996	0,007016	22,350000	51,630000
2,948290	349,380455	110,197	0,005610	22,350000	51,630000
2,944324	345,370704	110,397	0,004002	22,340000	51,645000
2,940323	340,867801	110,598	0,002196	22,340000	51,645000
2,936370	337,816348	110,800	0,000973	22,340000	51,645000
2,932373	332,858040	111,000	-0,001016	22,340000	51,645000
2,928341	328,685123	111,201	-0,002689	22,340000	51,645000
2,924349	325,855284	111,411	-0,003824	22,340000	51,645000
2,920365	322,044011	111,615	-0,005352	22,340000	51,645000
2,916322	317,854047	111,816	-0,007032	22,340000	51,645000
2,912349	312,864080	112,036	-0,009033	22,340000	51,645000
2,908356	309,268333	112,236	-0,010475	22,340000	51,645000
2,904310	305,695722	112,447	-0,011908	22,350000	51,655000
2,900374	301,984297	112,648	-0,013396	22,350000	51,655000
2,896333	297,637255	112,855	-0,015139	22,350000	51,655000
2,892367	293,133134	113,056	-0,016945	22,350000	51,655000
2,888330	289,240278	113,262	-0,018506	22,350000	51,655000
2,884315	285,008913	113,462	-0,020203	22,350000	51,655000
2,880349	282,287445	113,669	-0,021294	22,350000	51,655000
2,876339	277,766278	113,870	-0,023107	22,350000	51,655000
2,872346	274,393362	114,072	-0,024460	22,350000	51,655000
2,868327	269,023486	114,274	-0,026613	22,350000	51,655000
2,864307	266,120587	114,475	-0,027777	22,350000	51,630000
2,860303	261,426512	114,675	-0,029660	22,350000	51,630000
2,856369	258,375058	114,875	-0,030883	22,350000	51,630000
2,852332	253,433798	115,077	-0,032865	22,350000	51,630000
2,848330	249,383865	115,280	-0,034489	22,350000	51,630000
2,844309	246,332411	115,490	-0,035712	22,350000	51,630000
2,840383	242,695264	115,692	-0,037171	22,350000	51,630000
2,836369	238,396928	115,892	-0,038895	22,350000	51,630000
2,832345	234,825534	116,092	-0,040327	22,350000	51,630000
2,828358	230,981384	116,293	-0,041868	22,350000	51,630000
2,824328	226,782896	116,494	-0,043552	22,350000	51,630000
2,820363	222,658685	116,695	-0,045206	22,350000	51,630000
2,816379	217,751520	116,896	-0,047173	22,350000	51,630000
2,812353	215,070235	117,097	-0,048249	22,350000	51,630000
2,808327	210,805993	117,299	-0,049958	22,350000	51,630000
2,804307	206,747535	117,502	-0,051586	22,350000	51,630000
2,800355	202,788926	117,703	-0,053173	22,350000	51,630000
2,796349	198,606268	117,903	-0,054851	22,350000	51,630000
2,792339	194,861966	118,104	-0,056352	22,350000	51,630000
2,788388	190,383416	118,304	-0,058148	22,350000	51,645000
2,784327	186,670774	118,504	-0,059637	22,350000	51,645000
2,780340	182,406532	118,704	-0,061347	22,350000	51,645000
2,776318	178,992217	118,905	-0,062716	22,350000	51,645000
2,772329	174,735281	119,106	-0,064423	22,350000	51,645000
2,768378	170,899655	119,306	-0,065961	22,350000	51,645000
2,764414	166,899645	119,508	-0,067565	22,350000	51,645000
2,760403	162,989742	119,709	-0,069133	22,350000	51,645000
2,756323	159,294147	119,909	-0,070615	22,350000	51,645000
2,752417	155,195507	120,109	-0,072258	22,350000	51,645000
2,748333	150,394278	120,310	-0,074184	22,340000	51,630000
2,744315	146,740083	120,512	-0,075649	22,340000	51,630000
2,740357	142,764427	120,712	-0,077243	22,340000	51,630000
2,736349	138,334583	120,912	-0,079020	22,340000	51,630000
2,732362	135,835947	121,118	-0,080021	22,340000	51,630000
2,728395	131,538829	121,319	-0,081745	22,340000	51,630000
2,724348	127,331817	121,526	-0,083432	22,340000	51,630000
2,720393	123,677622	121,726	-0,084897	22,340000	51,630000
2,716368	119,693442	121,927	-0,086495	22,340000	51,630000
2,712381	115,767710	122,129	-0,088069	22,340000	51,630000
2,708361	111,742129	122,330	-0,089683	22,350000	51,630000
2,704339	107,956427	122,532	-0,091201	22,350000	51,630000
2,700370	103,172245	122,732	-0,093120	22,350000	51,630000
2,696325	99,039511	122,932	-0,094777	22,350000	51,630000
2,692368	95,319562	123,133	-0,096269	22,350000	51,630000
2,688364	91,986830	123,333	-0,097605	22,350000	51,630000
2,684313	87,195342	123,534	-0,099526	22,350000	51,630000
2,680399	83,252562	123,735	-0,101107	22,350000	51,630000
2,676372	79,375536	123,939	-0,102662	22,350000	51,630000
2,672371	75,671417	124,140	-0,104147	22,350000	51,630000
2,668417	72,125594	124,343	-0,105569	22,350000	51,630000
2,664352	68,240044	124,544	-0,107127	22,350000	51,630000
2,660382	63,440033	124,748	-0,109052	22,350000	51,630000
2,656356	59,768791	124,951	-0,110524	22,350000	51,630000
2,652363	56,798921	125,152	-0,111715	22,350000	51,630000
2,648365	52,460402	125,352	-0,113455	22,350000	51,630000
2,644383	47,734667	125,553	-0,115350	22,350000	51,630000
2,640368	43,618980	125,753	-0,117000	22,350000	51,630000
2,636397	40,887771	125,955	-0,118096	22,350000	51,630000
2,632392	36,962038	126,155	-0,119670	22,350000	51,630000
2,628383	31,814994	126,355	-0,121734	22,340000	51,655000
2,624338	28,020768	126,556	-0,123255	22,340000	51,655000
2,620372	24,910867	126,766	-0,124502	22,340000	51,655000
2,616400	19,829576	126,966	-0,126540	22,340000	51,655000
2,612387	17,108109	127,166	-0,127631	22,340000	51,655000
2,608376	13,165329	127,368	-0,129212	22,340000	51,655000
2,604360	8,348270	127,573	-0,131144	22,340000	51,655000
2,600388	4,132735	127,774	-0,132834	22,340000	51,655000
2,596333	0,866973	127,982	-0,134144	22,340000	51,655000
2,592366	-2,522989	128,182	-0,135503	22,340000	51,655000
2,588328	-7,307172	128,391	-0,137422	22,350000	51,655000
2,584354	-11,175674	128,591	-0,138973	22,350000	51,655000
2,580427	-14,937023	128,798	-0,140481	22,350000	51,655000
2,576358	-18,451186	128,999	-0,141891	22,350000	51,655000
2,572335	-23,218321	129,202	-0,143802	22,350000	51,655000
2,568353	-26,319699	129,402	-0,145046	22,350000	51,655000
2,564325	-30,006770	129,603	-0,146524	22,350000	51,655000
2,560385	-35,022308	129,805	-0,148536	22,350000	51,655000
2,556375	-38,733732	130,006	-0,150024	22,350000	51,655000
2,552314	-42,775142	130,208	-0,151645	22,350000	51,655000
2,548352	-46,009244	130,412	-0,152941	22,340000	51,645000
2,544382	-49,613515	130,613	-0,154387	22,340000	51,645000
2,540359	-54,174866	130,814	-0,156216	22,340000	51,645000
2,536331	-58,159046	131,016	-0,157813	22,340000	51,645000
2,532389	-61,837594	131,218	-0,159289	22,340000	51,645000
2,528454	-66,036082	131,420	-0,160972	22,340000	51,645000
2,524457	-69,491798	131,620	-0,162358	22,340000	51,645000
2,520431	-73,501549	131,821	-0,163966	22,340000	51,645000
2,516422	-77,287251	132,038	-0,165484	22,340000	51,645000
2,512366	-81,378585	132,239	-0,167125	22,340000	51,645000
2,508446	-86,071442	132,444	-0,169006	22,340000	51,645000
2,504368	-89,124114	132,646	-0,170230	22,340000	51,645000
2,500360	-94,072680	132,850	-0,172215	22,340000	51,645000
2,496372	-97,223981	133,051	-0,173479	22,340000	51,645000
2,492359	-101,538147	133,253	-0,175208	22,340000	51,645000
2,488383	-104,969510	133,454	-0,176584	22,340000	51,645000
2,484432	-108,936643	133,656	-0,178175	22,340000	51,645000
2,480396	-113,843808	133,856	-0,180143	22,340000	51,645000
2,476396	-117,309266	134,057	-0,181533	22,340000	51,645000
2,472322	-121,820692	134,258	-0,183342	22,340000	51,645000
2,468373	-125,070624	134,462	-0,184645	22,350000	51,685000
2,464382	-130,134868	134,662	-0,186676	22,350000	51,685000
2,460329	-133,021937	134,863	-0,187833	22,350000	51,685000
2,456383	-137,047518	135,064	-0,189448	22,350000	51,685000
2,452380	-141,517544	135,265	-0,191240	22,350000	51,685000
2,448379	-146,310250	135,466	-0,193162	22,350000	51,685000
2,444366	-149,048765	135,666	-0,194260	22,350000	51,685000
2,440367	-154,038731	135,866	-0,196261	22,350000	51,685000
2,436384	-158,344373	136,066	-0,197988	22,350000	51,685000
2,432400	-162,328554	136,266	-0,199585	22,350000	51,685000
2,428380	-166,568442	136,468	-0,201286	22,350000	51,630000
2,424331	-170,131312	136,669	-0,202714	22,350000	51,630000
2,420380	-173,241213	136,869	-0,203961	22,350000	51,630000
2,416358	-177,356901	137,070	-0,205612	22,350000	51,630000
2,412348	-182,306684	137,271	-0,207597	22,350000	51,630000
2,408376	-186,702433	137,471	-0,209359	22,350000	51,630000
2,404344	-189,639427	137,672	-0,210537	22,350000	51,630000
2,400373	-193,903669	137,872	-0,212247	22,350000	51,630000
2,396361	-197,945079	138,073	-0,213868	22,350000	51,630000
2,392356	-201,863505	138,273	-0,215439	22,350000	51,630000
2,388336	-205,996240	138,473	-0,217096	22,350000	51,620000
2,384374	-210,301882	138,674	-0,218823	22,350000	51,620000
2,380404	-214,838879	138,875	-0,220642	22,350000	51,620000
2,376347	-218,211795	139,077	-0,221995	22,350000	51,620000
2,372414	-221,717435	139,280	-0,223400	22,350000	51,620000
2,368332	-225,817293	139,481	-0,225044	22,350000	51,620000
2,364436	-230,873013	139,683	-0,227072	22,350000	51,620000
2,360395	-234,584437	139,885	-0,228560	22,350000	51,620000
2,356375	-237,875770	140,091	-0,229880	22,350000	51,620000
2,352438	-241,488564	140,295	-0,231329	22,350000	51,620000
2,348404	-246,825563	140,495	-0,233469	22,350000	51,620000
2,344382	-249,959817	140,709	-0,234726	22,350000	51,620000
2,340400	-253,614012	140,909	-0,236191	22,350000	51,620000
2,336390	-257,615239	141,112	-0,237795	22,350000	51,620000
2,332393	-261,681003	141,312	-0,239426	22,350000	51,620000
2,328407	-265,525152	141,513	-0,240967	22,350000	51,620000
2,324412	-269,253624	141,713	-0,242462	22,350000	51,620000
2,320398	-0,164384	141,919	-0,134558	22,350000	51,620000
2,316451	-0,081583	142,121	-0,134524	22,350000	51,620000
2,312385	0,091324	142,322	-0,134455	22,340000	51,645000
2,311305	-0,024353	142,372	-0,134501	22,340000	51,645000