File: Nanoindentation Datenauswertung/data/S_calib/S_calib_1808-4
Quasi static measurement routine
Tip parameters (shape,radius, material...)
18.08.2022

Piezo position[nm]	MEMS displ.[nm]	Time[ms]	Cap [pf]	Temp [°C]	Rh [%]
eoh
2,659928	0,046725	0,198	-0,139036	22,420000	56,235000
2,664962	0,189238	0,249	-0,138977	22,420000	56,235000
2,669953	9,859076	0,299	-0,134935	22,420000	56,235000
2,674963	14,725535	0,349	-0,132900	22,420000	56,235000
2,679977	19,694789	0,399	-0,130823	22,420000	56,235000
2,684967	21,103562	0,451	-0,130234	22,420000	56,235000
2,690006	24,513354	0,501	-0,128809	22,420000	56,235000
2,694922	29,727918	0,551	-0,126629	22,420000	56,235000
2,700025	34,222909	0,601	-0,124750	22,420000	56,235000
2,704975	42,429071	0,651	-0,121320	22,420000	56,235000
2,709972	43,347226	0,701	-0,120937	22,420000	56,235000
2,715021	50,792931	0,752	-0,117824	22,420000	56,235000
2,719945	53,261205	0,802	-0,116792	22,420000	56,235000
2,724931	60,399690	0,852	-0,113809	22,420000	56,235000
2,729967	62,796707	0,902	-0,112807	22,420000	56,235000
2,734994	69,791511	0,952	-0,109883	22,420000	56,235000
2,739965	72,363749	1,003	-0,108808	22,420000	56,235000
2,744996	78,242982	1,054	-0,106350	22,420000	56,235000
2,749955	82,350151	1,104	-0,104633	22,420000	56,235000
2,754968	86,701462	1,155	-0,102814	22,420000	56,235000
2,759945	91,552734	1,205	-0,100787	22,420000	56,235000
2,764969	97,558126	1,255	-0,098276	22,420000	56,235000
2,769984	101,056697	1,306	-0,096814	22,420000	56,235000
2,774942	110,686818	1,356	-0,092789	22,420000	56,235000
2,779973	112,878243	1,406	-0,091873	22,420000	56,235000
2,784956	116,541520	1,456	-0,090341	22,420000	56,235000
2,789970	124,818939	1,506	-0,086881	22,420000	56,235000
2,794973	129,827910	1,556	-0,084788	22,420000	56,235000
2,799934	134,749271	1,606	-0,082730	22,420000	56,235000
2,804931	134,765625	1,656	-0,082724	22,420000	56,235000
2,809954	144,046473	1,706	-0,078844	22,420000	56,235000
2,814964	144,324490	1,756	-0,078728	22,420000	56,235000
2,819943	153,661408	1,806	-0,074825	22,430000	56,260000
2,824932	153,994328	1,856	-0,074686	22,430000	56,260000
2,830002	163,346432	1,906	-0,070777	22,430000	56,260000
2,834953	163,379140	1,957	-0,070763	22,430000	56,260000
2,840005	172,676342	2,007	-0,066877	22,430000	56,260000
2,844991	172,668165	2,057	-0,066880	22,430000	56,260000
2,849998	181,895279	2,107	-0,063023	22,430000	56,260000
2,854930	182,741010	2,159	-0,062670	22,430000	56,260000
2,859949	191,739169	2,221	-0,058909	22,430000	56,260000
2,864933	193,353534	2,272	-0,058234	22,430000	56,260000
2,869923	201,629785	2,322	-0,054774	22,430000	56,260000
2,874936	201,764120	2,373	-0,054718	22,430000	56,260000
2,879946	211,077676	2,424	-0,050825	22,430000	56,260000
2,884921	215,952312	2,475	-0,048788	22,430000	56,260000
2,889975	215,746720	2,534	-0,048874	22,430000	56,260000
2,894936	225,393195	2,584	-0,044841	22,430000	56,260000
2,899922	226,318359	2,634	-0,044455	22,430000	56,260000
2,904931	229,974628	2,684	-0,042926	22,430000	56,260000
2,909916	239,636289	2,734	-0,038888	22,430000	56,260000
2,914958	240,949275	2,784	-0,038339	22,430000	56,260000
2,919969	245,293576	2,835	-0,036523	22,430000	56,260000
2,924956	249,297950	2,885	-0,034849	22,430000	56,260000
2,929975	254,338461	2,935	-0,032742	22,430000	56,260000
2,934963	259,030867	2,985	-0,030781	22,430000	56,260000
2,939933	263,865786	3,035	-0,028760	22,430000	56,260000
2,944949	268,147008	3,085	-0,026970	22,430000	56,260000
2,949930	272,997112	3,135	-0,024943	22,430000	56,260000
2,954953	277,562192	3,186	-0,023035	22,430000	56,260000
2,959916	282,453181	3,237	-0,020990	22,430000	56,260000
2,964934	291,117253	3,287	-0,017369	22,430000	56,260000
2,969993	292,209461	3,337	-0,016912	22,430000	56,260000
2,975046	300,407446	3,387	-0,013485	22,430000	56,260000
2,979953	301,032399	3,437	-0,013224	22,430000	56,260000
2,984948	306,200237	3,487	-0,011064	22,430000	56,260000
2,989926	311,050342	3,537	-0,009037	22,430000	56,260000
2,994934	315,774288	3,587	-0,007062	22,430000	56,260000
2,999908	320,791436	3,637	-0,004965	22,430000	56,260000
3,004976	325,080835	3,688	-0,003172	22,430000	56,260000
3,009948	329,939117	3,738	-0,001141	22,430000	56,260000
3,014935	334,820761	3,788	0,000899	22,430000	56,260000
3,019952	339,450088	3,838	0,002834	22,430000	56,260000
3,024924	344,071238	3,888	0,004766	22,430000	56,260000
3,029934	353,606740	3,938	0,008752	22,430000	56,260000
3,034940	353,606740	3,988	0,008752	22,430000	56,260000
3,039952	363,188967	4,038	0,012757	22,430000	56,260000
3,044884	364,534661	4,088	0,013320	22,430000	56,260000
3,049925	372,787549	4,138	0,016770	22,430000	56,260000
3,054989	373,887934	4,189	0,017229	22,430000	56,260000
3,059917	382,323051	4,239	0,020755	22,430000	56,260000
3,064941	382,662978	4,289	0,020897	22,430000	56,260000
3,069928	391,485917	4,339	0,024585	22,430000	56,260000
3,074925	392,047791	4,389	0,024820	22,430000	56,260000
3,079927	401,235188	4,439	0,028661	22,430000	56,260000
3,084906	403,355357	4,490	0,029547	22,430000	56,260000
3,089888	405,405437	4,540	0,030404	22,430000	56,260000
3,094884	412,724983	4,590	0,033463	22,430000	56,260000
3,099927	414,908231	4,640	0,034376	22,430000	56,260000
3,104945	422,623776	4,690	0,037601	22,430000	56,260000
3,109911	429,555501	4,740	0,040499	22,430000	56,260000
3,114926	430,449125	4,791	0,040872	22,430000	56,260000
3,119911	433,891625	4,841	0,042311	22,430000	56,260000
3,124913	439,944911	4,891	0,044841	22,430000	56,260000
3,129949	443,672436	4,942	0,046399	22,430000	56,260000
3,134888	449,472236	4,992	0,048824	22,430000	56,260000
3,139913	457,607142	5,043	0,052224	22,430000	56,260000
3,144911	458,232095	5,094	0,052485	22,430000	56,260000
3,149873	462,671015	5,145	0,054341	22,430000	56,260000
3,154871	467,664801	5,196	0,056428	22,430000	56,260000
3,159922	471,953032	5,246	0,058221	22,430000	56,260000
3,164907	477,009896	5,297	0,060334	22,430000	56,260000
3,169923	481,464003	5,347	0,062196	22,430000	56,260000
3,174932	491,276353	5,397	0,066298	22,430000	56,260000
3,179942	491,150194	5,447	0,066245	22,430000	56,260000
3,184907	500,732422	5,497	0,070250	22,430000	56,260000
3,189916	502,623636	5,547	0,071041	22,430000	56,260000
3,194909	510,093871	5,597	0,074164	22,430000	56,260000
3,199909	511,739776	5,647	0,074852	22,430000	56,260000
3,204879	519,787072	5,697	0,078215	22,430000	56,260000
3,209893	523,474880	5,747	0,079757	22,430000	56,260000
3,214875	524,225992	5,797	0,080071	22,430000	56,260000
3,219920	528,989655	5,847	0,082062	22,430000	56,260000
3,224910	538,469086	5,898	0,086024	22,430000	56,260000
3,229895	538,422361	5,949	0,086005	22,430000	56,260000
3,234904	547,949686	5,999	0,089987	22,430000	56,260000
3,239884	548,242888	6,050	0,090110	22,430000	56,260000
3,244924	557,072836	6,101	0,093801	22,430000	56,260000
3,249913	556,787810	6,152	0,093682	22,430000	56,260000
3,254918	566,940089	6,202	0,097925	22,430000	56,260000
3,259953	567,889784	6,252	0,098322	22,430000	56,260000
3,264878	571,411717	6,302	0,099794	22,430000	56,260000
3,269903	576,618103	6,353	0,101971	22,430000	56,260000
3,274914	581,270793	6,403	0,103916	22,430000	56,260000
3,279880	586,240047	6,453	0,105993	22,430000	56,260000
3,284870	590,751392	6,503	0,107878	22,430000	56,260000
3,289922	595,364365	6,553	0,109807	22,430000	56,260000
3,294900	599,826648	6,603	0,111672	22,430000	56,260000
3,299893	604,598488	6,654	0,113667	22,430000	56,260000
3,304872	609,171744	6,704	0,115578	22,430000	56,260000
3,309837	614,054557	6,754	0,117619	22,430000	56,260000
3,314877	618,690892	6,804	0,119557	22,430000	56,260000
3,319896	628,360730	6,854	0,123599	22,430000	56,260000
3,324891	629,262532	6,904	0,123976	22,430000	56,260000
3,329856	637,659100	6,955	0,127486	22,430000	56,260000
3,334886	641,939154	7,005	0,129275	22,430000	56,260000
3,339859	642,683257	7,055	0,129586	22,430000	56,260000
3,344832	651,252710	7,105	0,133168	22,430000	56,260000
3,349824	651,743328	7,155	0,133373	22,430000	56,260000
3,354846	660,574443	7,205	0,137064	22,430000	56,260000
3,359896	661,176034	7,256	0,137316	22,430000	56,260000
3,364877	669,421912	7,307	0,140763	22,430000	56,260000
3,369889	670,869234	7,357	0,141368	22,430000	56,260000
3,374881	678,362833	7,407	0,144500	22,430000	56,260000
3,379852	680,127888	7,457	0,145238	22,430000	56,260000
3,384825	687,621486	7,507	0,148370	22,430000	56,260000
3,389911	689,955424	7,558	0,149346	22,430000	56,260000
3,394842	694,465601	7,609	0,151231	22,430000	56,260000
3,399848	699,166184	7,660	0,153196	22,430000	56,260000
3,404915	704,793100	7,710	0,155548	22,430000	56,260000
3,409839	708,716872	7,760	0,157188	22,430000	56,250000
3,414884	715,142793	7,810	0,159874	22,430000	56,250000
3,419829	718,212657	7,861	0,161157	22,430000	56,250000
3,424862	723,475114	7,911	0,163357	22,430000	56,250000
3,429884	727,391877	7,961	0,164994	22,430000	56,250000
3,434852	732,805024	8,011	0,167257	22,430000	56,250000
3,439860	736,816406	8,061	0,168934	22,430000	56,250000
3,444838	742,244739	8,112	0,171203	22,430000	56,250000
3,449841	746,367094	8,162	0,172926	22,430000	56,250000
3,454801	751,147110	8,213	0,174924	22,430000	56,250000
3,459890	758,252888	8,263	0,177894	22,430000	56,250000
3,464820	765,627336	8,313	0,180977	22,430000	56,250000
3,469883	769,774222	8,364	0,182710	22,430000	56,250000
3,474822	774,798380	8,415	0,184810	22,430000	56,250000
3,479846	774,995795	8,465	0,184893	22,430000	56,250000
3,484822	784,135298	8,515	0,188713	22,430000	56,250000
3,489790	787,451639	8,565	0,190099	22,430000	56,250000
3,494910	788,923492	8,616	0,190714	22,430000	56,250000
3,499868	793,520111	8,667	0,192636	22,430000	56,250000
3,504830	802,470376	8,717	0,196377	22,430000	56,250000
3,509834	802,770587	8,767	0,196502	22,430000	56,250000
3,514847	807,582143	8,817	0,198514	22,430000	56,250000
3,519765	814,497514	8,868	0,201404	22,430000	56,250000
3,524826	821,643008	8,918	0,204391	22,430000	56,250000
3,529807	824,017830	8,968	0,205384	22,430000	56,250000
3,534829	831,210050	9,034	0,208390	22,430000	56,250000
3,539792	834,470320	9,085	0,209753	22,430000	56,250000
3,544755	840,326191	9,135	0,212201	22,430000	56,250000
3,549906	840,642756	9,185	0,212333	22,430000	56,250000
3,554814	845,421604	9,235	0,214331	22,430000	56,250000
3,559840	850,082470	9,285	0,216279	22,430000	56,250000
3,564839	854,902204	9,336	0,218293	22,430000	56,250000
3,569826	859,672875	9,386	0,220288	22,430000	56,250000
3,574823	864,128149	9,436	0,222150	22,430000	56,250000
3,579799	868,614963	9,486	0,224025	22,430000	56,250000
3,584827	878,347881	9,537	0,228094	22,430000	56,250000
3,589826	879,257859	9,587	0,228474	22,430000	56,250000
3,594846	887,938285	9,637	0,232103	22,430000	56,250000
3,599824	889,623907	9,687	0,232807	22,430000	56,250000
3,604844	897,260018	9,738	0,235999	22,430000	56,250000
3,609820	898,082386	9,788	0,236343	22,430000	56,250000
3,614825	906,628476	9,838	0,239915	22,430000	56,250000
3,619797	906,692724	9,888	0,239942	22,430000	56,250000
3,624805	916,211872	9,938	0,243921	22,430000	56,250000
3,629781	920,864562	9,988	0,245866	22,430000	56,250000
3,634801	925,485711	10,038	0,247797	22,430000	56,250000
3,639803	925,691303	10,088	0,247883	22,430000	56,250000
3,644826	934,910240	10,138	0,251737	22,430000	56,250000
3,649783	934,633392	10,188	0,251621	22,430000	56,250000
3,654762	944,295053	10,238	0,255660	22,430000	56,250000
3,659757	944,010027	10,288	0,255541	22,430000	56,250000
3,659775	948,788876	10,338	0,257538	22,430000	56,250000
3,659761	948,583283	10,389	0,257452	22,430000	56,250000
3,659811	948,677903	10,439	0,257492	22,430000	56,250000
3,659856	948,385868	10,489	0,257370	22,430000	56,250000
3,659735	948,646363	10,540	0,257479	22,430000	56,250000
3,659833	948,520204	10,590	0,257426	22,430000	56,250000
3,659855	948,148737	10,640	0,257271	22,430000	56,250000
3,659834	948,124206	10,691	0,257260	22,430000	56,250000
3,659787	947,784278	10,741	0,257118	22,430000	56,250000
3,659807	948,029587	10,791	0,257221	22,430000	56,250000
3,659793	947,926791	10,842	0,257178	22,430000	56,250000
3,659824	947,585695	10,892	0,257035	22,430000	56,250000
3,659788	947,769092	10,942	0,257112	22,430000	56,250000
3,659811	947,887074	10,992	0,257161	22,430000	56,250000
3,659794	947,475890	11,042	0,256989	22,430000	56,250000
3,659833	947,214227	11,092	0,256880	22,430000	56,250000
3,659829	947,467713	11,142	0,256986	22,430000	56,250000
3,659807	947,412810	11,193	0,256963	22,430000	56,250000
3,659814	947,388279	11,243	0,256953	22,430000	56,250000
3,659770	947,325200	11,293	0,256926	22,430000	56,250000
3,659780	947,238758	11,343	0,256890	22,430000	56,250000
3,659789	947,151148	11,393	0,256854	22,430000	56,250000
3,659780	946,866122	11,443	0,256734	22,430000	56,250000
3,659754	946,945555	11,493	0,256768	22,430000	56,250000
3,659815	947,000458	11,543	0,256791	22,430000	56,250000
3,659835	946,882476	11,593	0,256741	22,430000	56,250000
3,659836	946,700247	11,643	0,256665	22,430000	56,250000
3,659813	947,064705	11,693	0,256817	22,430000	56,250000
3,659825	946,794866	11,743	0,256705	22,430000	56,250000
3,659803	946,620813	11,793	0,256632	22,430000	56,250000
3,659801	946,620813	11,843	0,256632	22,430000	56,250000
3,659832	946,692070	11,893	0,256662	22,430000	56,250000
3,659788	946,605628	11,943	0,256625	22,430000	56,250000
3,659818	946,526194	11,993	0,256592	22,430000	56,250000
3,659780	946,272709	12,044	0,256486	22,430000	56,250000
3,659807	946,438584	12,094	0,256556	22,430000	56,250000
3,659813	946,589274	12,144	0,256619	22,430000	56,250000
3,659731	946,217806	12,194	0,256463	22,430000	56,250000
3,659793	946,090479	12,244	0,256410	22,430000	56,250000
3,659842	946,232992	12,294	0,256470	22,430000	56,250000
3,659769	946,407044	12,345	0,256542	22,430000	56,250000
3,659794	946,082302	12,396	0,256407	22,430000	56,250000
3,659868	946,343965	12,446	0,256516	22,430000	56,250000
3,659781	945,727189	12,496	0,256258	22,430000	56,250000
3,659790	945,947967	12,546	0,256351	22,430000	56,250000
3,659877	945,719012	12,597	0,256255	22,430000	56,250000
3,659848	945,758728	12,647	0,256271	22,430000	56,250000
3,659753	945,410624	12,697	0,256126	22,430000	56,250000
3,659789	946,122019	12,747	0,256423	22,430000	56,250000
3,659760	946,115010	12,797	0,256420	22,430000	56,250000
3,659762	945,679295	12,847	0,256238	22,430000	56,250000
3,659735	946,304248	12,897	0,256500	22,430000	56,250000
3,659844	945,869701	12,947	0,256318	22,430000	56,250000
3,659768	945,869701	12,998	0,256318	22,430000	56,250000
3,659826	945,782091	13,048	0,256281	22,430000	56,250000
3,659802	945,702658	13,099	0,256248	22,430000	56,250000
3,659764	945,632570	13,149	0,256219	22,430000	56,250000
3,659746	945,806622	13,199	0,256292	22,430000	56,250000
3,659752	945,497066	13,250	0,256162	22,430000	56,250000
3,659801	945,307827	13,301	0,256083	22,430000	56,250000
3,659775	945,331190	13,351	0,256093	22,430000	56,250000
3,659802	945,488889	13,401	0,256159	22,430000	56,250000
3,659791	945,314836	13,451	0,256086	22,430000	56,250000
3,659777	945,307827	13,501	0,256083	22,430000	56,250000
3,659775	945,243580	13,553	0,256056	22,430000	56,250000
3,659800	945,291474	13,603	0,256076	22,430000	56,250000
3,659745	945,188677	13,654	0,256033	22,430000	56,250000
3,659771	944,920006	13,705	0,255921	22,430000	56,250000
3,659822	945,173492	13,755	0,256027	22,420000	56,250000
3,659767	944,935192	13,805	0,255927	22,420000	56,250000
3,659833	944,777493	13,855	0,255861	22,420000	56,250000
3,659728	944,895475	13,905	0,255911	22,420000	56,250000
3,659857	945,069528	13,955	0,255983	22,420000	56,250000
3,659786	944,745954	14,005	0,255848	22,420000	56,250000
3,659810	945,157138	14,056	0,256020	22,420000	56,250000
3,659787	944,658343	14,106	0,255812	22,420000	56,250000
3,659835	944,745954	14,156	0,255848	22,420000	56,250000
3,659807	944,373318	14,206	0,255692	22,420000	56,250000
3,659807	944,792679	14,256	0,255868	22,420000	56,250000
3,659764	945,006448	14,306	0,255957	22,420000	56,250000
3,659768	944,754131	14,357	0,255852	22,420000	56,250000
3,659700	944,429388	14,407	0,255716	22,420000	56,250000
3,659794	944,508822	14,457	0,255749	22,420000	56,250000
3,659832	944,540361	14,507	0,255762	22,420000	56,250000
3,659783	944,492468	14,557	0,255742	22,420000	56,250000
3,659810	944,500645	14,607	0,255746	22,420000	56,250000
3,659829	944,714414	14,658	0,255835	22,420000	56,250000
3,659757	944,784502	14,708	0,255864	22,420000	56,250000
3,659861	944,167726	14,758	0,255606	22,420000	56,250000
3,659760	944,389672	14,809	0,255699	22,420000	56,250000
3,659772	944,460928	14,859	0,255729	22,420000	56,250000
3,659805	944,286876	14,909	0,255656	22,420000	56,250000
3,659779	944,223796	14,959	0,255630	22,420000	56,250000
3,659776	944,460928	15,009	0,255729	22,420000	56,250000
3,659827	944,175903	15,059	0,255610	22,420000	56,250000
3,659819	944,073107	15,109	0,255567	22,420000	56,250000
3,659819	944,199265	15,160	0,255620	22,420000	56,250000
3,659835	944,136186	15,210	0,255593	22,420000	56,250000
3,659799	943,938771	15,260	0,255511	22,420000	56,250000
3,659794	944,112823	15,310	0,255583	22,420000	56,250000
3,659861	944,286876	15,360	0,255656	22,420000	56,250000
3,659755	943,922417	15,410	0,255504	22,420000	56,250000
3,659771	943,915408	15,460	0,255501	22,420000	56,250000
3,659804	943,844152	15,510	0,255471	22,420000	56,250000
3,659834	943,811444	15,561	0,255458	22,420000	56,250000
3,659884	943,970311	15,615	0,255524	22,420000	56,250000
3,659814	943,677108	15,665	0,255401	22,420000	56,250000
3,659851	943,804435	15,716	0,255455	22,420000	56,250000
3,659713	943,890877	15,766	0,255491	22,420000	56,250000
3,659772	943,645569	15,816	0,255388	22,430000	56,260000
3,659822	943,582489	15,866	0,255362	22,430000	56,260000
3,659817	943,534596	15,916	0,255342	22,430000	56,260000
3,659783	943,448153	15,966	0,255306	22,430000	56,260000
3,659753	943,408437	16,016	0,255289	22,430000	56,260000
3,659841	943,385074	16,066	0,255279	22,430000	56,260000
3,659778	943,345357	16,116	0,255263	22,430000	56,260000
3,659799	943,899054	16,166	0,255494	22,430000	56,260000
3,659777	943,496047	16,217	0,255326	22,430000	56,260000
3,659862	943,804435	16,267	0,255455	22,430000	56,260000
3,659790	943,503056	16,317	0,255329	22,430000	56,260000
3,659732	943,431799	16,368	0,255299	22,430000	56,260000
3,659785	943,542773	16,418	0,255345	22,430000	56,260000
3,659870	943,566135	16,468	0,255355	22,430000	56,260000
3,659828	943,376897	16,519	0,255276	22,430000	56,260000
3,659784	943,408437	16,569	0,255289	22,430000	56,260000
3,659820	943,400260	16,620	0,255286	22,430000	56,260000
3,659827	943,534596	16,670	0,255342	22,430000	56,260000
3,659848	943,139765	16,720	0,255177	22,430000	56,260000
3,659762	943,163128	16,770	0,255187	22,430000	56,260000
3,659786	943,060332	16,820	0,255144	22,430000	56,260000
3,659835	943,091872	16,870	0,255157	22,430000	56,260000
3,659776	943,313818	16,920	0,255250	22,430000	56,260000
3,659808	943,194668	16,970	0,255200	22,430000	56,260000
3,659773	943,154951	17,020	0,255183	22,430000	56,260000
3,659872	943,083695	17,070	0,255153	22,430000	56,260000
3,659797	943,043978	17,120	0,255137	22,430000	56,260000
3,659799	943,100049	17,170	0,255160	22,430000	56,260000
3,659856	942,806846	17,221	0,255038	22,430000	56,260000
3,659761	942,901465	17,271	0,255077	22,430000	56,260000
3,659773	942,894456	17,321	0,255074	22,430000	56,260000
3,659777	942,720404	17,372	0,255001	22,430000	56,260000
3,659840	942,609431	17,423	0,254955	22,430000	56,260000
3,659772	942,664334	17,474	0,254978	22,430000	56,260000
3,659749	942,775307	17,524	0,255024	22,430000	56,260000
3,659806	942,593077	17,574	0,254948	22,430000	56,260000
3,659795	943,036969	17,624	0,255134	22,430000	56,260000
3,659787	942,831377	17,675	0,255048	22,430000	56,260000
3,659758	942,450564	17,725	0,254889	22,430000	56,260000
3,659824	942,695873	17,775	0,254991	22,430000	56,220000
3,659802	942,640971	17,825	0,254968	22,430000	56,220000
3,659766	942,735590	17,875	0,255008	22,430000	56,220000
3,659766	942,647980	17,925	0,254971	22,430000	56,220000
3,659786	942,695873	17,975	0,254991	22,430000	56,220000
3,659756	942,680687	18,027	0,254985	22,430000	56,220000
3,659762	942,577891	18,077	0,254942	22,430000	56,220000
3,659722	942,308052	18,127	0,254829	22,430000	56,220000
3,659774	942,419025	18,177	0,254875	22,430000	56,220000
3,659784	942,364122	18,227	0,254853	22,430000	56,220000
3,659793	942,412016	18,277	0,254873	22,430000	56,220000
3,659824	942,538175	18,328	0,254925	22,430000	56,220000
3,659812	942,355945	18,378	0,254849	22,430000	56,220000
3,659776	942,372299	18,428	0,254856	22,430000	56,220000
3,659767	942,268335	18,478	0,254812	22,430000	56,220000
3,659751	942,236795	18,528	0,254799	22,430000	56,220000
3,659762	942,427202	18,578	0,254879	22,430000	56,220000
3,659772	942,190070	18,628	0,254780	22,430000	56,220000
3,659767	942,221610	18,678	0,254793	22,430000	56,220000
3,659754	942,054566	18,728	0,254723	22,430000	56,220000
3,659780	941,722815	18,778	0,254584	22,430000	56,220000
3,659771	942,244972	18,828	0,254803	22,430000	56,220000
3,659812	941,611842	18,878	0,254538	22,430000	56,220000
3,659745	942,102460	18,928	0,254743	22,430000	56,220000
3,659853	941,968124	18,978	0,254687	22,430000	56,220000
3,659750	941,999664	19,028	0,254700	22,430000	56,220000
3,659780	941,714638	19,078	0,254581	22,430000	56,220000
3,659795	941,683098	19,128	0,254568	22,430000	56,220000
3,659754	941,968124	19,178	0,254687	22,430000	56,220000
3,659740	941,802248	19,228	0,254618	22,430000	56,220000
3,659771	941,928407	19,278	0,254670	22,430000	56,220000
3,659813	942,079097	19,328	0,254733	22,430000	56,220000
3,659763	941,762532	19,378	0,254601	22,430000	56,220000
3,659774	941,848974	19,428	0,254637	22,430000	56,220000
3,659796	942,016017	19,478	0,254707	22,430000	56,220000
3,659785	941,817434	19,528	0,254624	22,430000	56,220000
3,659770	941,770709	19,579	0,254604	22,430000	56,220000
3,659843	941,928407	19,629	0,254670	22,430000	56,220000
3,659773	941,596656	19,679	0,254532	22,430000	56,220000
3,659841	941,699452	19,730	0,254575	22,430000	56,250000
3,659771	941,525400	19,780	0,254502	22,430000	56,250000
3,659824	941,485683	19,830	0,254485	22,430000	56,250000
3,659816	941,635205	19,880	0,254548	22,430000	56,250000
3,659747	941,778886	19,930	0,254608	22,430000	56,250000
3,659792	941,620019	19,980	0,254542	22,430000	56,250000
3,659800	941,651559	20,031	0,254555	22,430000	56,250000
3,659801	941,565117	20,081	0,254519	22,430000	56,250000
3,659787	941,588479	20,131	0,254528	22,430000	56,250000
3,659778	941,714638	20,181	0,254581	22,430000	56,250000
3,659797	941,754355	20,231	0,254598	22,430000	56,250000
3,659826	941,359525	20,281	0,254433	22,430000	56,250000
3,659819	941,200658	20,331	0,254366	22,430000	56,250000
3,654781	936,841171	20,387	0,252544	22,430000	56,250000
3,649789	935,084293	20,437	0,251810	22,430000	56,250000
3,644760	926,751972	20,487	0,248327	22,430000	56,250000
3,639734	925,548791	20,539	0,247824	22,430000	56,250000
3,634809	916,916259	20,589	0,244215	22,430000	56,250000
3,629759	916,503906	20,639	0,244043	22,430000	56,250000
3,624717	907,562986	20,689	0,240306	22,430000	56,250000
3,619788	906,945041	20,739	0,240047	22,430000	56,250000
3,614766	897,924688	20,789	0,236277	22,430000	56,250000
3,609772	897,172408	20,839	0,235962	22,430000	56,250000
3,604786	888,001364	20,890	0,232129	22,430000	56,250000
3,599749	887,867029	20,940	0,232073	22,430000	56,250000
3,594849	878,221722	20,991	0,228041	22,430000	56,250000
3,589828	878,553473	21,042	0,228180	22,430000	56,250000
3,584758	868,868449	21,092	0,224131	22,430000	56,250000
3,579811	868,891812	21,143	0,224141	22,430000	56,250000
3,574805	860,242926	21,194	0,220526	22,430000	56,250000
3,569838	859,364487	21,244	0,220159	22,430000	56,250000
3,564777	854,047127	21,294	0,217936	22,430000	56,250000
3,559838	849,734366	21,345	0,216133	22,430000	56,250000
3,554794	844,907624	21,395	0,214116	22,430000	56,250000
3,549789	839,795856	21,445	0,211979	22,430000	56,250000
3,544818	835,221432	21,495	0,210067	22,430000	56,250000
3,539795	825,655558	21,546	0,206068	22,430000	56,250000
3,534841	825,655558	21,596	0,206068	22,430000	56,250000
3,529785	815,866571	21,647	0,201977	22,430000	56,250000
3,524820	813,951994	21,697	0,201176	22,430000	56,250000
3,519823	806,229441	21,747	0,197948	22,430000	56,250000
3,514780	805,611496	21,797	0,197690	22,430000	56,250000
3,509813	796,614505	21,847	0,193929	22,430000	56,250000
3,504809	796,092348	21,897	0,193711	22,430000	56,250000
3,499855	787,317303	21,947	0,190043	22,430000	56,250000
3,494856	786,889765	21,997	0,189864	22,430000	56,250000
3,489845	782,418137	22,047	0,187995	22,430000	56,250000
3,484801	777,243290	22,097	0,185832	22,430000	56,250000
3,479877	768,080424	22,147	0,182002	22,430000	56,250000
3,474834	765,113356	22,197	0,180762	22,430000	56,250000
3,469771	758,474834	22,248	0,177987	22,430000	56,250000
3,464816	756,733141	22,299	0,177259	22,430000	56,250000
3,459836	748,455723	22,350	0,173799	22,430000	56,250000
3,454882	746,913782	22,400	0,173154	22,430000	56,250000
3,449796	738,865318	22,450	0,169790	22,430000	56,250000
3,444809	739,229777	22,500	0,169942	22,430000	56,250000
3,439811	734,537371	22,550	0,167981	22,430000	56,250000
3,434838	727,834601	22,600	0,165179	22,430000	56,250000
3,429836	724,859356	22,650	0,163936	22,430000	56,250000
3,424825	719,019840	22,700	0,161495	22,430000	56,250000
3,419832	715,363571	22,750	0,159966	22,430000	56,250000
3,414809	709,207489	22,800	0,157393	22,430000	56,250000
3,409835	705,592105	22,850	0,155882	22,430000	56,250000
3,404859	699,902110	22,900	0,153503	22,430000	56,250000
3,399817	696,008710	22,950	0,151876	22,430000	56,250000
3,394870	690,359599	23,000	0,149515	22,430000	56,250000
3,389824	686,885560	23,050	0,148063	22,430000	56,250000
3,384814	680,950256	23,100	0,145582	22,430000	56,250000
3,379868	672,665829	23,150	0,142119	22,430000	56,250000
3,374773	671,455639	23,200	0,141613	22,430000	56,250000
3,369892	664,412941	23,250	0,138669	22,430000	56,250000
3,364810	661,729730	23,300	0,137547	22,430000	56,250000
3,359845	653,279428	23,350	0,134015	22,430000	56,250000
3,354836	652,361272	23,401	0,133631	22,430000	56,250000
3,349884	644,037128	23,451	0,130152	22,430000	56,250000
3,344876	643,387644	23,502	0,129880	22,430000	56,250000
3,339825	634,430370	23,552	0,126136	22,430000	56,250000
3,334816	634,074088	23,603	0,125987	22,430000	56,250000
3,329806	625,353945	23,654	0,122342	22,430000	56,250000
3,324830	624,783895	23,704	0,122104	22,430000	56,250000
3,319844	615,962124	23,754	0,118417	22,430000	56,235000
3,314871	615,289277	23,804	0,118135	22,430000	56,235000
3,309883	606,323826	23,855	0,114388	22,430000	56,235000
3,304873	605,627617	23,905	0,114097	22,430000	56,235000
3,299862	597,951789	23,955	0,110888	22,430000	56,235000
3,294903	595,505710	24,006	0,109866	22,430000	56,235000
3,289902	588,376570	24,056	0,106886	22,430000	56,235000
3,284844	586,342844	24,106	0,106036	22,430000	56,235000
3,279860	578,706732	24,156	0,102844	22,430000	56,235000
3,274872	577,188154	24,206	0,102209	22,430000	56,235000
3,269868	569,275194	24,256	0,098901	22,430000	56,235000
3,264874	567,501962	24,307	0,098160	22,430000	56,235000
3,259863	560,238487	24,357	0,095124	22,430000	56,235000
3,254870	557,658072	24,407	0,094045	22,430000	56,235000
3,249876	553,378018	24,457	0,092256	22,430000	56,235000
3,244865	548,186818	24,507	0,090086	22,430000	56,235000
3,239846	543,549314	24,557	0,088148	22,430000	56,235000
3,234882	533,776680	24,607	0,084063	22,430000	56,235000
3,229866	532,677463	24,657	0,083604	22,430000	56,235000
3,224913	526,148746	24,708	0,080875	22,430000	56,235000
3,219926	523,932790	24,758	0,079948	22,430000	56,235000
3,214908	514,715021	24,808	0,076095	22,430000	56,235000
3,209912	514,660119	24,858	0,076072	22,430000	56,235000
3,204908	505,305678	24,908	0,072162	22,430000	56,235000
3,199843	504,325611	24,958	0,071752	22,430000	56,235000
3,194929	500,931005	25,008	0,070333	22,430000	56,235000
3,189873	494,584517	25,059	0,067681	22,430000	56,235000
3,184856	491,110478	25,109	0,066229	22,430000	56,235000
3,179833	486,315275	25,160	0,064224	22,430000	56,235000
3,174862	481,528250	25,213	0,062223	22,430000	56,235000
3,169860	476,708517	25,263	0,060208	22,430000	56,235000
3,164849	472,040642	25,314	0,058257	22,430000	56,235000
3,159856	467,419492	25,364	0,056326	22,430000	56,235000
3,154824	462,710732	25,414	0,054357	22,430000	56,235000
3,149877	458,192378	25,464	0,052469	22,430000	56,235000
3,144897	453,325920	25,515	0,050435	22,430000	56,235000
3,139925	443,680613	25,565	0,046403	22,430000	56,235000
3,134890	442,706386	25,615	0,045996	22,430000	56,235000
3,129922	434,010775	25,666	0,042361	22,430000	56,235000
3,124892	434,128757	25,717	0,042410	22,430000	56,235000
3,119899	424,791838	25,767	0,038507	22,430000	56,235000
3,114924	424,894634	25,818	0,038550	22,430000	56,235000
3,109897	415,407026	25,868	0,034584	22,430000	56,235000
3,104885	415,058921	25,918	0,034439	22,430000	56,235000
3,099873	405,611029	25,969	0,030490	22,430000	56,235000
3,094908	405,713825	26,023	0,030533	22,430000	56,235000
3,089963	397,017045	26,073	0,026897	22,430000	56,235000
3,084915	396,439986	26,124	0,026656	22,430000	56,235000
3,079884	388,598282	26,174	0,023378	22,430000	56,235000
3,074924	387,126430	26,224	0,022763	22,430000	56,235000
3,069909	378,754392	26,274	0,019264	22,430000	56,235000
3,064946	377,536025	26,324	0,018754	22,430000	56,235000
3,059905	370,248019	26,375	0,015708	22,430000	56,235000
3,054888	368,143036	26,425	0,014828	22,430000	56,235000
3,049925	360,633084	26,475	0,011689	22,430000	56,235000
3,044910	358,345871	26,525	0,010733	22,430000	56,235000
3,039882	351,256448	26,575	0,007770	22,430000	56,235000
3,034902	349,065023	26,625	0,006854	22,430000	56,235000
3,029906	341,745477	26,675	0,003794	22,430000	56,235000
3,024887	339,418548	26,725	0,002821	22,430000	56,235000
3,019938	332,320948	26,775	-0,000146	22,430000	56,235000
3,014912	329,922763	26,825	-0,001148	22,430000	56,235000
3,009939	323,015569	26,875	-0,004035	22,430000	56,235000
3,004919	320,768073	26,925	-0,004975	22,430000	56,235000
2,999891	313,574686	26,975	-0,007981	22,430000	56,235000
2,994913	311,090059	27,025	-0,009020	22,430000	56,235000
2,989912	304,040352	27,075	-0,011967	22,430000	56,235000
2,984874	301,792857	27,125	-0,012906	22,430000	56,235000
2,979876	294,528213	27,175	-0,015943	22,430000	56,235000
2,974958	292,241001	27,225	-0,016899	22,430000	56,235000
2,969914	284,881738	27,275	-0,019975	22,430000	56,235000
2,964896	282,555977	27,325	-0,020947	22,430000	56,235000
2,959944	275,062379	27,375	-0,024080	22,430000	56,235000
2,954930	272,633822	27,425	-0,025095	22,430000	56,235000
2,949899	266,445032	27,475	-0,027682	22,430000	56,235000
2,944937	263,572583	27,525	-0,028882	22,430000	56,235000
2,939906	256,768186	27,575	-0,031727	22,430000	56,235000
2,934920	253,673791	27,625	-0,033020	22,430000	56,235000
2,929914	246,465218	27,675	-0,036033	22,430000	56,235000
2,924943	244,114926	27,725	-0,037016	22,430000	56,235000
2,919902	236,779026	27,775	-0,040082	22,430000	56,235000
2,914891	235,133121	27,825	-0,040770	22,430000	56,235000
2,909923	228,850880	27,875	-0,043396	22,430000	56,235000
2,904907	225,930538	27,925	-0,044617	22,430000	56,235000
2,899893	219,283839	27,975	-0,047395	22,430000	56,235000
2,894912	216,229160	28,025	-0,048672	22,430000	56,235000
2,889900	208,561509	28,075	-0,051877	22,430000	56,235000
2,884894	207,160913	28,125	-0,052462	22,430000	56,235000
2,879963	200,648550	28,175	-0,055185	22,430000	56,235000
2,874961	197,396456	28,225	-0,056544	22,430000	56,235000
2,869936	191,152764	28,275	-0,059154	22,430000	56,235000
2,864886	187,956742	28,325	-0,060490	22,430000	56,235000
2,859947	180,589302	28,375	-0,063569	22,430000	56,235000
2,854929	178,721451	28,425	-0,064350	22,430000	56,235000
2,849933	171,504701	28,475	-0,067367	22,430000	56,235000
2,844957	169,226834	28,526	-0,068319	22,430000	56,235000
2,839931	162,666576	28,576	-0,071061	22,430000	56,235000
2,834977	159,666801	28,626	-0,072315	22,430000	56,235000
2,829925	153,384560	28,676	-0,074941	22,430000	56,235000
2,824903	150,147653	28,726	-0,076294	22,430000	56,235000
2,819894	144,371215	28,776	-0,078708	22,430000	56,235000
2,814917	140,802557	28,826	-0,080200	22,430000	56,235000
2,809936	134,686192	28,876	-0,082757	22,430000	56,235000
2,804907	131,172436	28,926	-0,084226	22,430000	56,235000
2,799881	125,324742	28,976	-0,086670	22,430000	56,235000
2,794909	122,024755	29,026	-0,088049	22,430000	56,235000
2,789935	115,647895	29,076	-0,090715	22,430000	56,235000
2,784925	112,134140	29,127	-0,092184	22,430000	56,235000
2,779943	107,219787	29,177	-0,094238	22,430000	56,235000
2,775007	102,931557	29,228	-0,096030	22,430000	56,235000
2,769927	97,756710	29,278	-0,098193	22,430000	56,235000
2,764921	93,404231	29,329	-0,100013	22,430000	56,235000
2,759931	83,813827	29,379	-0,104021	22,430000	56,235000
2,754903	82,065126	29,429	-0,104752	22,430000	56,235000
2,749940	78,987085	29,479	-0,106039	22,430000	56,235000
2,744857	70,464358	29,529	-0,109602	22,430000	56,235000
2,739943	69,641989	29,579	-0,109945	22,430000	56,235000
2,734941	64,465975	29,630	-0,112109	22,430000	56,235000
2,729919	60,477955	29,680	-0,113776	22,430000	56,235000
2,724989	52,122271	29,731	-0,117269	22,430000	56,235000
2,719937	51,164399	29,782	-0,117669	22,430000	56,250000
2,714877	42,990945	29,833	-0,121085	22,430000	56,250000
2,709944	41,573994	29,884	-0,121678	22,430000	56,250000
2,704938	36,153839	29,935	-0,123943	22,430000	56,250000
2,699950	31,445079	29,985	-0,125912	22,430000	56,250000
2,694907	25,867225	30,035	-0,128243	22,430000	56,250000
2,689946	22,923520	30,085	-0,129474	22,430000	56,250000
2,684932	16,742907	30,135	-0,132057	22,430000	56,250000
2,679908	13,459274	30,185	-0,133430	22,430000	56,250000
2,674955	8,087012	30,236	-0,135675	22,430000	56,250000
2,669950	4,082639	30,287	-0,137349	22,430000	56,250000
2,664978	-5,350067	30,337	-0,141292	22,430000	56,250000
2,659932	-5,436509	30,392	-0,141328	22,430000	56,250000