File: Nanoindentation Datenauswertung/data/S_calib/S_calib_2208-1
Quasi static measurement routine
Tip parameters (shape,radius, material...)
22.08.2022

Piezo position[nm]	MEMS displ.[nm]	Time[ms]	Cap [pf]	Temp [°C]	Rh [%]
eoh
2,590066	0,316565	0,193	-0,132695	22,380000	52,345000
2,596653	3,243916	0,306	-0,131472	22,380000	52,345000
2,603269	10,271428	0,407	-0,128534	22,380000	52,345000
2,609986	16,245281	0,524	-0,126037	22,380000	52,345000
2,616660	26,097348	0,631	-0,121919	22,380000	52,345000
2,623257	32,316509	0,746	-0,119319	22,380000	52,345000
2,630021	38,860412	0,859	-0,116584	22,380000	52,345000
2,636639	41,772578	0,986	-0,115367	22,380000	52,345000
2,643290	48,293118	1,086	-0,112641	22,380000	52,345000
2,649986	56,831031	1,186	-0,109072	22,380000	52,345000
2,656633	61,389102	1,286	-0,107167	22,380000	52,345000
2,663276	68,090703	1,390	-0,104366	22,380000	52,345000
2,670001	75,758355	1,490	-0,101161	22,380000	52,345000
2,676663	82,113020	1,591	-0,098504	22,380000	52,345000
2,683299	89,804033	1,692	-0,095290	22,380000	52,345000
2,690013	95,343339	1,808	-0,092974	22,380000	52,345000
2,696685	101,404802	1,908	-0,090440	22,380000	52,345000
2,703315	107,292212	2,010	-0,087979	22,380000	52,345000
2,710028	113,598983	2,112	-0,085343	22,380000	52,345000
2,716662	118,956059	2,213	-0,083104	22,380000	52,345000
2,723315	125,546688	2,313	-0,080349	22,380000	52,345000
2,730007	131,924716	2,413	-0,077683	22,380000	52,345000
2,736682	137,464021	2,516	-0,075368	22,380000	52,345000
2,743366	147,299735	2,616	-0,071256	22,380000	52,345000
2,749986	153,677762	2,717	-0,068590	22,380000	52,345000
2,756666	159,992711	2,817	-0,065951	22,380000	52,345000
2,763280	163,165371	2,918	-0,064625	22,380000	52,345000
2,770011	169,654372	3,024	-0,061912	22,380000	52,345000
2,776677	178,691079	3,125	-0,058135	22,380000	52,345000
2,783297	182,377719	3,225	-0,056594	22,380000	52,345000
2,790028	191,818602	3,325	-0,052647	22,380000	52,345000
2,796629	197,989870	3,425	-0,050068	22,380000	52,345000
2,803323	202,050314	3,526	-0,048371	22,380000	52,345000
2,809967	210,358104	3,626	-0,044898	22,380000	52,345000
2,816640	214,496813	3,728	-0,043168	22,380000	52,345000
2,823282	223,137522	3,828	-0,039556	22,380000	52,345000
2,829971	229,777213	3,928	-0,036781	22,380000	52,345000
2,836630	235,387775	4,028	-0,034436	22,380000	52,345000
2,843361	240,079013	4,128	-0,032475	22,380000	52,345000
2,849968	248,056220	4,229	-0,029140	22,380000	52,345000
2,856616	253,642251	4,331	-0,026805	22,380000	52,345000
2,863355	259,624280	4,432	-0,024305	22,380000	52,345000
2,869988	268,874757	4,534	-0,020438	22,380000	52,345000
2,876684	272,158390	4,634	-0,019065	22,380000	52,345000
2,883261	278,370542	4,734	-0,016469	22,380000	52,345000
2,889970	284,763756	4,834	-0,013796	22,380000	52,345000
2,896616	291,213040	4,934	-0,011101	22,380000	52,345000
2,903324	297,266326	5,034	-0,008570	22,380000	52,345000
2,910003	303,945733	5,134	-0,005778	22,380000	52,345000
2,916574	310,426557	5,234	-0,003069	22,380000	52,345000
2,923301	319,905988	5,341	0,000893	22,380000	52,345000
2,929961	325,587807	5,442	0,003268	22,380000	52,345000
2,936669	332,566257	5,542	0,006185	22,380000	52,345000
2,943294	339,158054	5,642	0,008940	22,380000	52,345000
2,950000	345,377215	5,744	0,011540	22,380000	52,345000
2,956617	349,215713	5,845	0,013145	22,380000	52,345000
2,963273	355,466414	5,946	0,015757	22,370000	52,345000
2,969987	361,686743	6,046	0,018357	22,370000	52,345000
2,976596	367,786754	6,146	0,020907	22,370000	52,345000
2,983248	376,016279	6,247	0,024347	22,370000	52,345000
2,990002	382,592890	6,348	0,027096	22,370000	52,345000
2,996673	388,329611	6,449	0,029494	22,370000	52,345000
3,003258	394,042969	6,549	0,031882	22,370000	52,345000
3,009934	400,649951	6,649	0,034644	22,370000	52,345000
3,016635	406,837573	6,750	0,037230	22,370000	52,345000
3,023276	413,238963	6,850	0,039906	22,370000	52,345000
3,029923	419,340143	6,981	0,042457	22,370000	52,345000
3,036573	425,481039	7,083	0,045023	22,370000	52,345000
3,043323	431,771456	7,183	0,047653	22,370000	52,345000
3,049965	439,312949	7,285	0,050805	22,370000	52,345000
3,056600	445,066023	7,385	0,053210	22,370000	52,345000
3,063288	451,301538	7,485	0,055816	22,370000	52,345000
3,070038	457,409726	7,586	0,058370	22,370000	52,345000
3,076591	463,645241	7,686	0,060976	22,370000	52,345000
3,083234	471,787156	7,787	0,064379	22,370000	52,345000
3,089977	478,363767	7,887	0,067128	22,370000	52,345000
3,096628	484,654185	7,987	0,069758	22,380000	52,360000
3,103246	489,497281	8,088	0,071782	22,380000	52,360000
3,109915	495,985113	8,188	0,074494	22,380000	52,360000
3,116624	505,045184	8,289	0,078281	22,380000	52,360000
3,123276	508,875505	8,390	0,079882	22,380000	52,360000
3,129926	514,786278	8,491	0,082353	22,380000	52,360000
3,136571	521,362889	8,591	0,085102	22,380000	52,360000
3,143274	527,613590	8,692	0,087715	22,380000	52,360000
3,149952	533,975264	8,793	0,090374	22,380000	52,360000
3,156575	540,338106	8,894	0,093034	22,380000	52,360000
3,163243	546,714965	8,994	0,095699	22,380000	52,360000
3,169940	553,172426	9,094	0,098398	22,380000	52,360000
3,176581	560,800361	9,195	0,101587	22,380000	52,360000
3,183232	565,714713	9,296	0,103641	22,380000	52,360000
3,189889	572,306510	9,396	0,106396	22,380000	52,360000
3,196643	578,565388	9,497	0,109013	22,380000	52,360000
3,203275	584,911876	9,598	0,111666	22,380000	52,360000
3,209962	594,161184	9,698	0,115532	22,380000	52,360000
3,216552	600,848768	9,798	0,118327	22,380000	52,360000
3,223240	607,170726	9,899	0,120970	22,380000	52,360000
3,229888	613,603656	9,999	0,123659	22,380000	52,320000
3,236608	619,602039	10,099	0,126166	22,380000	52,320000
3,243250	626,200845	10,199	0,128924	22,380000	52,320000
3,249936	632,373281	10,300	0,131504	22,380000	52,320000
3,256613	638,973254	10,400	0,134263	22,380000	52,320000
3,263212	645,200592	10,501	0,136866	22,380000	52,320000
3,269921	650,731721	10,602	0,139178	22,380000	52,320000
3,276622	657,046669	10,704	0,141818	22,380000	52,320000
3,283238	663,416520	10,804	0,144480	22,380000	52,320000
3,289922	669,809734	10,904	0,147153	22,380000	52,320000
3,296539	675,467021	11,005	0,149518	22,380000	52,320000
3,303264	681,964199	11,105	0,152233	22,380000	52,320000
3,309870	687,107506	11,205	0,154383	22,380000	52,320000
3,316555	693,303304	11,305	0,156973	22,380000	52,320000
3,323237	700,916053	11,405	0,160155	22,380000	52,320000
3,329961	709,271737	11,505	0,163648	22,380000	52,320000
3,336578	713,607861	11,605	0,165460	22,380000	52,320000
3,343261	721,908642	11,706	0,168930	22,380000	52,320000
3,349875	726,206218	11,806	0,170727	22,380000	52,320000
3,356529	732,006018	11,907	0,173151	22,380000	52,320000
3,363222	738,359515	12,007	0,175807	22,370000	52,335000
3,369881	744,278465	12,108	0,178281	22,370000	52,335000
3,376619	750,688033	12,209	0,180960	22,370000	52,335000
3,383297	757,105777	12,309	0,183643	22,370000	52,335000
3,389911	763,198780	12,411	0,186189	22,370000	52,335000
3,396577	769,616524	12,511	0,188872	22,370000	52,335000
3,403215	776,017915	12,612	0,191548	22,370000	52,335000
3,409894	782,498738	12,712	0,194257	22,370000	52,335000
3,416521	792,191939	12,814	0,198309	22,370000	52,335000
3,423173	797,106291	12,915	0,200363	22,370000	52,335000
3,429873	805,082330	13,015	0,203697	22,370000	52,335000
3,436555	811,246589	13,116	0,206273	22,370000	52,335000
3,443198	817,584900	13,217	0,208923	22,370000	52,335000
3,449897	823,409231	13,318	0,211357	22,370000	52,335000
3,456622	827,404259	13,434	0,213027	22,370000	52,335000
3,463184	833,521793	13,534	0,215584	22,370000	52,335000
3,469833	839,812210	13,635	0,218214	22,370000	52,335000
3,476553	845,960115	13,735	0,220784	22,370000	52,335000
3,483164	852,488833	13,835	0,223513	22,370000	52,335000
3,489918	862,158670	13,935	0,227555	22,370000	52,335000
3,496550	868,433902	14,035	0,230178	22,370000	52,335000
3,503149	875,064248	14,135	0,232949	22,370000	52,335000
3,509884	880,809145	14,236	0,235351	22,370000	52,335000
3,516473	887,266606	14,336	0,238050	22,370000	52,335000
3,523227	894,016102	14,436	0,240871	22,370000	52,335000
3,529938	897,299735	14,545	0,242244	22,370000	52,335000
3,536528	903,914894	14,645	0,245009	22,370000	52,335000
3,543214	910,577947	14,745	0,247794	22,370000	52,335000
3,549855	916,899905	14,845	0,250437	22,370000	52,335000
3,556497	923,491702	14,945	0,253192	22,370000	52,335000
3,563206	929,196882	15,046	0,255577	22,370000	52,335000
3,569838	935,669529	15,146	0,258282	22,370000	52,335000
3,576557	941,881682	15,246	0,260879	22,370000	52,335000
3,583233	948,054117	15,347	0,263459	22,370000	52,335000
3,589816	954,676286	15,447	0,266227	22,370000	52,335000
3,596528	961,085853	15,548	0,268906	22,370000	52,335000
3,603206	967,591208	15,648	0,271625	22,370000	52,335000
3,609842	973,565061	15,748	0,274123	22,370000	52,335000
3,616516	980,204751	15,849	0,276898	22,370000	52,335000
3,623138	986,503346	15,950	0,279531	22,370000	52,320000
3,629813	992,888382	16,051	0,282200	22,370000	52,320000
3,636534	998,966199	16,151	0,284740	22,370000	52,320000
3,643146	1005,422492	16,252	0,287439	22,370000	52,320000
3,649869	1011,864767	16,352	0,290132	22,370000	52,320000
3,656498	1018,249804	16,452	0,292801	22,370000	52,320000
3,663231	1027,026017	16,552	0,296469	22,370000	52,320000
3,669821	1033,989281	16,653	0,299380	22,370000	52,320000
3,676490	1038,807846	16,753	0,301394	22,370000	52,320000
3,683187	1046,863319	16,854	0,304761	22,370000	52,320000
3,689781	1052,885065	16,955	0,307278	22,370000	52,320000
3,696444	1059,785250	17,056	0,310163	22,370000	52,320000
3,703152	1065,767279	17,156	0,312663	22,370000	52,320000
3,709801	1072,239926	17,256	0,315369	22,370000	52,320000
3,716457	1078,357459	17,356	0,317926	22,370000	52,320000
3,723146	1084,608160	17,456	0,320539	22,370000	52,320000
3,729838	1091,246682	17,556	0,323313	22,370000	52,320000
3,736467	1096,414520	17,656	0,325474	22,370000	52,320000
3,743159	1100,488982	17,757	0,327177	22,370000	52,320000
3,749873	1107,491963	17,859	0,330104	22,370000	52,320000
3,756511	1113,538240	17,959	0,332631	22,370000	52,320000
3,763121	1121,071555	18,059	0,335780	22,370000	52,320000
3,769825	1126,649409	18,159	0,338112	22,370000	52,320000
3,776475	1132,773951	18,261	0,340672	22,370000	52,320000
3,783126	1139,097077	18,367	0,343315	22,370000	52,320000
3,789829	1145,538184	18,467	0,346007	22,370000	52,320000
3,796468	1151,805239	18,567	0,348627	22,370000	52,320000
3,803145	1158,357319	18,668	0,351366	22,370000	52,320000
3,809883	1164,418782	18,769	0,353899	22,370000	52,320000
3,816483	1170,859889	18,869	0,356592	22,370000	52,320000
3,823178	1177,506588	18,969	0,359370	22,370000	52,320000
3,829846	1183,622953	19,069	0,361927	22,370000	52,320000
3,836467	1190,111954	19,170	0,364639	22,370000	52,320000
3,843152	1199,718713	19,270	0,368655	22,370000	52,320000
3,849798	1205,929697	19,371	0,371251	22,370000	52,320000
3,856533	1211,651232	19,473	0,373643	22,370000	52,320000
3,863155	1218,954424	19,573	0,376695	22,370000	52,320000
3,869746	1224,097731	19,674	0,378845	22,370000	52,320000
3,876509	1228,489926	19,791	0,380681	22,370000	52,320000
3,883156	1234,702078	19,892	0,383278	22,370000	52,320000
3,889806	1241,269344	19,992	0,386023	22,380000	52,360000
3,896490	1250,471927	20,092	0,389870	22,380000	52,360000
3,903189	1257,039193	20,192	0,392615	22,380000	52,360000
3,909764	1263,758317	20,292	0,395423	22,380000	52,360000
3,916458	1269,304631	20,394	0,397742	22,380000	52,360000
3,923133	1276,252710	20,495	0,400646	22,380000	52,360000
3,929782	1280,225544	20,601	0,402307	22,380000	52,360000
3,936522	1286,317378	20,701	0,404853	22,380000	52,360000
3,943102	1293,170838	20,801	0,407718	22,380000	52,360000
3,949818	1298,708975	20,902	0,410033	22,380000	52,360000
3,956473	1305,078826	21,003	0,412695	22,380000	52,360000
3,963105	1311,141457	21,104	0,415229	22,380000	52,360000
3,969817	1317,827873	21,204	0,418024	22,380000	52,360000
3,976491	1325,011915	21,305	0,421027	22,380000	52,360000
3,983162	1330,242832	21,405	0,423214	22,380000	52,360000
3,989793	1336,818275	21,505	0,425962	22,380000	52,360000
3,996459	1343,172940	21,605	0,428619	22,380000	52,360000
4,003086	1349,708667	21,706	0,431351	22,380000	52,360000
4,009792	1355,508467	21,807	0,433775	22,380000	52,360000
4,016487	1362,045361	21,907	0,436507	22,380000	52,360000
4,023146	1368,367318	22,007	0,439150	22,370000	52,345000
4,029813	1374,904213	22,108	0,441882	22,370000	52,345000
4,036487	1381,226170	22,208	0,444525	22,370000	52,345000
4,043129	1387,516588	22,308	0,447154	22,370000	52,345000
4,049819	1393,919146	22,409	0,449831	22,370000	52,345000
4,056422	1402,725731	22,509	0,453512	22,370000	52,345000
4,063131	1406,271026	22,610	0,454994	22,370000	52,345000
4,069818	1413,004168	22,712	0,457808	22,370000	52,345000
4,076467	1422,199742	22,814	0,461652	22,370000	52,345000
4,083160	1426,646839	22,915	0,463511	22,370000	52,345000
4,089764	1432,905717	23,020	0,466127	22,370000	52,345000
4,096458	1438,388952	23,120	0,468419	22,370000	52,345000
4,103085	1445,028643	23,221	0,471194	22,370000	52,345000
4,109736	1452,039801	23,322	0,474125	22,370000	52,345000
4,116496	1457,055781	23,424	0,476222	22,370000	52,345000
4,123106	1463,932603	23,524	0,479096	22,370000	52,345000
4,129809	1473,348955	23,624	0,483032	22,370000	52,345000
4,136471	1479,441958	23,724	0,485579	22,370000	52,345000
4,143095	1485,756906	23,824	0,488219	22,370000	52,345000
4,149770	1492,315995	23,925	0,490960	22,370000	52,345000
4,156465	1498,987225	24,026	0,493749	22,370000	52,320000
4,163087	1504,273045	24,127	0,495958	22,370000	52,320000
4,169760	1508,300781	24,227	0,497642	22,370000	52,320000
4,176434	1514,662455	24,327	0,500301	22,370000	52,320000
4,183086	1520,834891	24,428	0,502881	22,370000	52,320000
4,189757	1528,645055	24,529	0,506146	22,370000	52,320000
4,196426	1533,455443	24,629	0,508157	22,370000	52,320000
4,203080	1540,158212	24,729	0,510958	22,370000	52,320000
4,209787	1546,511709	24,831	0,513614	22,370000	52,320000
4,216476	1553,025241	24,933	0,516337	22,370000	52,320000
4,223156	1559,046987	25,034	0,518854	22,370000	52,320000
4,229792	1565,503280	25,134	0,521553	22,370000	52,320000
4,236448	1572,965339	25,234	0,524672	22,370000	52,320000
4,243103	1581,092068	25,336	0,528069	22,370000	52,320000
4,249762	1584,534568	25,437	0,529508	22,370000	52,320000
4,256361	1590,770083	25,538	0,532114	22,370000	52,320000
4,263098	1597,345526	25,638	0,534863	22,370000	52,320000
4,269693	1603,755093	25,739	0,537542	22,370000	52,320000
4,276422	1610,030325	25,840	0,540165	22,370000	52,320000
4,283053	1616,400176	25,943	0,542828	22,380000	52,335000
4,289747	1622,564434	26,043	0,545404	22,380000	52,335000
4,296379	1629,108338	26,144	0,548140	22,380000	52,335000
4,303099	1635,794754	26,244	0,550935	22,380000	52,335000
4,309754	1641,642447	26,345	0,553379	22,380000	52,335000
4,316426	1648,272793	26,447	0,556150	22,380000	52,335000
4,323110	1654,564378	26,548	0,558780	22,380000	52,335000
4,329776	1662,010083	26,648	0,561893	22,380000	52,335000
4,336364	1667,090311	26,748	0,564016	22,380000	52,335000
4,343078	1675,280119	26,848	0,567439	22,380000	52,335000
4,349722	1683,113646	26,948	0,570714	22,380000	52,335000
4,356397	1689,214825	27,049	0,573264	22,380000	52,335000
4,363056	1695,268111	27,149	0,575794	22,380000	52,335000
4,369743	1701,574882	27,250	0,578431	22,380000	52,335000
4,376372	1708,095423	27,350	0,581156	22,380000	52,335000
4,383095	1714,236319	27,450	0,583723	22,380000	52,335000
4,389743	1719,276830	27,552	0,585830	22,380000	52,335000
4,396351	1726,113935	27,653	0,588688	22,380000	52,335000
4,403036	1733,599357	27,753	0,591817	22,380000	52,335000
4,409723	1737,151662	27,881	0,593302	22,380000	52,335000
4,416431	1743,229478	27,982	0,595842	22,380000	52,320000
4,423062	1749,677594	28,083	0,598538	22,380000	52,320000
4,429757	1756,055622	28,183	0,601204	22,380000	52,320000
4,436365	1762,354217	28,283	0,603836	22,380000	52,320000
4,443046	1771,739029	28,383	0,607759	22,380000	52,320000
4,449696	1778,386896	28,483	0,610538	22,380000	52,320000
4,456386	1783,268541	28,591	0,612579	22,380000	52,320000
4,463049	1789,101049	28,691	0,615017	22,380000	52,320000
4,469728	1794,117029	28,791	0,617113	22,380000	52,320000
4,476409	1800,495056	28,892	0,619779	22,380000	52,320000
4,483028	1807,126570	28,994	0,622551	22,380000	52,320000
4,489693	1813,401802	29,094	0,625174	22,380000	52,320000
4,496344	1820,776250	29,194	0,628257	22,380000	52,320000
4,503021	1826,386812	29,295	0,630602	22,380000	52,320000
4,509705	1832,360665	29,396	0,633099	22,380000	52,320000
4,516386	1838,770232	29,496	0,635778	22,380000	52,320000
4,523065	1845,282596	29,597	0,638500	22,380000	52,320000
4,529704	1852,974778	29,699	0,641716	22,380000	52,320000
4,536366	1860,680977	29,800	0,644937	22,380000	52,320000
4,543033	1867,115076	29,901	0,647626	22,380000	52,320000
4,549692	1873,428856	30,003	0,650266	22,390000	52,360000
4,556334	1879,530035	30,103	0,652816	22,390000	52,360000
4,563005	1883,344002	30,203	0,654410	22,390000	52,360000
4,569659	1889,493075	30,303	0,656980	22,390000	52,360000
4,576316	1895,926006	30,403	0,659669	22,390000	52,360000
4,583007	1901,987468	30,503	0,662203	22,390000	52,360000
4,589706	1908,428575	30,603	0,664896	22,390000	52,360000
4,589713	1911,498439	30,704	0,666179	22,390000	52,360000
4,589663	1911,521802	30,804	0,666188	22,390000	52,360000
4,589707	1911,410829	30,906	0,666142	22,390000	52,360000
4,589669	1911,047539	31,006	0,665990	22,390000	52,360000
4,589667	1911,244954	31,106	0,666073	22,390000	52,360000
4,589613	1910,873486	31,207	0,665917	22,390000	52,360000
4,589678	1910,928389	31,307	0,665940	22,390000	52,360000
4,589738	1910,825592	31,407	0,665897	22,390000	52,360000
4,589640	1910,810407	31,507	0,665891	22,390000	52,360000
4,589624	1910,525381	31,609	0,665772	22,390000	52,360000
4,583017	1904,765298	31,709	0,663364	22,390000	52,360000
4,576382	1899,050772	31,809	0,660976	22,390000	52,360000
4,569694	1893,789483	31,910	0,658776	22,390000	52,360000
4,563046	1887,292305	32,014	0,656061	22,380000	52,345000
4,556340	1877,900484	32,115	0,652135	22,380000	52,345000
4,549707	1871,316864	32,215	0,649383	22,380000	52,345000
4,543023	1868,190930	32,316	0,648076	22,380000	52,345000
4,536353	1861,622496	32,416	0,645331	22,380000	52,345000
4,529677	1855,189565	32,516	0,642642	22,380000	52,345000
4,523002	1848,614122	32,616	0,639893	22,380000	52,345000
4,516333	1842,410147	32,716	0,637300	22,380000	52,345000
4,509687	1835,684014	32,816	0,634488	22,380000	52,345000
4,503034	1829,401774	32,918	0,631862	22,380000	52,345000
4,496373	1819,684042	33,019	0,627800	22,380000	52,345000
4,489725	1813,227749	33,119	0,625102	22,380000	52,345000
4,483055	1806,778465	33,219	0,622406	22,380000	52,345000
4,476370	1800,131766	33,320	0,619627	22,380000	52,345000
4,469694	1793,974516	33,421	0,617054	22,380000	52,345000
4,463015	1788,705050	33,522	0,614851	22,380000	52,345000
4,456409	1780,783913	33,623	0,611540	22,380000	52,345000
4,449740	1777,666156	33,725	0,610237	22,380000	52,345000
4,443049	1768,107291	33,826	0,606241	22,380000	52,345000
4,436410	1762,504906	33,927	0,603899	22,380000	52,345000
4,429754	1755,961003	34,027	0,601164	22,380000	52,345000
4,423007	1751,593339	34,128	0,599338	22,380000	52,345000
4,416380	1743,030895	34,228	0,595759	22,380000	52,345000
4,409718	1737,325714	34,329	0,593375	22,380000	52,345000
4,403046	1731,786408	34,430	0,591059	22,380000	52,345000
4,396459	1725,900166	34,530	0,588599	22,380000	52,345000
4,389747	1718,675239	34,631	0,585579	22,380000	52,345000
4,383081	1709,789221	34,732	0,581864	22,380000	52,345000
4,376390	1703,394840	34,834	0,579191	22,380000	52,345000
4,369688	1696,842759	34,941	0,576453	22,380000	52,345000
4,363075	1690,671492	35,042	0,573873	22,380000	52,345000
4,356415	1684,174314	35,142	0,571157	22,380000	52,345000
4,349754	1678,026409	35,243	0,568587	22,380000	52,345000
4,343027	1671,830611	35,345	0,565998	22,380000	52,345000
4,336396	1666,022634	35,446	0,563570	22,380000	52,345000
4,329739	1659,628252	35,547	0,560897	22,380000	52,345000
4,323115	1653,843638	35,648	0,558479	22,380000	52,345000
4,316458	1647,110496	35,748	0,555665	22,380000	52,345000
4,309714	1640,613319	35,848	0,552949	22,380000	52,345000
4,303078	1634,220105	35,948	0,550276	22,370000	52,335000
4,296374	1629,005542	36,049	0,548097	22,370000	52,335000
4,289754	1622,595974	36,149	0,545417	22,370000	52,335000
4,283089	1616,257663	36,249	0,542768	22,370000	52,335000
4,276414	1609,990608	36,351	0,540148	22,370000	52,335000
4,269760	1603,692014	36,451	0,537516	22,370000	52,335000
4,263052	1596,997421	36,552	0,534717	22,370000	52,335000
4,256436	1590,468703	36,652	0,531988	22,370000	52,335000
4,249767	1583,624589	36,754	0,529127	22,370000	52,335000
4,243072	1577,705639	36,854	0,526653	22,370000	52,335000
4,236389	1571,461947	36,955	0,524043	22,370000	52,335000
4,229733	1564,815247	37,055	0,521265	22,370000	52,335000
4,223080	1558,737431	37,156	0,518725	22,370000	52,335000
4,216461	1552,249598	37,257	0,516013	22,370000	52,335000
4,209722	1542,286558	37,357	0,511848	22,370000	52,335000
4,203068	1536,392139	37,458	0,509384	22,370000	52,335000
4,196415	1529,657829	37,559	0,506569	22,370000	52,335000
4,189730	1523,445677	37,659	0,503973	22,370000	52,335000
4,183060	1519,830293	37,759	0,502461	22,370000	52,335000
4,176421	1510,523746	37,859	0,498571	22,370000	52,335000
4,169763	1507,011158	37,961	0,497103	22,370000	52,335000
4,163118	1500,712564	38,061	0,494470	22,370000	52,335000
4,156458	1494,579844	38,164	0,491907	22,370000	52,335000
4,149806	1488,059304	38,264	0,489181	22,370000	52,335000
4,143047	1481,444144	38,364	0,486416	22,370000	52,335000
4,136455	1475,397867	38,464	0,483889	22,370000	52,335000
4,129746	1468,672903	38,564	0,481078	22,370000	52,335000
4,123083	1460,854562	38,665	0,477810	22,370000	52,335000
4,116455	1455,204284	38,766	0,475448	22,370000	52,335000
4,109774	1449,285334	38,866	0,472974	22,370000	52,335000
4,103070	1443,081358	38,966	0,470380	22,370000	52,335000
4,096478	1436,514092	39,067	0,467635	22,370000	52,335000
4,089804	1430,429267	39,168	0,465092	22,370000	52,335000
4,083157	1420,822509	39,268	0,461076	22,370000	52,335000
4,076414	1417,412717	39,369	0,459651	22,370000	52,335000
4,069819	1410,615328	39,469	0,456810	22,370000	52,335000
4,063176	1404,418361	39,570	0,454219	22,370000	52,335000
4,056426	1398,192191	39,671	0,451617	22,370000	52,335000
4,049780	1391,600394	39,772	0,448861	22,370000	52,335000
4,043095	1385,411605	39,872	0,446274	22,370000	52,335000
4,036443	1378,733366	39,972	0,443483	22,380000	52,360000
4,029808	1373,447546	40,072	0,441273	22,380000	52,360000
4,023126	1362,931977	40,173	0,436878	22,380000	52,360000
4,016523	1356,434799	40,274	0,434162	22,380000	52,360000
4,009724	1350,167744	40,375	0,431542	22,380000	52,360000
4,003118	1347,010270	40,475	0,430223	22,380000	52,360000
3,996447	1338,954798	40,584	0,426855	22,380000	52,360000
3,989783	1332,838433	40,685	0,424299	22,380000	52,360000
3,983199	1327,567799	40,785	0,422096	22,380000	52,360000
3,976417	1318,413109	40,885	0,418269	22,380000	52,360000
3,969820	1312,185771	41,000	0,415666	22,380000	52,360000
3,963060	1308,900970	41,100	0,414293	22,380000	52,360000
3,956540	1302,325527	41,202	0,411544	22,380000	52,360000
3,949829	1296,192808	41,302	0,408981	22,380000	52,360000
3,943126	1289,728338	41,402	0,406279	22,380000	52,360000
3,936453	1283,492823	41,503	0,403672	22,380000	52,360000
3,929794	1275,009812	41,604	0,400126	22,380000	52,360000
3,923146	1266,962517	41,704	0,396763	22,380000	52,360000
3,916480	1260,861337	41,809	0,394212	22,380000	52,360000
3,909744	1257,609244	41,909	0,392853	22,380000	52,360000
3,903114	1251,065341	42,011	0,390118	22,380000	52,335000
3,896475	1244,948976	42,112	0,387561	22,380000	52,335000
3,889837	1238,705284	42,212	0,384951	22,380000	52,335000
3,883144	1232,312070	42,313	0,382279	22,380000	52,335000
3,876471	1222,753205	42,413	0,378283	22,380000	52,335000
3,869835	1216,421903	42,514	0,375637	22,380000	52,335000
3,863194	1213,051828	42,615	0,374228	22,380000	52,335000
3,856534	1206,555818	42,716	0,371513	22,380000	52,335000
3,849822	1196,861450	42,816	0,367460	22,380000	52,335000
3,843141	1192,644475	42,918	0,365698	22,380000	52,335000
3,836467	1186,234908	43,020	0,363019	22,380000	52,335000
3,829827	1180,672239	43,120	0,360693	22,380000	52,335000
3,823117	1173,494038	43,220	0,357693	22,380000	52,335000
3,816503	1166,595021	43,321	0,354809	22,380000	52,335000
3,809823	1160,667894	43,423	0,352332	22,380000	52,335000
3,803171	1154,487281	43,523	0,349748	22,380000	52,335000
3,796475	1147,880299	43,623	0,346986	22,380000	52,335000
3,789809	1141,035016	43,723	0,344125	22,380000	52,335000
3,783113	1135,417445	43,824	0,341777	22,380000	52,335000
3,776485	1130,107095	43,925	0,339557	22,380000	52,335000
3,769848	1123,097105	44,025	0,336627	22,370000	52,320000
3,763155	1117,367393	44,125	0,334232	22,370000	52,320000
3,756465	1107,548034	44,226	0,330127	22,370000	52,320000
3,749859	1101,407138	44,342	0,327561	22,370000	52,320000
3,743147	1097,656250	44,446	0,325993	22,370000	52,320000
3,736539	1091,801548	44,547	0,323545	22,370000	52,320000
3,729868	1085,320724	44,650	0,320836	22,370000	52,320000
3,723110	1079,188005	44,752	0,318273	22,370000	52,320000
3,716488	1072,541305	44,852	0,315495	22,370000	52,320000
3,709811	1066,320976	44,952	0,312895	22,370000	52,320000
3,703179	1056,644129	45,052	0,308850	22,370000	52,320000
3,696506	1050,178491	45,152	0,306147	22,370000	52,320000
3,689877	1043,990870	45,253	0,303561	22,370000	52,320000
3,683153	1037,881514	45,353	0,301007	22,370000	52,320000
3,676483	1034,305846	45,453	0,299512	22,370000	52,320000
3,669846	1027,911465	45,554	0,296839	22,370000	52,320000
3,663185	1021,455172	45,655	0,294141	22,370000	52,320000
3,656521	1015,417072	45,756	0,291617	22,370000	52,320000
3,649877	1008,636037	45,856	0,288782	22,370000	52,320000
3,643172	1002,463601	45,957	0,286202	22,370000	52,335000
3,636493	996,236263	46,057	0,283599	22,370000	52,335000
3,629855	989,692359	46,158	0,280864	22,370000	52,335000
3,623197	983,788595	46,260	0,278396	22,370000	52,335000
3,616492	975,583601	46,360	0,274966	22,370000	52,335000
3,609888	969,379626	46,460	0,272373	22,370000	52,335000
3,603184	963,737524	46,560	0,270015	22,370000	52,335000
3,596458	957,612982	46,661	0,267455	22,370000	52,335000
3,589871	951,171875	46,762	0,264762	22,370000	52,335000
3,583157	944,976077	46,862	0,262172	22,370000	52,335000
3,576532	936,904250	46,963	0,258798	22,370000	52,335000
3,569827	931,966535	47,064	0,256734	22,370000	52,335000
3,563174	926,174912	47,164	0,254313	22,370000	52,335000
3,556588	919,195294	47,264	0,251396	22,370000	52,335000
3,549889	913,133831	47,364	0,248862	22,370000	52,335000
3,543179	903,646223	47,464	0,244896	22,370000	52,335000
3,536527	900,228254	47,564	0,243468	22,370000	52,335000
3,529881	893,810509	47,665	0,240785	22,370000	52,335000
3,523201	887,780586	47,765	0,238265	22,370000	52,335000
3,516545	881,117533	47,865	0,235479	22,370000	52,335000
3,509861	875,088778	47,965	0,232959	22,370000	52,335000
3,503206	868,718928	48,065	0,230297	22,370000	52,335000
3,496554	859,547884	48,165	0,226463	22,370000	52,335000
3,489887	856,500215	48,265	0,225189	22,370000	52,335000
3,483213	849,536951	48,366	0,222279	22,370000	52,335000
3,476534	842,059706	48,466	0,219153	22,370000	52,335000
3,469880	837,098628	48,567	0,217080	22,370000	52,335000
3,463200	830,689061	48,668	0,214400	22,370000	52,335000
3,456548	824,128803	48,768	0,211658	22,370000	52,335000
3,449904	814,578116	48,868	0,207666	22,370000	52,335000
3,443257	808,357786	48,968	0,205066	22,370000	52,335000
3,436563	802,193528	49,068	0,202489	22,370000	52,335000
3,429919	795,618085	49,170	0,199741	22,370000	52,335000
3,423260	790,071770	49,315	0,197422	22,370000	52,335000
3,416549	784,413315	49,415	0,195057	22,370000	52,335000
3,409904	778,305127	49,515	0,192504	22,370000	52,335000
3,403266	772,694565	49,616	0,190159	22,370000	52,335000
3,396522	767,242870	49,717	0,187880	22,370000	52,335000
3,389868	758,451471	49,817	0,184205	22,370000	52,335000
3,383219	752,453088	49,917	0,181698	22,370000	52,335000
3,376573	747,895017	50,017	0,179792	22,380000	52,305000
3,369953	738,667903	50,118	0,175936	22,380000	52,305000
3,363250	733,841161	50,218	0,173918	22,380000	52,305000
3,356559	727,479488	50,318	0,171259	22,380000	52,305000
3,349902	721,022026	50,418	0,168560	22,380000	52,305000
3,343273	715,752561	50,520	0,166357	22,380000	52,305000
3,336593	709,747168	50,622	0,163847	22,380000	52,305000
3,329918	703,748785	50,722	0,161339	22,380000	52,305000
3,323269	693,857001	50,823	0,157205	22,380000	52,305000
3,316580	690,621262	50,923	0,155852	22,380000	52,305000
3,309963	684,607693	51,024	0,153338	22,380000	52,305000
3,303199	678,466797	51,125	0,150771	22,380000	52,305000
3,296585	671,606328	51,225	0,147904	22,380000	52,305000
3,289927	662,007747	51,327	0,143892	22,380000	52,305000
3,283232	658,913352	51,427	0,142598	22,380000	52,305000
3,276571	649,576434	51,528	0,138695	22,380000	52,305000
3,269930	645,968058	51,628	0,137187	22,380000	52,305000
3,263257	636,971068	51,728	0,133426	22,380000	52,305000
3,256577	633,544922	51,829	0,131994	22,380000	52,305000
3,249963	627,198434	51,929	0,129341	22,380000	52,305000
3,243231	620,868300	52,029	0,126695	22,370000	52,320000
3,236603	611,103843	52,129	0,122614	22,370000	52,320000
3,229939	604,694275	52,229	0,119935	22,370000	52,320000
3,223232	598,608282	52,330	0,117391	22,370000	52,320000
3,216592	591,494328	52,431	0,114417	22,370000	52,320000
3,209869	585,528652	52,532	0,111923	22,370000	52,320000
3,203272	579,483543	52,633	0,109396	22,370000	52,320000
3,196620	573,753831	52,734	0,107001	22,370000	52,320000
3,189915	568,531091	52,835	0,104818	22,370000	52,320000
3,183276	561,940462	52,935	0,102063	22,370000	52,320000
3,176611	556,329901	53,035	0,099718	22,370000	52,320000
3,169887	549,651662	53,136	0,096927	22,370000	52,320000
3,163250	542,695406	53,236	0,094019	22,370000	52,320000
3,156590	534,711190	53,336	0,090682	22,370000	52,320000
3,150005	529,718572	53,437	0,088595	22,370000	52,320000
3,143273	524,108011	53,539	0,086250	22,370000	52,320000
3,136572	517,801239	53,639	0,083613	22,370000	52,320000
3,129957	508,416427	53,739	0,079690	22,370000	52,320000
3,123271	502,631813	53,848	0,077272	22,370000	52,320000
3,116614	495,946565	53,951	0,074478	22,380000	52,345000
3,110004	490,153774	54,053	0,072057	22,380000	52,345000
3,103297	485,888906	54,154	0,070274	22,380000	52,345000
3,096631	477,754000	54,255	0,066874	22,380000	52,345000
3,089987	471,518485	54,355	0,064267	22,380000	52,345000
3,083290	466,430080	54,455	0,062140	22,380000	52,345000
3,076577	459,934070	54,557	0,059425	22,380000	52,345000
3,069947	453,231300	54,657	0,056623	22,380000	52,345000
3,063254	446,141877	54,758	0,053660	22,380000	52,345000
3,056655	439,946079	54,858	0,051070	22,380000	52,345000
3,049951	430,498187	54,961	0,047121	22,380000	52,345000
3,043292	427,410801	55,061	0,045830	22,380000	52,345000
3,036640	420,939322	55,163	0,043125	22,380000	52,345000
3,029961	414,798426	55,264	0,040558	22,380000	52,345000
3,023293	407,992860	55,370	0,037713	22,380000	52,345000
3,016651	399,716610	55,470	0,034254	22,380000	52,345000
3,009889	393,955358	55,570	0,031846	22,380000	52,345000
3,003317	388,258355	55,672	0,029464	22,380000	52,345000
2,996659	380,978525	55,772	0,026421	22,380000	52,345000
2,989943	372,994309	55,872	0,023084	22,380000	52,345000
2,983290	366,702723	55,972	0,020454	22,380000	52,305000
2,976568	362,351413	56,072	0,018635	22,380000	52,305000
2,969890	353,788969	56,172	0,015056	22,380000	52,305000
2,963322	346,976394	56,272	0,012208	22,380000	52,305000
2,956604	340,590190	56,373	0,009539	22,380000	52,305000
2,949993	335,193397	56,473	0,007283	22,380000	52,305000
2,943333	330,034904	56,575	0,005127	22,380000	52,305000
2,936599	323,751495	56,676	0,002500	22,380000	52,305000
2,929968	314,176277	56,776	-0,001502	22,380000	52,305000
2,923325	310,750131	56,876	-0,002934	22,380000	52,305000
2,916693	304,419997	56,977	-0,005580	22,380000	52,305000
2,909990	297,702041	57,079	-0,008388	22,380000	52,305000
2,903370	291,133607	57,179	-0,011134	22,380000	52,305000
2,896620	284,937808	57,279	-0,013724	22,380000	52,305000
2,889966	274,967759	57,381	-0,017891	22,380000	52,305000
2,883294	268,329237	57,482	-0,020666	22,380000	52,305000
2,876656	261,856590	57,583	-0,023372	22,380000	52,305000
2,869971	255,944649	57,683	-0,025843	22,380000	52,305000
2,863309	249,226693	57,789	-0,028651	22,380000	52,305000
2,856694	243,379000	57,889	-0,031095	22,380000	52,305000
2,849991	237,088582	57,990	-0,033725	22,380000	52,305000
2,843280	230,861244	58,091	-0,036328	22,380000	52,305000
2,836644	223,438902	58,202	-0,039430	22,380000	52,305000
2,829989	220,091021	58,303	-0,040830	22,380000	52,305000
2,823357	210,888438	58,404	-0,044676	22,380000	52,305000
2,816617	207,312771	58,505	-0,046171	22,380000	52,305000
2,809961	197,364917	58,605	-0,050329	22,380000	52,305000
2,803362	191,177295	58,705	-0,052916	22,380000	52,305000
2,796639	184,792259	58,805	-0,055584	22,380000	52,305000
2,790019	178,137382	58,905	-0,058366	22,380000	52,305000
2,783288	171,759354	59,005	-0,061032	22,380000	52,305000
2,776655	165,459592	59,106	-0,063666	22,380000	52,305000
2,769995	159,185528	59,207	-0,066288	22,380000	52,305000
2,763314	152,134653	59,309	-0,069235	22,380000	52,305000
2,756689	145,693546	59,422	-0,071928	22,380000	52,305000
2,750003	139,734880	59,522	-0,074418	22,380000	52,305000
2,743311	136,364805	59,622	-0,075827	22,380000	52,305000
2,736685	126,449658	59,725	-0,079972	22,380000	52,305000
2,729972	120,119524	59,825	-0,082618	22,380000	52,305000
2,723331	113,598983	59,926	-0,085343	22,380000	52,305000
2,716656	110,512765	60,027	-0,086633	22,380000	52,345000
2,710022	101,348731	60,128	-0,090464	22,380000	52,345000
2,703326	97,496215	60,229	-0,092074	22,380000	52,345000
2,696653	89,543539	60,330	-0,095398	22,380000	52,345000
2,690022	84,304445	60,431	-0,097588	22,380000	52,345000
2,683373	75,038782	60,531	-0,101461	22,380000	52,345000
2,676653	71,407044	60,635	-0,102979	22,380000	52,345000
2,670013	65,092096	60,735	-0,105619	22,380000	52,345000
2,663357	58,357786	60,836	-0,108434	22,380000	52,345000
2,656674	49,092124	60,936	-0,112307	22,380000	52,345000
2,650046	46,005906	61,038	-0,113597	22,380000	52,345000
2,643352	39,168800	61,138	-0,116455	22,380000	52,345000
2,636622	29,412521	61,239	-0,120533	22,380000	52,345000
2,629997	26,160427	61,339	-0,121893	22,380000	52,345000
2,623338	16,553669	61,440	-0,125908	22,380000	52,345000
2,616705	10,523746	61,540	-0,128429	22,380000	52,345000
2,609998	3,711171	61,641	-0,131276	22,380000	52,345000
2,603305	0,467255	61,741	-0,132632	22,380000	52,345000
2,596624	-9,116141	61,841	-0,136638	22,380000	52,345000
2,590035	-11,718750	61,942	-0,137726	22,370000	52,360000