File: Nanoindentation Datenauswertung/data/S_calib/S_calib_2408-2
Quasi static measurement routine
Tip parameters (shape,radius, material...)
24.08.2022

Piezo position[nm]	MEMS displ.[nm]	Time[ms]	Cap [pf]	Temp [°C]	Rh [%]
eoh
2,619908	0,165623	0,222	-0,121575	22,350000	51,555000
2,623952	2,359208	0,422	-0,120702	22,350000	51,555000
2,627876	7,403963	0,623	-0,118694	22,350000	51,555000
2,631932	12,208258	0,823	-0,116782	22,350000	51,555000
2,635898	16,288719	1,025	-0,115158	22,350000	51,580000
2,639901	18,398879	1,226	-0,114318	22,350000	51,580000
2,643886	22,172631	1,426	-0,112816	22,350000	51,580000
2,647911	26,244504	1,627	-0,111196	22,350000	51,580000
2,651925	30,524939	1,828	-0,109492	22,350000	51,580000
2,655911	36,632135	2,029	-0,107062	22,350000	51,580000
2,659905	40,621810	2,229	-0,105474	22,350000	51,580000
2,663866	42,441210	2,429	-0,104750	22,350000	51,580000
2,667894	46,697109	2,630	-0,103056	22,350000	51,580000
2,671935	50,727269	2,831	-0,101452	22,350000	51,580000
2,675933	54,658056	3,032	-0,099887	22,350000	51,580000
2,679875	60,907565	3,234	-0,097400	22,350000	51,580000
2,683873	64,897240	3,434	-0,095812	22,350000	51,580000
2,687908	66,709279	3,636	-0,095091	22,350000	51,580000
2,691906	70,697727	3,836	-0,093503	22,350000	51,580000
2,695903	75,143785	4,037	-0,091734	22,350000	51,580000
2,699868	80,529601	4,238	-0,089590	22,350000	51,580000
2,703877	82,806611	4,440	-0,088684	22,350000	51,580000
2,707883	87,186420	4,640	-0,086941	22,350000	51,580000
2,711910	91,216581	4,842	-0,085337	22,350000	51,580000
2,715873	95,030818	5,043	-0,083819	22,350000	51,555000
2,719906	98,937068	5,243	-0,082264	22,350000	51,555000
2,723861	103,283753	5,444	-0,080534	22,350000	51,555000
2,727806	107,172827	5,645	-0,078986	22,350000	51,555000
2,731906	110,830029	5,845	-0,077531	22,350000	51,555000
2,735856	114,353506	6,046	-0,076128	22,350000	51,555000
2,739914	119,347961	6,246	-0,074141	22,350000	51,555000
2,743863	123,603859	6,446	-0,072447	22,350000	51,555000
2,747859	128,946736	6,647	-0,070320	22,350000	51,555000
2,751902	132,786736	6,847	-0,068792	22,350000	51,555000
2,755882	137,182495	7,048	-0,067042	22,350000	51,565000
2,759848	140,923121	7,248	-0,065554	22,350000	51,565000
2,763872	144,928745	7,449	-0,063959	22,350000	51,565000
2,767884	147,105155	7,650	-0,063093	22,350000	51,565000
2,771819	152,823443	7,850	-0,060817	22,350000	51,565000
2,775907	157,053578	8,050	-0,059134	22,350000	51,565000
2,779898	160,801566	8,250	-0,057642	22,350000	51,565000
2,783947	164,774066	8,451	-0,056061	22,350000	51,565000
2,787876	168,513466	8,652	-0,054573	22,350000	51,565000
2,791954	172,818438	8,852	-0,052859	22,350000	51,565000
2,795918	176,649851	9,053	-0,051334	22,350000	51,565000
2,799894	180,697187	9,254	-0,049724	22,350000	51,565000
2,803860	182,674849	9,454	-0,048937	22,350000	51,565000
2,807851	186,539386	9,655	-0,047398	22,350000	51,565000
2,811895	191,883490	9,855	-0,045271	22,350000	51,565000
2,815896	195,573816	10,056	-0,043803	22,350000	51,565000
2,819871	199,121830	10,257	-0,042391	22,350000	51,565000
2,823890	203,858649	10,457	-0,040505	22,350000	51,565000
2,827860	207,972234	10,658	-0,038868	22,350000	51,565000
2,831867	211,413513	10,859	-0,037499	22,350000	51,565000
2,835898	215,078076	11,059	-0,036040	22,350000	51,565000
2,839902	219,116824	11,259	-0,034433	22,350000	51,565000
2,843821	222,824327	11,460	-0,032957	22,350000	51,565000
2,847882	226,654513	11,660	-0,031433	22,350000	51,565000
2,851920	230,851523	11,860	-0,029762	22,350000	51,565000
2,855842	234,749185	12,061	-0,028211	22,350000	51,565000
2,859879	238,472637	12,263	-0,026729	22,350000	51,565000
2,863844	242,553098	12,463	-0,025105	22,350000	51,565000
2,867869	249,068830	12,663	-0,022512	22,350000	51,565000
2,871827	253,008205	12,864	-0,020944	22,350000	51,565000
2,875895	256,855567	13,064	-0,019413	22,360000	51,585000
2,879903	258,883529	13,264	-0,018605	22,360000	51,585000
2,883885	262,781191	13,464	-0,017054	22,360000	51,585000
2,887883	268,988988	13,664	-0,014583	22,360000	51,585000
2,891895	272,844938	13,865	-0,013049	22,360000	51,585000
2,895901	277,174446	14,065	-0,011326	22,360000	51,585000
2,899856	281,073335	14,265	-0,009774	22,360000	51,585000
2,903861	283,423956	14,465	-0,008838	22,360000	51,585000
2,907908	287,214883	14,667	-0,007330	22,360000	51,585000
2,911880	290,929746	14,867	-0,005851	22,360000	51,585000
2,915837	296,140124	15,067	-0,003777	22,360000	51,585000
2,919855	300,902707	15,267	-0,001882	22,360000	51,585000
2,923867	305,239577	15,467	-0,000156	22,360000	51,585000
2,927883	306,943654	15,668	0,000522	22,360000	51,585000
2,931858	311,206913	15,868	0,002219	22,360000	51,585000
2,935866	315,071451	16,070	0,003757	22,360000	51,585000
2,939864	319,783733	16,271	0,005633	22,360000	51,585000
2,943898	322,908488	16,472	0,006876	22,360000	51,585000
2,947898	328,999735	16,674	0,009301	22,360000	51,585000
2,951871	331,011748	16,874	0,010102	22,360000	51,585000
2,955861	335,365794	17,075	0,011834	22,350000	51,555000
2,959926	339,040172	17,277	0,013297	22,350000	51,555000
2,963838	343,037208	17,478	0,014888	22,350000	51,555000
2,967877	349,469516	17,678	0,017448	22,350000	51,555000
2,971843	352,178372	17,879	0,018526	22,350000	51,555000
2,975886	355,162041	18,080	0,019713	22,350000	51,555000
2,979840	359,017990	18,280	0,021248	22,350000	51,555000
2,983840	364,901902	18,481	0,023590	22,350000	51,555000
2,987864	369,006900	18,682	0,025224	22,350000	51,555000
2,991876	372,972038	18,883	0,026802	22,350000	51,555000
2,995822	376,744563	19,085	0,028303	22,350000	51,555000
2,999884	378,930787	19,285	0,029173	22,350000	51,555000
3,003875	382,944998	19,486	0,030771	22,350000	51,555000
3,007832	387,016871	19,686	0,032392	22,350000	51,555000
3,011843	391,711978	19,886	0,034260	22,350000	51,555000
3,015882	396,715020	20,088	0,036251	22,350000	51,555000
3,019858	399,623852	20,289	0,037409	22,350000	51,555000
3,023871	403,712900	20,490	0,039037	22,350000	51,555000
3,027858	407,494013	20,691	0,040542	22,350000	51,555000
3,031856	411,391675	20,892	0,042093	22,350000	51,555000
3,035841	415,348226	21,093	0,043667	22,350000	51,565000
3,039854	419,253249	21,293	0,045222	22,350000	51,565000
3,043874	425,137160	21,493	0,047563	22,350000	51,565000
3,047845	427,065749	21,694	0,048331	22,350000	51,565000
3,051860	431,254171	21,895	0,049998	22,350000	51,565000
3,055888	435,200907	22,096	0,051569	22,350000	51,565000
3,059876	438,899821	22,296	0,053041	22,350000	51,565000
3,063872	443,072295	22,497	0,054702	22,350000	51,565000
3,067887	447,401804	22,698	0,056425	22,350000	51,565000
3,071869	451,249166	22,898	0,057956	22,350000	51,565000
3,075879	455,171365	23,100	0,059517	22,360000	51,570000
3,079908	460,964490	23,301	0,061823	22,360000	51,570000
3,083919	462,966689	23,501	0,062620	22,360000	51,570000
3,087885	468,751227	23,702	0,064922	22,360000	51,570000
3,091912	472,815739	23,903	0,066540	22,360000	51,570000
3,095838	476,614027	24,103	0,068051	22,360000	51,570000
3,099888	478,940111	24,304	0,068977	22,360000	51,570000
3,103849	483,178834	24,504	0,070664	22,360000	51,570000
3,107848	488,081276	24,704	0,072615	22,360000	51,570000
3,111827	491,106656	24,904	0,073819	22,360000	51,570000
3,115856	496,351386	25,104	0,075907	22,350000	51,565000
3,119877	501,046492	25,305	0,077775	22,350000	51,565000
3,123900	503,589726	25,505	0,078788	22,350000	51,565000
3,127874	508,276245	25,705	0,080653	22,350000	51,565000
3,131823	513,637524	25,906	0,082787	22,350000	51,565000
3,135871	515,540348	26,106	0,083544	22,350000	51,565000
3,139864	521,241461	26,308	0,085813	22,350000	51,565000
3,143834	523,676733	26,508	0,086782	22,350000	51,565000
3,147805	527,649232	26,708	0,088363	22,350000	51,565000
3,151843	531,837655	26,908	0,090030	22,340000	51,555000
3,155822	535,510806	27,110	0,091492	22,340000	51,555000
3,159892	539,608443	27,310	0,093123	22,340000	51,555000
3,163809	545,516891	27,510	0,095475	22,340000	51,555000
3,167799	549,048956	27,710	0,096880	22,340000	51,555000
3,171849	551,517352	27,910	0,097863	22,340000	51,555000
3,175829	555,422376	28,111	0,099417	22,340000	51,555000
3,179862	559,178951	28,312	0,100912	22,340000	51,555000
3,183837	565,462812	28,513	0,103413	22,340000	51,555000
3,187823	569,359247	28,714	0,104964	22,340000	51,555000
3,191836	573,456884	28,915	0,106595	22,360000	51,560000
3,195828	575,451721	29,115	0,107389	22,360000	51,560000
3,199794	579,149409	29,316	0,108860	22,360000	51,560000
3,203834	582,923161	29,516	0,110362	22,360000	51,560000
3,207846	588,798485	29,717	0,112701	22,360000	51,560000
3,211853	593,202831	29,917	0,114454	22,360000	51,560000
3,215832	597,183918	30,118	0,116038	22,360000	51,560000
3,219877	601,414053	30,318	0,117722	22,360000	51,560000
3,223856	604,970654	30,518	0,119137	22,360000	51,560000
3,227861	609,375000	30,720	0,120890	22,360000	51,560000
3,231819	611,993071	30,921	0,121932	22,340000	51,595000
3,235805	617,345762	31,121	0,124063	22,340000	51,595000
3,239828	621,342798	31,321	0,125653	22,340000	51,595000
3,243872	624,185380	31,523	0,126785	22,340000	51,595000
3,247826	629,188423	31,724	0,128776	22,340000	51,595000
3,251784	631,888692	31,924	0,129851	22,340000	51,595000
3,255809	635,520130	32,125	0,131296	22,340000	51,595000
3,259789	639,476680	32,326	0,132871	22,340000	51,595000
3,263802	645,160618	32,526	0,135133	22,340000	51,595000
3,267833	647,479340	32,726	0,136056	22,340000	51,595000
3,271812	651,343878	32,926	0,137594	22,340000	51,595000
3,275870	655,008441	33,127	0,139052	22,340000	51,595000
3,279865	659,189502	33,328	0,140716	22,340000	51,595000
3,283860	665,205912	33,528	0,143111	22,340000	51,595000
3,287759	667,258411	33,728	0,143928	22,340000	51,595000
3,291901	673,350885	33,928	0,146353	22,340000	51,595000
3,295843	677,090285	34,128	0,147841	22,340000	51,595000
3,299833	681,370721	34,329	0,149544	22,340000	51,595000
3,303825	683,148408	34,529	0,150252	22,340000	51,595000
3,307845	687,320882	34,729	0,151913	22,340000	51,595000
3,311805	693,171669	34,929	0,154241	22,360000	51,570000
3,315719	695,415554	35,130	0,155134	22,360000	51,570000
3,319859	699,412590	35,331	0,156725	22,360000	51,570000
3,323852	705,213077	35,531	0,159034	22,360000	51,570000
3,327802	708,995417	35,733	0,160539	22,360000	51,570000
3,331763	713,142127	35,935	0,162189	22,360000	51,570000
3,335790	716,773565	36,135	0,163635	22,360000	51,570000
3,339849	719,865195	36,336	0,164865	22,360000	51,570000
3,343831	724,735739	36,536	0,166804	22,360000	51,570000
3,347796	728,591689	36,736	0,168338	22,360000	51,570000
3,351841	732,007204	36,938	0,169698	22,360000	51,585000
3,355794	735,073070	37,138	0,170918	22,360000	51,585000
3,359839	739,486004	37,339	0,172674	22,360000	51,585000
3,363813	745,270542	37,540	0,174977	22,360000	51,585000
3,367815	747,572089	37,740	0,175893	22,360000	51,585000
3,371867	751,204754	37,941	0,177338	22,360000	51,585000
3,375713	755,268039	38,141	0,178956	22,360000	51,585000
3,379859	758,709318	38,342	0,180325	22,360000	51,585000
3,383804	763,171325	38,543	0,182101	22,360000	51,585000
3,387833	766,961026	38,743	0,183609	22,360000	51,585000
3,391812	770,917576	38,944	0,185184	22,360000	51,585000
3,395852	775,280210	39,144	0,186920	22,360000	51,585000
3,399831	778,829450	39,345	0,188333	22,360000	51,585000
3,403837	783,033821	39,545	0,190006	22,360000	51,585000
3,407752	786,649311	39,747	0,191445	22,360000	51,585000
3,411755	793,064443	39,947	0,193999	22,360000	51,585000
3,415798	794,935370	40,147	0,194743	22,360000	51,585000
3,419806	800,735857	40,347	0,197052	22,360000	51,585000
3,423774	802,847244	40,547	0,197892	22,360000	51,585000
3,427849	807,068791	40,749	0,199572	22,360000	51,585000
3,431757	812,711016	40,950	0,201818	22,360000	51,560000
3,435760	816,517892	41,151	0,203333	22,360000	51,560000
3,439829	820,605714	41,352	0,204960	22,360000	51,560000
3,443813	823,839657	41,553	0,206247	22,360000	51,560000
3,447806	827,429383	41,755	0,207676	22,360000	51,560000
3,451760	832,606637	41,955	0,209736	22,360000	51,560000
3,455770	835,391557	42,155	0,210845	22,360000	51,560000
3,459760	840,734434	42,355	0,212971	22,360000	51,560000
3,463782	843,643265	42,555	0,214129	22,360000	51,560000
3,467810	847,574052	42,756	0,215693	22,360000	51,560000
3,471797	851,480302	42,956	0,217248	22,360000	51,560000
3,475737	856,998616	43,156	0,219444	22,360000	51,560000
3,479775	858,968917	43,357	0,220229	22,360000	51,560000
3,483792	864,685979	43,557	0,222504	22,360000	51,560000
3,487828	866,738478	43,757	0,223321	22,360000	51,560000
3,491749	873,005163	43,957	0,225815	22,360000	51,560000
3,495762	875,207336	44,157	0,226691	22,360000	51,560000
3,499788	880,483963	44,358	0,228792	22,360000	51,560000
3,503774	882,529101	44,559	0,229605	22,360000	51,560000
3,507792	886,651274	44,760	0,231246	22,360000	51,560000
3,511735	892,394099	44,960	0,233532	22,350000	51,565000
3,515764	896,158036	45,160	0,235030	22,350000	51,565000
3,519811	898,019148	45,361	0,235771	22,350000	51,565000
3,523781	902,191622	45,561	0,237431	22,350000	51,565000
3,527755	906,472058	45,762	0,239135	22,350000	51,565000
3,531743	912,463931	45,963	0,241520	22,350000	51,565000
3,535704	914,217082	46,165	0,242217	22,350000	51,565000
3,539787	919,469172	46,366	0,244308	22,350000	51,565000
3,543802	922,170668	46,566	0,245383	22,350000	51,565000
3,547702	926,557838	46,767	0,247129	22,350000	51,565000
3,551776	930,415015	46,967	0,248664	22,350000	51,565000
3,555763	934,453763	47,167	0,250271	22,350000	51,565000
3,559755	938,475336	47,367	0,251872	22,350000	51,565000
3,563714	942,498135	47,568	0,253473	22,350000	51,565000
3,567732	948,307210	47,768	0,255785	22,350000	51,565000
3,571802	951,971773	47,970	0,257244	22,350000	51,565000
3,575728	954,589844	48,171	0,258286	22,350000	51,565000
3,579725	958,919353	48,371	0,260009	22,350000	51,565000
3,583726	962,675928	48,572	0,261504	22,350000	51,565000
3,587787	968,335329	48,772	0,263756	22,350000	51,565000
3,591722	972,474678	48,973	0,265404	22,360000	51,585000
3,595787	975,474295	49,174	0,266598	22,360000	51,585000
3,599803	978,217504	49,375	0,267689	22,360000	51,585000
3,603759	983,652393	49,576	0,269853	22,360000	51,585000
3,607737	986,460623	49,776	0,270970	22,360000	51,585000
3,611773	991,190081	49,977	0,272853	22,360000	51,585000
3,615767	993,982363	50,178	0,273964	22,360000	51,585000
3,619787	998,012524	50,379	0,275568	22,360000	51,585000
3,623768	1002,043911	50,580	0,277172	22,360000	51,585000
3,627739	1007,005241	50,780	0,279147	22,360000	51,585000
3,631760	1010,220782	50,980	0,280427	22,360000	51,570000
3,635732	1014,276706	51,180	0,282041	22,360000	51,570000
3,639710	1020,310292	51,381	0,284442	22,360000	51,570000
3,643673	1023,709858	51,581	0,285795	22,360000	51,570000
3,647800	1028,089667	51,781	0,287539	22,360000	51,570000
3,651789	1031,654856	51,981	0,288958	22,360000	51,570000
3,655762	1034,081541	52,181	0,289923	22,360000	51,570000
3,659782	1039,142244	52,381	0,291938	22,360000	51,570000
3,663775	1043,821402	52,581	0,293800	22,360000	51,570000
3,667749	1046,023575	52,782	0,294676	22,360000	51,570000
3,671752	1050,004662	52,983	0,296261	22,350000	51,565000
3,675727	1054,168548	53,184	0,297918	22,350000	51,565000
3,679729	1057,833111	53,386	0,299376	22,350000	51,565000
3,683801	1064,115745	53,586	0,301877	22,350000	51,565000
3,687661	1066,234493	53,786	0,302720	22,350000	51,565000
3,691731	1070,622890	53,987	0,304467	22,350000	51,565000
3,695755	1075,068948	54,187	0,306236	22,350000	51,565000
3,699762	1078,002316	54,388	0,307404	22,350000	51,565000
3,703762	1083,961065	54,588	0,309775	22,350000	51,565000
3,707729	1087,900440	54,790	0,311343	22,350000	51,565000
3,711768	1089,844977	54,991	0,312117	22,340000	51,555000
3,715780	1093,568428	55,191	0,313599	22,340000	51,555000
3,719780	1097,516391	55,391	0,315170	22,340000	51,555000
3,723785	1103,724187	55,592	0,317641	22,340000	51,555000
3,727772	1105,727613	55,792	0,318438	22,340000	51,555000
3,731790	1111,395601	55,992	0,320694	22,340000	51,555000
3,735784	1113,406387	56,193	0,321495	22,340000	51,555000
3,739762	1119,098913	56,393	0,323760	22,340000	51,555000
3,743766	1121,467935	56,594	0,324703	22,340000	51,555000
3,747704	1127,542007	56,794	0,327121	22,340000	51,555000
3,751783	1131,789318	56,995	0,328811	22,350000	51,540000
3,755727	1133,716679	57,195	0,329578	22,350000	51,540000
3,759763	1137,365293	57,395	0,331030	22,350000	51,540000
3,763742	1142,260374	57,596	0,332979	22,350000	51,540000
3,767706	1147,362791	57,797	0,335009	22,350000	51,540000
3,771740	1151,277628	57,998	0,336567	22,350000	51,540000
3,775711	1153,455265	58,199	0,337434	22,350000	51,540000
3,779696	1157,601975	58,400	0,339084	22,350000	51,540000
3,783740	1162,155995	58,600	0,340897	22,350000	51,540000
3,787735	1166,161619	58,800	0,342491	22,350000	51,540000
3,791737	1171,405121	59,001	0,344578	22,360000	51,570000
3,795733	1175,236534	59,201	0,346103	22,360000	51,570000
3,799795	1177,239960	59,402	0,346900	22,360000	51,570000
3,803771	1183,431807	59,603	0,349365	22,360000	51,570000
3,807798	1186,372537	59,803	0,350535	22,360000	51,570000
3,811718	1189,032320	60,003	0,351594	22,360000	51,570000
3,815716	1194,284410	60,203	0,353684	22,360000	51,570000
3,819742	1196,877944	60,404	0,354716	22,360000	51,570000
3,823696	1201,132616	60,604	0,356410	22,360000	51,570000
3,827723	1205,870662	60,805	0,358295	22,360000	51,570000
3,831742	1209,176988	61,007	0,359611	22,360000	51,570000
3,835702	1213,532261	61,207	0,361345	22,360000	51,570000
3,839764	1217,247124	61,407	0,362823	22,360000	51,570000
3,843700	1223,247586	61,608	0,365211	22,360000	51,570000
3,847707	1227,094947	61,808	0,366743	22,360000	51,570000
3,851721	1229,479919	62,008	0,367692	22,360000	51,570000
3,855785	1234,881684	62,208	0,369842	22,360000	51,570000
3,859769	1237,250707	62,408	0,370785	22,360000	51,570000
3,863750	1241,315219	62,608	0,372402	22,360000	51,570000
3,867724	1245,030082	62,810	0,373881	22,360000	51,570000
3,871698	1248,894620	63,012	0,375419	22,360000	51,570000
3,875705	1253,149291	63,213	0,377112	22,360000	51,570000
3,879717	1257,212577	63,414	0,378729	22,360000	51,570000
3,883726	1262,831491	63,615	0,380966	22,360000	51,570000
3,887725	1264,883990	63,815	0,381783	22,360000	51,570000
3,891721	1269,055237	64,015	0,383443	22,360000	51,570000
3,895776	1273,011787	64,216	0,385018	22,360000	51,570000
3,899741	1278,297003	64,416	0,387121	22,360000	51,570000
3,903696	1281,097872	64,618	0,388236	22,360000	51,570000
3,907726	1286,491049	64,818	0,390382	22,360000	51,570000
3,911737	1288,975395	65,019	0,391371	22,360000	51,570000
3,915682	1293,546590	65,219	0,393190	22,360000	51,570000
3,919741	1297,950936	65,420	0,394943	22,360000	51,570000
3,923712	1301,733276	65,622	0,396449	22,360000	51,570000
3,927777	1304,974580	65,822	0,397739	22,360000	51,570000
3,931780	1309,163003	66,023	0,399406	22,360000	51,570000
3,935774	1313,076614	66,224	0,400963	22,360000	51,570000
3,939744	1317,033164	66,424	0,402538	22,360000	51,570000
3,943755	1322,625088	66,625	0,404764	22,360000	51,570000
3,947749	1324,827261	66,826	0,405640	22,360000	51,570000
3,951775	1328,767863	67,026	0,407208	22,350000	51,580000
3,955705	1332,815199	67,226	0,408819	22,350000	51,580000
3,959712	1336,878484	67,426	0,410437	22,350000	51,580000
3,963726	1340,709897	67,626	0,411961	22,350000	51,580000
3,967754	1346,884569	67,828	0,414419	22,350000	51,580000
3,971786	1348,721145	68,029	0,415150	22,350000	51,580000
3,975742	1352,643344	68,229	0,416711	22,350000	51,580000
3,979717	1356,541006	68,430	0,418262	22,350000	51,580000
3,983729	1362,691141	68,630	0,420710	22,350000	51,580000
3,987757	1366,298043	68,830	0,422146	22,350000	51,580000
3,991701	1370,361328	69,030	0,423763	22,350000	51,580000
3,995749	1372,646926	69,230	0,424672	22,350000	51,580000
3,999756	1376,685674	69,431	0,426280	22,350000	51,580000
4,003730	1381,613880	69,633	0,428241	22,350000	51,580000
4,007743	1385,877140	69,834	0,429938	22,350000	51,580000
4,011711	1389,958827	70,035	0,431563	22,350000	51,580000
4,015728	1393,631978	70,236	0,433024	22,350000	51,580000
4,019726	1396,457385	70,437	0,434149	22,350000	51,580000
4,023736	1400,487545	70,637	0,435753	22,350000	51,580000
4,027737	1404,477220	70,838	0,437341	22,350000	51,580000
4,031756	1408,540505	71,038	0,438958	22,350000	51,580000
4,035696	1412,737516	71,239	0,440628	22,350000	51,580000
4,039725	1417,000775	71,439	0,442325	22,350000	51,580000
4,043722	1420,873901	71,640	0,443867	22,350000	51,580000
4,047659	1424,414553	71,841	0,445276	22,350000	51,580000
4,051723	1428,286452	72,042	0,446817	22,350000	51,580000
4,055669	1432,142401	72,244	0,448352	22,350000	51,580000
4,059726	1436,290338	72,445	0,450002	22,350000	51,580000
4,063716	1442,298161	72,646	0,452394	22,350000	51,580000
4,067695	1446,977318	72,846	0,454256	22,350000	51,580000
4,071711	1450,218622	73,047	0,455546	22,350000	51,555000
4,075664	1452,204872	73,247	0,456336	22,350000	51,555000
4,079730	1456,285333	73,448	0,457960	22,350000	51,555000
4,083752	1461,296963	73,649	0,459955	22,350000	51,555000
4,087678	1465,551635	73,850	0,461648	22,350000	51,555000
4,091766	1469,374460	74,050	0,463170	22,350000	51,555000
4,095677	1473,272122	74,250	0,464721	22,350000	51,555000
4,099679	1476,306091	74,450	0,465929	22,350000	51,555000
4,103688	1480,261414	74,650	0,467503	22,350000	51,555000
4,107727	1483,876904	74,850	0,468942	22,350000	51,555000
4,111749	1488,754809	75,050	0,470883	22,350000	51,565000
4,115637	1493,292880	75,252	0,472689	22,350000	51,565000
4,119684	1497,239616	75,453	0,474260	22,350000	51,565000
4,119729	1498,071412	75,653	0,474591	22,350000	51,565000
4,119721	1497,738939	75,854	0,474459	22,350000	51,565000
4,119705	1497,622389	76,054	0,474413	22,350000	51,565000
4,119677	1497,331629	76,255	0,474297	22,350000	51,565000
4,119765	1497,763476	76,455	0,474469	22,350000	51,565000
4,119712	1497,754888	76,655	0,474465	22,350000	51,565000
4,119701	1497,589265	76,855	0,474399	22,350000	51,565000
4,119657	1497,422415	77,055	0,474333	22,350000	51,565000
4,119714	1497,289916	77,256	0,474280	22,350000	51,565000
4,119732	1497,197904	77,456	0,474244	22,350000	51,565000
4,119702	1497,340217	77,656	0,474300	22,350000	51,565000
4,119673	1496,966031	77,857	0,474151	22,350000	51,565000
4,119678	1497,065405	78,057	0,474191	22,350000	51,565000
4,119680	1497,223667	78,257	0,474254	22,350000	51,565000
4,119649	1497,065405	78,457	0,474191	22,350000	51,565000
4,119757	1497,256792	78,658	0,474267	22,350000	51,565000
4,119656	1497,215079	78,859	0,474250	22,350000	51,565000
4,119688	1497,256792	79,060	0,474267	22,360000	51,570000
4,119685	1496,650734	79,263	0,474026	22,360000	51,570000
4,119733	1496,766057	79,464	0,474072	22,360000	51,570000
4,119727	1496,874019	79,665	0,474115	22,360000	51,570000
4,119758	1496,849482	79,866	0,474105	22,360000	51,570000
4,119715	1496,642146	80,067	0,474022	22,360000	51,570000
4,119704	1496,450760	80,267	0,473946	22,360000	51,570000
4,119670	1496,292498	80,468	0,473883	22,360000	51,570000
4,119755	1496,475296	80,669	0,473956	22,360000	51,570000
4,119663	1496,715757	80,870	0,474052	22,360000	51,570000
4,119673	1496,458121	81,070	0,473949	22,350000	51,555000
4,119680	1496,458121	81,271	0,473949	22,350000	51,555000
4,119682	1496,409047	81,472	0,473930	22,350000	51,555000
4,119694	1496,217661	81,673	0,473854	22,350000	51,555000
4,119740	1495,960025	81,873	0,473751	22,350000	51,555000
4,119697	1496,267961	82,074	0,473874	22,350000	51,555000
4,119718	1495,985788	82,274	0,473761	22,350000	51,555000
4,119702	1496,275322	82,475	0,473876	22,350000	51,555000
4,119738	1495,968613	82,675	0,473754	22,350000	51,555000
4,119743	1495,935488	82,875	0,473741	22,350000	51,555000
4,119700	1495,993149	83,077	0,473764	22,340000	51,580000
4,119695	1496,159999	83,278	0,473831	22,340000	51,580000
4,119745	1495,719565	83,480	0,473655	22,340000	51,580000
4,119692	1495,910951	83,681	0,473731	22,340000	51,580000
4,119716	1495,794402	83,883	0,473685	22,340000	51,580000
4,119691	1495,461929	84,084	0,473553	22,340000	51,580000
4,119714	1495,618964	84,284	0,473615	22,340000	51,580000
4,119751	1495,686440	84,485	0,473642	22,340000	51,580000
4,119688	1495,585839	84,686	0,473602	22,340000	51,580000
4,119750	1495,627552	84,888	0,473619	22,340000	51,580000
4,119728	1495,387092	85,090	0,473523	22,360000	51,600000
4,119665	1495,353967	85,291	0,473510	22,360000	51,600000
4,119685	1495,387092	85,492	0,473523	22,360000	51,600000
4,115693	1493,467091	85,693	0,472759	22,360000	51,600000
4,111745	1489,221007	85,893	0,471069	22,360000	51,600000
4,107713	1485,165083	86,095	0,469455	22,360000	51,600000
4,103778	1478,773261	86,297	0,466911	22,360000	51,600000
4,099680	1475,799407	86,498	0,465727	22,360000	51,600000
4,095709	1472,897937	86,699	0,464572	22,360000	51,600000
4,091726	1469,275086	86,900	0,463130	22,360000	51,600000
4,087682	1463,391175	87,102	0,460789	22,360000	51,560000
4,083685	1459,900822	87,303	0,459399	22,360000	51,560000
4,079727	1455,935684	87,504	0,457821	22,360000	51,560000
4,075722	1451,174329	87,704	0,455926	22,360000	51,560000
4,071721	1448,223785	87,904	0,454752	22,360000	51,560000
4,067694	1442,980282	88,105	0,452665	22,360000	51,560000
4,063684	1438,725610	88,305	0,450972	22,360000	51,560000
4,059739	1435,434006	88,505	0,449662	22,360000	51,560000
4,055657	1431,146210	88,706	0,447955	22,360000	51,560000
4,051800	1427,846017	88,907	0,446642	22,360000	51,560000
4,047687	1423,225748	89,107	0,444803	22,350000	51,555000
4,043760	1419,294961	89,308	0,443238	22,350000	51,555000
4,039722	1415,621810	89,510	0,441776	22,350000	51,555000
4,035757	1411,731509	89,710	0,440228	22,350000	51,555000
4,031688	1407,593387	89,911	0,438581	22,350000	51,555000
4,027735	1403,521514	90,111	0,436960	22,350000	51,555000
4,023704	1399,582139	90,312	0,435393	22,350000	51,555000
4,019708	1393,473716	90,513	0,432961	22,350000	51,555000
4,015667	1389,111083	90,714	0,431225	22,350000	51,555000
4,011749	1385,279670	90,914	0,429700	22,350000	51,555000
4,007743	1383,176871	91,114	0,428863	22,350000	51,555000
4,003761	1379,038748	91,314	0,427216	22,350000	51,555000
3,999756	1375,123911	91,514	0,425658	22,350000	51,555000
3,995757	1368,824101	91,716	0,423151	22,350000	51,555000
3,991687	1364,935027	91,916	0,421603	22,350000	51,555000
3,987781	1361,385786	92,116	0,420190	22,350000	51,555000
3,983713	1358,710054	92,316	0,419125	22,350000	51,555000
3,979699	1354,854105	92,516	0,417591	22,350000	51,555000
3,975767	1349,884187	92,717	0,415613	22,350000	51,555000
3,971747	1344,931444	92,918	0,413642	22,350000	51,555000
3,967719	1341,349079	93,119	0,412216	22,360000	51,585000
3,963729	1337,302970	93,320	0,410605	22,360000	51,585000
3,959759	1333,445793	93,520	0,409070	22,360000	51,585000
3,955802	1330,105115	93,722	0,407741	22,360000	51,585000
3,951702	1324,137779	93,922	0,405366	22,360000	51,585000
3,947678	1322,102456	94,169	0,404556	22,360000	51,585000
3,943735	1316,218544	94,370	0,402214	22,360000	51,585000
3,939751	1312,204332	94,571	0,400616	22,360000	51,585000
3,935752	1309,727348	94,771	0,399630	22,360000	51,585000
3,931740	1306,054197	94,972	0,398168	22,360000	51,585000
3,927748	1301,882950	95,172	0,396508	22,360000	51,585000
3,923786	1295,931562	95,374	0,394140	22,360000	51,585000
3,919790	1291,718603	95,575	0,392463	22,360000	51,585000
3,915718	1287,554717	95,775	0,390806	22,360000	51,585000
3,911785	1283,632518	95,975	0,389245	22,360000	51,585000
3,907735	1279,677195	96,175	0,387670	22,360000	51,585000
3,903743	1275,629858	96,376	0,386060	22,360000	51,585000
3,899801	1273,650970	96,576	0,385272	22,360000	51,585000
3,895696	1268,706815	96,776	0,383304	22,360000	51,585000
3,891778	1263,620348	96,976	0,381280	22,350000	51,555000
3,887709	1261,609561	97,177	0,380479	22,350000	51,555000
3,883719	1256,256870	97,378	0,378349	22,350000	51,555000
3,879735	1251,403502	97,578	0,376417	22,350000	51,555000
3,875755	1248,362172	97,779	0,375207	22,350000	51,555000
3,871744	1243,101494	97,980	0,373113	22,350000	51,555000
3,867752	1239,186656	98,181	0,371555	22,350000	51,555000
3,863734	1235,896278	98,382	0,370246	22,350000	51,555000
3,859732	1232,888073	98,583	0,369048	22,350000	51,555000
3,855714	1227,202909	98,783	0,366786	22,350000	51,555000
3,851736	1224,950436	98,983	0,365889	22,350000	51,595000
3,847766	1219,000275	99,185	0,363521	22,350000	51,595000
3,843814	1216,672964	99,385	0,362595	22,350000	51,595000
3,839739	1210,689679	99,585	0,360213	22,350000	51,595000
3,835753	1208,038483	99,785	0,359158	22,350000	51,595000
3,831777	1202,695607	99,985	0,357032	22,350000	51,595000
3,827745	1198,456884	100,186	0,355345	22,350000	51,595000
3,823767	1196,895120	100,387	0,354723	22,350000	51,595000
3,819756	1192,631860	100,587	0,353026	22,350000	51,595000
3,815715	1188,800448	100,788	0,351501	22,350000	51,595000
3,811783	1184,603437	100,988	0,349831	22,350000	51,555000
3,807761	1178,171129	101,188	0,347271	22,350000	51,555000
3,803740	1174,496751	101,388	0,345809	22,350000	51,555000
3,799791	1171,746182	101,590	0,344714	22,350000	51,555000
3,795819	1168,363792	101,792	0,343368	22,350000	51,555000
3,791794	1162,446755	101,993	0,341013	22,350000	51,555000
3,787749	1160,161157	102,195	0,340103	22,350000	51,555000
3,783762	1156,338332	102,396	0,338582	22,350000	51,555000
3,779767	1151,610101	102,597	0,336700	22,350000	51,555000
3,775730	1145,908988	102,798	0,334431	22,350000	51,555000
3,771765	1144,147250	102,999	0,333729	22,350000	51,555000
3,767757	1137,946814	103,200	0,331262	22,350000	51,555000
3,763774	1136,094290	103,401	0,330524	22,350000	51,555000
3,759761	1129,935567	103,603	0,328073	22,350000	51,555000
3,755757	1127,783694	103,804	0,327217	22,350000	51,555000
3,751795	1123,802607	104,005	0,325632	22,350000	51,555000
3,747714	1118,009481	104,205	0,323327	22,350000	51,555000
3,743762	1113,771985	104,405	0,321640	22,350000	51,555000
3,739795	1110,073070	104,605	0,320168	22,350000	51,555000
3,735708	1105,785274	104,805	0,318461	22,350000	51,555000
3,731725	1101,663101	105,005	0,316821	22,350000	51,540000
3,727796	1097,765439	105,205	0,315270	22,350000	51,540000
3,723746	1095,779189	105,405	0,314479	22,350000	51,540000
3,719759	1089,545629	105,606	0,311998	22,350000	51,540000
3,715762	1087,294382	105,807	0,311102	22,350000	51,540000
3,711776	1081,518432	106,008	0,308803	22,350000	51,540000
3,707791	1078,144629	106,208	0,307460	22,350000	51,540000
3,703770	1073,705932	106,408	0,305694	22,350000	51,540000
3,699779	1071,503759	106,608	0,304817	22,350000	51,540000
3,695775	1065,711860	106,809	0,302512	22,350000	51,540000
3,691791	1062,803029	107,011	0,301354	22,350000	51,540000
3,687823	1059,678274	107,213	0,300111	22,350000	51,540000
3,683771	1054,275283	107,413	0,297960	22,350000	51,540000
3,679784	1050,868355	107,614	0,296604	22,350000	51,540000
3,675768	1047,062706	107,815	0,295090	22,350000	51,540000
3,671734	1041,527216	108,016	0,292887	22,350000	51,540000
3,667789	1039,457542	108,217	0,292063	22,350000	51,540000
3,663793	1032,917272	108,417	0,289460	22,350000	51,540000
3,659724	1031,130997	108,618	0,288749	22,350000	51,540000
3,655830	1025,288798	108,820	0,286424	22,350000	51,540000
3,651760	1021,257410	109,020	0,284819	22,350000	51,565000
3,647732	1016,936489	109,220	0,283100	22,350000	51,565000
3,643770	1014,850866	109,420	0,282270	22,350000	51,565000
3,639739	1009,465050	109,621	0,280126	22,350000	51,565000
3,635766	1005,534263	109,823	0,278562	22,350000	51,565000
3,631766	1002,010786	110,024	0,277159	22,350000	51,565000
3,627827	998,760894	110,225	0,275866	22,350000	51,565000
3,623790	994,796983	110,426	0,274288	22,350000	51,565000
3,619834	989,494592	110,627	0,272178	22,350000	51,565000
3,615766	985,381007	110,829	0,270541	22,350000	51,565000
3,611774	982,139702	111,030	0,269250	22,350000	51,595000
3,607777	976,903561	111,232	0,267167	22,350000	51,595000
3,603764	974,360327	111,432	0,266154	22,350000	51,595000
3,599757	970,380467	111,632	0,264570	22,350000	51,595000
3,595838	966,399380	111,832	0,262986	22,350000	51,595000
3,591769	960,881065	112,034	0,260790	22,350000	51,595000
3,587760	958,637180	112,234	0,259896	22,350000	51,595000
3,583755	954,989793	112,434	0,258445	22,350000	51,595000
3,579776	950,575632	112,636	0,256688	22,350000	51,595000
3,575779	946,454686	112,836	0,255048	22,350000	51,595000
3,571763	940,611259	113,036	0,252722	22,350000	51,580000
3,567797	938,085201	113,236	0,251717	22,350000	51,580000
3,563800	934,354389	113,436	0,250232	22,350000	51,580000
3,559756	930,206452	113,637	0,248581	22,350000	51,580000
3,555788	926,300202	113,838	0,247026	22,350000	51,580000
3,551755	922,627051	114,039	0,245564	22,350000	51,580000
3,547771	918,064443	114,240	0,243749	22,350000	51,580000
3,543771	913,868660	114,440	0,242079	22,350000	51,580000
3,539817	910,178333	114,640	0,240610	22,350000	51,580000
3,535859	904,236760	114,840	0,238245	22,350000	51,580000
3,531779	900,429884	115,040	0,236730	22,350000	51,580000
3,527809	896,490509	115,241	0,235162	22,350000	51,580000
3,523817	894,197550	115,441	0,234250	22,350000	51,580000
3,519762	889,725728	115,641	0,232470	22,350000	51,580000
3,515786	886,110239	115,841	0,231031	22,350000	51,580000
3,511807	880,367413	116,041	0,228745	22,350000	51,580000
3,507803	876,378965	116,243	0,227158	22,350000	51,580000
3,503788	874,076192	116,444	0,226241	22,350000	51,580000
3,499830	869,689021	116,644	0,224495	22,350000	51,580000
3,495803	865,700573	116,844	0,222908	22,350000	51,580000
3,491814	860,422719	117,044	0,220807	22,350000	51,595000
3,487793	858,011984	117,244	0,219848	22,350000	51,595000
3,483761	852,810194	117,444	0,217777	22,350000	51,595000
3,479791	847,981362	117,644	0,215855	22,350000	51,595000
3,475774	844,873783	117,844	0,214619	22,350000	51,595000
3,471772	841,789514	118,044	0,213391	22,350000	51,595000
3,467813	837,019571	118,245	0,211493	22,350000	51,595000
3,463782	833,147672	118,445	0,209952	22,350000	51,595000
3,459759	828,900361	118,646	0,208261	22,350000	51,595000
3,455783	823,822482	118,846	0,206240	22,350000	51,595000
3,451751	821,860769	119,046	0,205459	22,350000	51,565000
3,447858	817,489547	119,247	0,203720	22,350000	51,565000
3,443846	813,177214	119,447	0,202003	22,350000	51,565000
3,439773	809,627974	119,649	0,200591	22,350000	51,565000
3,435813	805,514388	119,850	0,198954	22,350000	51,565000
3,431808	801,790937	120,050	0,197472	22,350000	51,565000
3,427761	797,835614	120,250	0,195897	22,350000	51,565000
3,423863	793,588303	120,450	0,194207	22,350000	51,565000
3,419809	789,857491	120,651	0,192722	22,350000	51,565000
3,415793	785,594231	120,851	0,191025	22,350000	51,565000
3,411831	781,538307	121,051	0,189411	22,350000	51,565000
3,407874	777,581756	121,252	0,187836	22,350000	51,565000
3,403864	773,868120	121,453	0,186358	22,350000	51,565000
3,399791	769,462547	121,653	0,184605	22,350000	51,565000
3,395852	765,415211	121,853	0,182994	22,350000	51,565000
3,391775	759,182877	122,054	0,180514	22,350000	51,565000
3,387803	755,201790	122,254	0,178929	22,350000	51,565000
3,383807	751,121329	122,454	0,177305	22,350000	51,565000
3,379831	747,281329	122,654	0,175777	22,350000	51,565000
3,375836	745,362555	122,854	0,175013	22,350000	51,565000
3,371811	740,135001	123,055	0,172933	22,350000	51,580000
3,367812	737,276470	123,255	0,171795	22,350000	51,580000
3,363837	731,608482	123,455	0,169539	22,350000	51,580000
3,359813	728,316877	123,656	0,168229	22,350000	51,580000
3,355867	724,419215	123,857	0,166678	22,350000	51,580000
3,351801	719,740058	124,058	0,164815	22,350000	51,580000
3,347874	717,048377	124,258	0,163744	22,350000	51,580000
3,343854	711,512887	124,458	0,161541	22,350000	51,580000
3,339811	707,690062	124,660	0,160020	22,350000	51,580000
3,335800	704,765281	124,860	0,158855	22,350000	51,580000
3,331823	700,775607	125,061	0,157268	22,350000	51,580000
3,327856	695,938187	125,261	0,155342	22,350000	51,580000
3,323833	692,456423	125,462	0,153957	22,350000	51,580000
3,319842	688,957483	125,663	0,152564	22,350000	51,580000
3,315842	685,276971	125,864	0,151099	22,350000	51,580000
3,311853	679,151372	126,064	0,148661	22,350000	51,580000
3,307776	676,973736	126,265	0,147794	22,350000	51,580000
3,303805	673,184035	126,465	0,146286	22,350000	51,580000
3,299831	669,195587	126,665	0,144699	22,350000	51,580000
3,295834	663,477299	126,865	0,142423	22,350000	51,580000
3,291927	661,125451	127,066	0,141487	22,360000	51,560000
3,287838	657,227789	127,267	0,139936	22,360000	51,560000
3,283847	651,335290	127,467	0,137590	22,360000	51,560000
3,279786	649,099992	127,667	0,136701	22,360000	51,560000
3,275837	645,169205	127,868	0,135136	22,360000	51,560000
3,271859	640,963607	128,068	0,133462	22,360000	51,560000
3,267864	637,032820	128,269	0,131898	22,360000	51,560000
3,263833	632,080078	128,471	0,129927	22,360000	51,560000
3,259878	626,702850	128,671	0,127787	22,360000	51,560000
3,255873	625,439208	128,873	0,127284	22,360000	51,560000
3,251827	620,877827	129,073	0,125468	22,350000	51,565000
3,247872	615,899321	129,274	0,123487	22,350000	51,565000
3,243893	611,103614	129,474	0,121578	22,350000	51,565000
3,239817	608,535843	129,676	0,120556	22,350000	51,565000
3,235852	604,796443	129,877	0,119068	22,350000	51,565000
3,231817	600,333209	130,077	0,117292	22,350000	51,565000
3,227860	595,613566	130,277	0,115413	22,350000	51,565000
3,223833	592,172287	130,477	0,114043	22,350000	51,565000
3,219823	589,155494	130,677	0,112843	22,350000	51,565000
3,215817	582,890036	130,877	0,110349	22,350000	51,565000
3,211914	578,775224	131,077	0,108711	22,350000	51,555000
3,207812	576,548514	131,278	0,107825	22,350000	51,555000
3,203823	572,534302	131,478	0,106228	22,350000	51,555000
3,199852	568,478378	131,678	0,104613	22,350000	51,555000
3,195893	564,871477	131,879	0,103178	22,350000	51,555000
3,191904	560,367757	132,079	0,101385	22,350000	51,555000
3,187925	557,001315	132,279	0,100045	22,350000	51,555000
3,183890	553,378465	132,479	0,098604	22,350000	51,555000
3,179835	548,948355	132,680	0,096840	22,350000	51,555000
3,175834	545,134118	132,881	0,095322	22,350000	51,555000
3,171919	539,091944	133,082	0,092917	22,350000	51,555000
3,167830	535,070371	133,283	0,091317	22,350000	51,555000
3,163893	533,266921	133,483	0,090599	22,350000	51,555000
3,159873	527,158498	133,684	0,088168	22,350000	51,555000
3,155901	522,978663	133,886	0,086504	22,350000	51,555000
3,151840	519,895621	134,086	0,085277	22,350000	51,555000
3,147906	517,293499	134,287	0,084242	22,350000	51,555000
3,143905	510,920079	134,488	0,081705	22,350000	51,555000
3,139845	507,188040	134,688	0,080220	22,350000	51,555000
3,135865	503,107579	134,888	0,078596	22,350000	51,555000
3,131875	499,558339	135,089	0,077183	22,350000	51,555000
3,127828	496,966031	135,290	0,076151	22,350000	51,555000
3,123850	492,427960	135,492	0,074345	22,350000	51,555000
3,119816	487,574592	135,692	0,072414	22,350000	51,555000
3,115812	483,702693	135,892	0,070873	22,350000	51,555000
3,111876	481,101798	136,092	0,069837	22,350000	51,555000
3,107892	476,572315	136,293	0,068035	22,350000	51,555000
3,103878	472,300467	136,494	0,066334	22,350000	51,555000
3,099889	468,451879	136,694	0,064803	22,350000	51,555000
3,095917	465,269463	136,895	0,063536	22,350000	51,555000
3,091852	460,997615	137,096	0,061836	22,360000	51,610000
3,087880	456,776068	137,297	0,060156	22,360000	51,610000
3,083850	452,936067	137,497	0,058627	22,360000	51,610000
3,079886	449,062942	137,697	0,057086	22,360000	51,610000
3,075878	445,133382	137,897	0,055522	22,360000	51,610000
3,071898	440,828410	138,097	0,053809	22,360000	51,610000
3,067885	437,120907	138,298	0,052333	22,360000	51,610000
3,063894	433,290721	138,498	0,050809	22,360000	51,610000
3,059897	429,316995	138,698	0,049227	22,360000	51,610000
3,055881	425,370260	138,899	0,047656	22,360000	51,610000
3,051835	421,305747	139,099	0,046039	22,350000	51,565000
3,047876	415,214500	139,299	0,043614	22,350000	51,565000
3,043857	413,635561	139,499	0,042986	22,350000	51,565000
3,039890	407,244965	139,700	0,040442	22,350000	51,565000
3,035882	403,147328	139,900	0,038812	22,350000	51,565000
3,031885	401,053117	140,100	0,037978	22,350000	51,565000
3,027926	395,277167	140,300	0,035679	22,350000	51,565000
3,023911	393,457767	140,500	0,034955	22,350000	51,565000
3,019912	389,269345	140,701	0,033288	22,350000	51,565000
3,015866	385,412168	140,901	0,031753	22,350000	51,565000
3,011888	379,428883	141,103	0,029372	22,350000	51,565000
3,007909	375,439208	141,303	0,027784	22,350000	51,565000
3,003891	371,276549	141,503	0,026127	22,350000	51,565000
2,999892	367,453724	141,703	0,024605	22,350000	51,565000
2,995923	363,305787	141,903	0,022955	22,350000	51,565000
2,991865	359,159077	142,103	0,021304	22,350000	51,565000
2,987882	355,386552	142,304	0,019803	22,350000	51,565000
2,983807	351,979625	142,505	0,018447	22,350000	51,565000
2,979868	348,430384	142,706	0,017034	22,350000	51,565000
2,975895	345,371879	142,906	0,015817	22,350000	51,565000
2,971910	340,053539	143,107	0,013700	22,350000	51,565000
2,967888	336,114165	143,308	0,012132	22,350000	51,565000
2,963860	332,340413	143,509	0,010630	22,350000	51,565000
2,959930	328,942074	143,710	0,009278	22,350000	51,565000
2,955883	326,141204	143,911	0,008163	22,350000	51,565000
2,951937	321,446098	144,111	0,006294	22,350000	51,565000
2,947883	316,766940	144,311	0,004432	22,350000	51,565000
2,943868	313,492511	144,512	0,003129	22,350000	51,565000
2,939827	309,436587	144,713	0,001515	22,350000	51,565000
2,935857	305,680011	144,913	0,000020	22,350000	51,565000
2,931912	301,691563	145,114	-0,001568	22,350000	51,565000
2,927885	295,898438	145,315	-0,003874	22,350000	51,565000
2,923914	293,788277	145,516	-0,004713	22,350000	51,565000
2,919897	289,907791	145,716	-0,006258	22,350000	51,565000
2,915926	283,898742	145,916	-0,008649	22,350000	51,565000
2,911845	279,684556	146,116	-0,010327	22,350000	51,565000
2,907879	275,795481	146,317	-0,011875	22,350000	51,565000
2,903862	273,650970	146,517	-0,012728	22,350000	51,565000
2,899958	269,779071	146,717	-0,014269	22,350000	51,565000
2,895925	265,789396	146,918	-0,015857	22,350000	51,565000
2,891880	260,112820	147,118	-0,018116	22,340000	51,555000
2,887913	256,223746	147,318	-0,019664	22,340000	51,555000
2,883950	252,101572	147,518	-0,021305	22,340000	51,555000
2,879882	250,332473	147,718	-0,022009	22,340000	51,555000
2,875866	244,048612	147,919	-0,024510	22,340000	51,555000
2,871895	240,060164	148,121	-0,026097	22,340000	51,555000
2,867888	236,345301	148,322	-0,027576	22,340000	51,555000
2,863913	232,921198	148,523	-0,028938	22,340000	51,555000
2,859958	228,748724	148,724	-0,030599	22,340000	51,555000
2,855877	225,176174	148,924	-0,032021	22,340000	51,555000
2,851899	221,510384	149,125	-0,033480	22,340000	51,555000
2,847904	218,112045	149,325	-0,034833	22,340000	51,555000
2,843883	213,481961	149,525	-0,036675	22,340000	51,555000
2,839943	209,502100	149,725	-0,038259	22,340000	51,555000
2,835948	206,318458	149,926	-0,039526	22,340000	51,555000
2,831905	201,182917	150,126	-0,041570	22,340000	51,555000
2,827927	197,941612	150,326	-0,042860	22,340000	51,555000
2,823902	194,019413	150,526	-0,044421	22,340000	51,555000
2,819842	190,121751	150,728	-0,045973	22,340000	51,555000
2,815914	186,539386	150,929	-0,047398	22,340000	51,555000
2,811930	180,472676	151,130	-0,049813	22,360000	51,610000
2,807881	178,395640	151,330	-0,050640	22,360000	51,610000
2,803967	174,464854	151,532	-0,052204	22,360000	51,610000
2,799866	170,158655	151,734	-0,053918	22,360000	51,610000
2,795913	166,119906	151,934	-0,055525	22,360000	51,610000
2,791946	160,460506	152,134	-0,057778	22,360000	51,610000
2,787909	157,817898	152,334	-0,058830	22,360000	51,610000
2,783848	154,402383	152,535	-0,060189	22,360000	51,610000
2,779887	150,504721	152,735	-0,061740	22,360000	51,610000
2,775904	144,786432	152,936	-0,064016	22,350000	51,580000
2,771933	140,831109	153,136	-0,065590	22,350000	51,580000
2,767910	136,501600	153,336	-0,067313	22,350000	51,580000
2,763885	133,526519	153,536	-0,068498	22,350000	51,580000
2,759877	130,542851	153,738	-0,069685	22,350000	51,580000
2,755898	126,802224	153,939	-0,071174	22,350000	51,580000
2,751881	123,062824	154,140	-0,072662	22,350000	51,580000
2,747918	118,268344	154,340	-0,074570	22,350000	51,580000
2,743901	114,287257	154,541	-0,076155	22,350000	51,580000
2,739918	111,004240	154,742	-0,077461	22,350000	51,580000
2,735889	106,674731	154,944	-0,079185	22,360000	51,585000
2,731909	103,341414	155,145	-0,080511	22,360000	51,585000
2,727865	99,652314	155,346	-0,081979	22,360000	51,585000
2,723988	95,512965	155,547	-0,083627	22,360000	51,585000
2,719933	89,322344	155,748	-0,086091	22,360000	51,585000
2,715882	85,407506	155,948	-0,087649	22,360000	51,585000
2,711895	83,304707	156,148	-0,088486	22,360000	51,585000
2,707957	77,163160	156,348	-0,090930	22,360000	51,585000
2,703895	75,451721	156,550	-0,091611	22,360000	51,585000
2,699990	71,378622	156,750	-0,093232	22,360000	51,585000
2,695883	65,287374	156,951	-0,095657	22,360000	51,585000
2,691906	61,281751	157,151	-0,097251	22,360000	51,585000
2,687871	59,429226	157,351	-0,097988	22,360000	51,585000
2,683915	55,215040	157,551	-0,099666	22,360000	51,585000
2,679882	49,896700	157,752	-0,101782	22,360000	51,585000
2,675896	45,516891	157,953	-0,103525	22,360000	51,585000
2,671915	42,998194	158,154	-0,104528	22,360000	51,585000
2,667857	36,964608	158,354	-0,106929	22,360000	51,585000
2,663941	32,934448	158,554	-0,108533	22,360000	51,585000
2,659900	29,078498	158,755	-0,110068	22,360000	51,585000
2,655896	24,989449	158,955	-0,111695	22,360000	51,560000
2,651910	21,424260	159,156	-0,113114	22,360000	51,560000
2,647967	18,398879	159,356	-0,114318	22,360000	51,560000
2,643889	14,426380	159,556	-0,115899	22,360000	51,560000
2,639937	9,797523	159,756	-0,117742	22,360000	51,560000
2,635924	4,620269	159,956	-0,119802	22,360000	51,560000
2,631923	2,724806	160,156	-0,120557	22,360000	51,560000
2,627920	-1,688128	160,356	-0,122313	22,360000	51,560000
2,623933	-6,707120	160,556	-0,124311	22,360000	51,560000
2,619922	-10,222008	160,756	-0,125709	22,360000	51,560000