File: Nanoindentation Datenauswertung/data/S_calib/S_calib_2208-2
Quasi static measurement routine
Tip parameters (shape,radius, material...)
22.08.2022

Piezo position[nm]	MEMS displ.[nm]	Time[ms]	Cap [pf]	Temp [°C]	Rh [%]
eoh
2,589985	-0,427538	0,214	-0,135900	22,370000	52,345000
2,593327	1,566472	0,326	-0,135067	22,370000	52,345000
2,596705	4,969255	0,426	-0,133645	22,370000	52,345000
2,599977	9,352105	0,526	-0,131812	22,370000	52,345000
2,603347	12,865860	0,626	-0,130344	22,370000	52,345000
2,606692	15,484824	0,741	-0,129249	22,370000	52,345000
2,609993	17,937911	0,861	-0,128224	22,370000	52,345000
2,613323	22,781007	0,963	-0,126199	22,380000	52,320000
2,616633	25,661633	1,063	-0,124995	22,380000	52,320000
2,620020	27,378794	1,163	-0,124277	22,380000	52,320000
2,623282	30,639064	1,265	-0,122915	22,380000	52,320000
2,626640	33,843264	1,366	-0,121575	22,380000	52,320000
2,629957	36,897942	1,466	-0,120298	22,380000	52,320000
2,633303	40,095133	1,567	-0,118962	22,380000	52,320000
2,636646	44,928884	1,669	-0,116941	22,380000	52,320000
2,640039	46,685762	1,769	-0,116207	22,380000	52,320000
2,643334	51,434239	1,870	-0,114222	22,380000	52,320000
2,646635	54,448032	1,971	-0,112962	22,380000	52,320000
2,650008	57,376551	2,071	-0,111738	22,380000	52,320000
2,653326	60,993103	2,171	-0,110227	22,380000	52,320000
2,656747	62,473133	2,271	-0,109608	22,380000	52,320000
2,659983	66,991487	2,371	-0,107719	22,380000	52,320000
2,663285	69,910661	2,473	-0,106499	22,380000	52,320000
2,666633	73,535390	2,573	-0,104984	22,380000	52,320000
2,669998	75,615842	2,675	-0,104114	22,380000	52,320000
2,673300	78,362132	2,776	-0,102966	22,380000	52,320000
2,676655	82,176099	2,878	-0,101372	22,380000	52,320000
2,679976	84,953929	2,978	-0,100211	22,380000	52,320000
2,683334	88,284287	3,080	-0,098819	22,380000	52,320000
2,686669	91,513018	3,180	-0,097469	22,380000	52,320000
2,689977	94,504616	3,280	-0,096219	22,380000	52,320000
2,693334	97,551118	3,381	-0,094945	22,380000	52,320000
2,696645	100,945724	3,482	-0,093526	22,380000	52,320000
2,700006	103,920969	3,582	-0,092283	22,380000	52,320000
2,703332	107,418371	3,682	-0,090821	22,380000	52,320000
2,706642	110,416978	3,782	-0,089567	22,380000	52,320000
2,710007	113,796398	3,883	-0,088155	22,380000	52,320000
2,713331	118,780839	3,983	-0,086071	22,380000	52,320000
2,716630	121,661465	4,083	-0,084867	22,380000	52,320000
2,719974	125,001168	4,184	-0,083471	22,380000	52,320000
2,723286	128,253261	4,284	-0,082112	22,380000	52,320000
2,726593	131,528717	4,385	-0,080743	22,380000	52,320000
2,729984	134,860244	4,486	-0,079350	22,380000	52,320000
2,733347	136,237478	4,587	-0,078774	22,380000	52,320000
2,736623	139,338881	4,688	-0,077478	22,380000	52,320000
2,739950	142,544249	4,788	-0,076138	22,380000	52,320000
2,743329	146,864020	4,889	-0,074333	22,380000	52,320000
2,746638	148,581181	4,989	-0,073615	22,380000	52,305000
2,749954	153,337835	5,089	-0,071626	22,380000	52,305000
2,753319	156,818883	5,189	-0,070171	22,380000	52,305000
2,756623	158,781353	5,289	-0,069351	22,380000	52,305000
2,759945	162,903708	5,390	-0,067628	22,380000	52,305000
2,763270	166,037820	5,490	-0,066318	22,380000	52,305000
2,766633	168,965171	5,591	-0,065094	22,380000	52,305000
2,769998	172,628448	5,692	-0,063563	22,380000	52,305000
2,773351	175,572153	5,792	-0,062333	22,380000	52,305000
2,776636	178,073135	5,893	-0,061287	22,380000	52,305000
2,780007	181,436201	5,993	-0,059881	22,380000	52,305000
2,783277	184,538773	6,093	-0,058584	22,380000	52,305000
2,786622	187,822406	6,194	-0,057212	22,380000	52,305000
2,789907	190,844376	6,294	-0,055949	22,380000	52,305000
2,793347	193,796258	6,394	-0,054715	22,380000	52,305000
2,796617	197,238758	6,494	-0,053276	22,380000	52,305000
2,800010	199,983880	6,595	-0,052128	22,380000	52,305000
2,803304	203,292044	6,696	-0,050746	22,380000	52,305000
2,806589	207,659708	6,797	-0,048920	22,380000	52,305000
2,809915	209,574284	6,898	-0,048120	22,380000	52,305000
2,813278	212,779652	6,998	-0,046780	22,380000	52,320000
2,816670	215,675464	7,099	-0,045569	22,380000	52,320000
2,819977	218,856300	7,201	-0,044240	22,380000	52,320000
2,823306	221,745103	7,302	-0,043032	22,380000	52,320000
2,826583	225,131532	7,402	-0,041617	22,380000	52,320000
2,829918	228,534315	7,503	-0,040194	22,380000	52,320000
2,833208	232,268849	7,604	-0,038633	22,380000	52,320000
2,836632	234,849264	7,705	-0,037555	22,380000	52,320000
2,839973	239,485599	7,805	-0,035617	22,380000	52,320000
2,843296	241,045062	7,905	-0,034965	22,380000	52,320000
2,846624	244,550641	8,005	-0,033500	22,380000	52,320000
2,849984	247,176613	8,105	-0,032402	22,380000	52,320000
2,853286	250,540847	8,206	-0,030996	22,380000	52,320000
2,856658	255,311519	8,307	-0,029001	22,380000	52,320000
2,859942	257,028680	8,409	-0,028284	22,380000	52,320000
2,863242	260,597339	8,509	-0,026792	22,380000	52,320000
2,866674	264,285147	8,610	-0,025250	22,380000	52,320000
2,869975	266,413492	8,710	-0,024361	22,380000	52,320000
2,873275	270,678360	8,810	-0,022578	22,380000	52,320000
2,876625	274,357992	8,910	-0,021040	22,380000	52,345000
2,879961	276,961769	9,011	-0,019952	22,380000	52,345000
2,883305	279,359954	9,112	-0,018949	22,380000	52,345000
2,886597	282,706667	9,212	-0,017550	22,380000	52,345000
2,889937	285,927220	9,312	-0,016204	22,380000	52,345000
2,893300	288,522821	9,412	-0,015119	22,380000	52,345000
2,896651	291,434986	9,513	-0,013902	22,380000	52,345000
2,899917	295,303856	9,613	-0,012285	22,380000	52,345000
2,903258	298,516232	9,714	-0,010942	22,380000	52,345000
2,906646	303,067294	9,815	-0,009040	22,380000	52,345000
2,909908	304,363926	9,917	-0,008498	22,380000	52,345000
2,913298	307,821611	10,017	-0,007052	22,380000	52,345000
2,916640	310,924183	10,117	-0,005755	22,380000	52,345000
2,920006	313,677482	10,217	-0,004604	22,380000	52,345000
2,923252	317,111805	10,317	-0,003169	22,380000	52,345000
2,926591	320,277456	10,419	-0,001846	22,380000	52,345000
2,930004	323,885831	10,519	-0,000337	22,380000	52,345000
2,933233	326,647307	10,619	0,000817	22,380000	52,345000
2,936603	329,701985	10,721	0,002094	22,380000	52,345000
2,939949	332,771849	10,822	0,003377	22,380000	52,345000
2,943286	336,230702	10,922	0,004823	22,380000	52,345000
2,946637	339,315752	11,023	0,006112	22,380000	52,345000
2,949973	343,391382	11,124	0,007816	22,380000	52,345000
2,953251	347,102553	11,224	0,009367	22,380000	52,345000
2,956678	350,101161	11,325	0,010621	22,380000	52,345000
2,959992	353,440864	11,425	0,012017	22,380000	52,345000
2,963298	355,957031	11,527	0,013068	22,380000	52,345000
2,966617	359,651848	11,627	0,014613	22,380000	52,345000
2,969936	363,062808	11,727	0,016039	22,380000	52,345000
2,973279	365,776391	11,829	0,017173	22,380000	52,345000
2,976622	368,989935	11,930	0,018516	22,380000	52,345000
2,979949	372,020083	12,031	0,019783	22,380000	52,345000
2,983282	374,813098	12,131	0,020950	22,380000	52,345000
2,986637	378,263775	12,232	0,022393	22,380000	52,345000
2,989928	380,511270	12,332	0,023332	22,380000	52,345000
2,993298	383,866160	12,432	0,024734	22,380000	52,345000
2,996605	387,015457	12,533	0,026051	22,380000	52,345000
2,999940	390,204471	12,634	0,027384	22,380000	52,345000
3,003244	394,731001	12,735	0,029276	22,380000	52,345000
3,006624	396,312659	12,837	0,029937	22,380000	52,345000
3,009914	399,581106	12,938	0,031303	22,370000	52,345000
3,013264	402,627607	13,038	0,032577	22,370000	52,345000
3,016656	406,220797	13,138	0,034079	22,370000	52,345000
3,019938	408,712433	13,238	0,035120	22,370000	52,345000
3,023291	411,823181	13,338	0,036420	22,370000	52,345000
3,026633	415,463096	13,438	0,037942	22,370000	52,345000
3,029926	418,770092	13,541	0,039324	22,370000	52,345000
3,033262	421,523391	13,641	0,040475	22,370000	52,345000
3,036652	425,282456	13,741	0,042046	22,370000	52,345000
3,039979	429,721376	13,841	0,043902	22,370000	52,345000
3,043312	432,182641	13,942	0,044931	22,370000	52,345000
3,046603	434,478030	14,042	0,045890	22,370000	52,345000
3,049894	439,280241	14,142	0,047897	22,370000	52,345000
3,053277	442,280016	14,244	0,049151	22,370000	52,345000
3,056606	445,270447	14,346	0,050401	22,370000	52,345000
3,059926	448,175604	14,446	0,051616	22,370000	52,345000
3,063251	451,474422	14,546	0,052995	22,370000	52,345000
3,066586	454,600357	14,646	0,054301	22,370000	52,345000
3,069956	458,152661	14,746	0,055786	22,370000	52,345000
3,073280	460,993571	14,847	0,056974	22,370000	52,345000
3,076621	463,557631	14,948	0,058045	22,380000	52,345000
3,080042	466,952237	15,049	0,059464	22,380000	52,345000
3,083249	469,587554	15,149	0,060566	22,380000	52,345000
3,086545	473,386336	15,249	0,062154	22,380000	52,345000
3,089949	476,542642	15,349	0,063473	22,380000	52,345000
3,093280	479,748009	15,449	0,064813	22,380000	52,345000
3,096574	482,952209	15,549	0,066152	22,380000	52,345000
3,099996	485,673968	15,650	0,067290	22,380000	52,345000
3,103252	488,697107	15,750	0,068554	22,380000	52,345000
3,106613	493,263354	15,850	0,070462	22,380000	52,345000
3,109975	495,075135	15,951	0,071220	22,380000	52,345000
3,113254	499,918230	16,051	0,073244	22,380000	52,345000
3,116599	503,177333	16,152	0,074606	22,380000	52,345000
3,119894	504,681893	16,252	0,075235	22,380000	52,345000
3,123258	507,798482	16,352	0,076538	22,380000	52,345000
3,126644	512,475703	16,454	0,078493	22,380000	52,345000
3,129901	515,475478	16,555	0,079747	22,380000	52,345000
3,133297	518,631785	16,656	0,081066	22,380000	52,345000
3,136607	521,852338	16,757	0,082413	22,380000	52,345000
3,139895	524,907016	16,859	0,083689	22,380000	52,345000
3,143302	528,142756	16,959	0,085042	22,370000	52,345000
3,146524	531,324761	17,062	0,086372	22,370000	52,345000
3,149929	534,410979	17,162	0,087662	22,370000	52,345000
3,153205	536,262476	17,262	0,088436	22,370000	52,345000
3,156562	540,535521	17,363	0,090222	22,370000	52,345000
3,159930	542,743300	17,463	0,091145	22,370000	52,345000
3,163257	545,702190	17,563	0,092382	22,370000	52,345000
3,166586	548,985823	17,663	0,093754	22,370000	52,345000
3,169927	552,230908	17,764	0,095111	22,370000	52,345000
3,173280	556,606749	17,865	0,096940	22,370000	52,345000
3,176589	559,462844	17,966	0,098134	22,370000	52,345000
3,179893	562,169417	18,066	0,099265	22,370000	52,345000
3,183239	564,978787	18,168	0,100439	22,370000	52,345000
3,186581	569,646662	18,268	0,102391	22,370000	52,345000
3,189936	571,015718	18,369	0,102963	22,370000	52,345000
3,193223	574,687173	18,469	0,104498	22,370000	52,345000
3,196606	578,050239	18,569	0,105903	22,370000	52,345000
3,199910	581,912100	18,670	0,107518	22,370000	52,345000
3,203233	584,380373	18,771	0,108549	22,370000	52,345000
3,206576	587,340432	18,871	0,109787	22,370000	52,345000
3,209927	590,703499	18,971	0,111192	22,370000	52,335000
3,213243	593,750000	19,072	0,112466	22,370000	52,335000
3,216603	596,432042	19,173	0,113587	22,370000	52,335000
3,219895	600,096488	19,273	0,115119	22,370000	52,335000
3,223214	604,812257	19,373	0,117090	22,370000	52,335000
3,226613	607,961554	19,473	0,118406	22,370000	52,335000
3,229910	610,905259	19,575	0,119637	22,370000	52,335000
3,233240	614,165530	19,676	0,121000	22,370000	52,335000
3,236601	617,560136	19,777	0,122418	22,370000	52,335000
3,239884	620,432584	19,878	0,123619	22,370000	52,335000
3,243192	623,716217	19,978	0,124992	22,370000	52,335000
3,246594	626,928594	20,079	0,126334	22,370000	52,335000
3,249920	630,213395	20,179	0,127708	22,370000	52,335000
3,253207	631,914203	20,280	0,128418	22,370000	52,335000
3,256599	634,564705	20,381	0,129526	22,370000	52,335000
3,259883	638,275877	20,481	0,131078	22,370000	52,335000
3,263239	641,164679	20,581	0,132285	22,370000	52,335000
3,266581	644,899213	20,681	0,133846	22,370000	52,335000
3,269895	647,519344	20,781	0,134941	22,370000	52,335000
3,273286	651,467647	20,882	0,136592	22,370000	52,335000
3,276565	654,584237	20,982	0,137895	22,370000	52,295000
3,279917	657,179837	21,082	0,138979	22,370000	52,295000
3,283215	661,872243	21,182	0,140941	22,370000	52,295000
3,286592	663,842890	21,283	0,141765	22,370000	52,295000
3,289888	666,874206	21,384	0,143032	22,370000	52,295000
3,293223	671,447462	21,487	0,144943	22,370000	52,295000
3,296579	672,737085	21,588	0,145482	22,370000	52,295000
3,299929	676,076789	21,689	0,146878	22,370000	52,295000
3,303208	679,368599	21,790	0,148254	22,370000	52,295000
3,306550	684,044651	21,891	0,150209	22,370000	52,295000
3,309932	685,342451	21,991	0,150751	22,370000	52,295000
3,313225	689,418081	22,091	0,152455	22,370000	52,295000
3,316511	691,854815	22,191	0,153474	22,370000	52,295000
3,319933	695,345208	22,292	0,154933	22,370000	52,295000
3,323205	698,367178	22,392	0,156196	22,370000	52,295000
3,326571	701,715059	22,492	0,157595	22,370000	52,295000
3,329879	704,769737	22,592	0,158872	22,370000	52,295000
3,333225	709,223843	22,693	0,160734	22,370000	52,295000
3,336544	711,035624	22,793	0,161491	22,370000	52,295000
3,339870	714,461769	22,894	0,162923	22,370000	52,295000
3,343201	718,901858	22,994	0,164779	22,380000	52,305000
3,346631	722,264924	23,096	0,166185	22,380000	52,305000
3,349884	725,326611	23,197	0,167465	22,380000	52,305000
3,353204	728,270316	23,298	0,168695	22,380000	52,305000
3,356565	731,356534	23,399	0,169985	22,380000	52,305000
3,359930	734,853936	23,499	0,171447	22,380000	52,305000
3,363224	737,631766	23,599	0,172608	22,380000	52,305000
3,366586	740,789240	23,700	0,173928	22,380000	52,305000
3,369901	743,661689	23,801	0,175129	22,380000	52,305000
3,373237	746,501430	23,902	0,176316	22,380000	52,305000
3,376553	750,054902	24,002	0,177801	22,380000	52,305000
3,379965	753,338535	24,102	0,179174	22,380000	52,305000
3,383192	755,357076	24,203	0,180018	22,380000	52,305000
3,386507	759,345096	24,304	0,181685	22,380000	52,305000
3,389838	762,406783	24,405	0,182964	22,380000	52,305000
3,393203	765,184612	24,505	0,184125	22,380000	52,305000
3,396558	768,713554	24,605	0,185601	22,380000	52,305000
3,399922	771,396765	24,706	0,186722	22,380000	52,305000
3,403201	776,334480	24,807	0,188786	22,380000	52,305000
3,406582	779,412521	24,909	0,190073	22,380000	52,320000
3,409881	782,474208	25,009	0,191353	22,380000	52,320000
3,413181	784,207723	25,109	0,192077	22,380000	52,320000
3,416565	787,380383	25,211	0,193403	22,380000	52,320000
3,419924	790,640653	25,312	0,194766	22,380000	52,320000
3,423221	793,789950	25,412	0,196083	22,380000	52,320000
3,426568	796,750009	25,512	0,197320	22,380000	52,320000
3,429848	800,325677	25,612	0,198814	22,380000	52,320000
3,433209	805,026260	25,712	0,200779	22,380000	52,320000
3,436542	806,640625	25,812	0,201454	22,380000	52,320000
3,439952	811,095899	25,912	0,203316	22,380000	52,320000
3,443180	814,790717	26,013	0,204861	22,380000	52,320000
3,446527	817,734422	26,113	0,206091	22,380000	52,320000
3,449908	820,528605	26,215	0,207259	22,380000	52,320000
3,453259	824,017830	26,315	0,208718	22,380000	52,320000
3,456533	827,143765	26,417	0,210024	22,380000	52,320000
3,459895	830,324602	26,517	0,211354	22,380000	52,320000
3,463217	833,046361	26,617	0,212492	22,380000	52,320000
3,466570	836,409427	26,717	0,213897	22,380000	52,320000
3,469853	839,613627	26,817	0,215237	22,380000	52,320000
3,473140	842,280484	26,919	0,216352	22,380000	52,320000
3,476535	844,867907	27,019	0,217433	22,380000	52,320000
3,479881	848,207611	27,122	0,218829	22,380000	52,320000
3,483210	851,293828	27,222	0,220119	22,380000	52,320000
3,486509	854,434949	27,325	0,221432	22,380000	52,320000
3,489821	858,938117	27,426	0,223314	22,380000	52,320000
3,493208	860,781437	27,527	0,224085	22,380000	52,320000
3,496547	865,505383	27,628	0,226060	22,380000	52,320000
3,499880	868,535530	27,729	0,227326	22,380000	52,320000
3,503177	871,709358	27,830	0,228653	22,380000	52,320000
3,506486	874,873841	27,930	0,229976	22,380000	52,320000
3,509893	877,802361	28,030	0,231200	22,380000	52,320000
3,513188	879,796370	28,130	0,232033	22,380000	52,320000
3,516546	882,731899	28,230	0,233260	22,380000	52,320000
3,519855	885,983992	28,331	0,234620	22,380000	52,320000
3,523183	889,196368	28,432	0,235962	22,380000	52,320000
3,526567	892,520886	28,533	0,237352	22,380000	52,320000
3,529876	895,322079	28,633	0,238523	22,380000	52,320000
3,533182	899,974768	28,733	0,240468	22,380000	52,320000
3,536567	902,719890	28,835	0,241615	22,380000	52,320000
3,539865	906,359805	28,935	0,243137	22,380000	52,345000
3,543183	909,271970	29,037	0,244354	22,380000	52,345000
3,546514	912,397905	29,138	0,245661	22,380000	52,345000
3,549807	915,040231	29,239	0,246765	22,380000	52,345000
3,553123	918,490907	29,340	0,248208	22,380000	52,345000
3,556472	922,787315	29,440	0,250003	22,380000	52,345000
3,559838	924,298884	29,541	0,250635	22,380000	52,345000
3,563170	927,685313	29,641	0,252051	22,380000	52,345000
3,566520	930,882504	29,741	0,253387	22,380000	52,345000
3,569824	933,794670	29,841	0,254604	22,380000	52,345000
3,573189	937,022232	29,942	0,255954	22,380000	52,345000
3,576523	940,426183	30,042	0,257376	22,380000	52,345000
3,579900	943,527587	30,143	0,258673	22,380000	52,345000
3,583180	948,417408	30,243	0,260717	22,380000	52,345000
3,586522	949,802818	30,344	0,261296	22,380000	52,345000
3,589792	952,358702	30,445	0,262364	22,380000	52,345000
3,589817	954,145952	30,545	0,263111	22,380000	52,345000
3,589810	954,170483	30,645	0,263122	22,380000	52,345000
3,589887	954,107403	30,747	0,263095	22,380000	52,345000
3,589796	954,225385	30,848	0,263145	22,380000	52,345000
3,589893	953,925174	30,948	0,263019	22,370000	52,320000
3,589849	954,004607	31,052	0,263052	22,370000	52,320000
3,589782	954,202022	31,156	0,263135	22,370000	52,320000
3,589809	953,806024	31,257	0,262969	22,370000	52,320000
3,589834	953,996430	31,357	0,263049	22,370000	52,320000
3,589844	953,790838	31,458	0,262963	22,370000	52,320000
3,586546	951,463909	31,559	0,261990	22,370000	52,320000
3,583136	949,145157	31,659	0,261021	22,370000	52,320000
3,579824	945,592853	31,759	0,259536	22,370000	52,320000
3,576508	942,016017	31,859	0,258041	22,370000	52,320000
3,573139	938,661128	31,959	0,256639	22,370000	52,320000
3,569834	934,918417	32,060	0,255074	22,370000	52,320000
3,566506	930,857973	32,160	0,253377	22,370000	52,320000
3,563200	929,117449	32,260	0,252649	22,370000	52,320000
3,559818	925,580330	32,360	0,251171	22,370000	52,320000
3,556484	922,755775	32,460	0,249990	22,370000	52,320000
3,553174	919,409063	32,561	0,248591	22,370000	52,320000
3,549867	914,337012	32,662	0,246471	22,370000	52,320000
3,546437	911,582545	32,764	0,245320	22,370000	52,320000
3,543147	907,982347	32,866	0,243815	22,370000	52,320000
3,539870	904,761794	32,967	0,242469	22,380000	52,335000
3,536512	901,826265	33,067	0,241242	22,380000	52,335000
3,533144	898,297324	33,167	0,239767	22,380000	52,335000
3,529834	897,022886	33,268	0,239234	22,380000	52,335000
3,526510	892,425099	33,369	0,237312	22,380000	52,335000
3,523126	890,336470	33,470	0,236439	22,380000	52,335000
3,519803	887,091386	33,570	0,235083	22,380000	52,335000
3,516522	883,704957	33,670	0,233667	22,380000	52,335000
3,513133	880,611730	33,770	0,232374	22,380000	52,335000
3,509777	877,540698	33,870	0,231090	22,380000	52,335000
3,506490	874,083012	33,970	0,229645	22,380000	52,335000
3,503176	870,751486	34,071	0,228252	22,380000	52,335000
3,499857	866,677024	34,171	0,226549	22,380000	52,335000
3,496476	863,915548	34,272	0,225395	22,380000	52,335000
3,493193	860,123776	34,372	0,223810	22,380000	52,335000
3,489897	856,888036	34,473	0,222458	22,380000	52,335000
3,486517	854,205994	34,574	0,221336	22,380000	52,335000
3,483150	851,555491	34,675	0,220229	22,380000	52,335000
3,479876	847,708816	34,776	0,218621	22,380000	52,335000
3,476558	845,041959	34,877	0,217506	22,380000	52,335000
3,473188	841,900839	34,979	0,216193	22,370000	52,335000
3,469863	837,168716	35,080	0,214215	22,370000	52,335000
3,466494	833,765933	35,186	0,212792	22,370000	52,335000
3,463145	830,672707	35,287	0,211500	22,370000	52,335000
3,459815	827,530418	35,389	0,210186	22,370000	52,335000
3,456512	825,093685	35,490	0,209167	22,370000	52,335000
3,453181	821,042586	35,590	0,207474	22,370000	52,335000
3,449848	817,560369	35,692	0,206019	22,370000	52,335000
3,446559	814,585124	35,792	0,204775	22,370000	52,335000
3,443235	811,942799	35,895	0,203670	22,370000	52,335000
3,439934	809,315659	35,995	0,202572	22,370000	52,335000
3,436523	806,062397	36,095	0,201212	22,370000	52,335000
3,433202	802,732039	36,195	0,199820	22,370000	52,335000
3,429896	799,677361	36,298	0,198543	22,370000	52,335000
3,426481	796,488347	36,398	0,197210	22,370000	52,335000
3,423164	791,930276	36,498	0,195305	22,370000	52,335000
3,419876	790,213115	36,599	0,194587	22,370000	52,335000
3,416480	785,363010	36,700	0,192560	22,370000	52,335000
3,413201	783,914520	36,801	0,191955	22,370000	52,335000
3,409890	780,575985	36,903	0,190559	22,370000	52,335000
3,406507	775,630093	37,003	0,188492	22,370000	52,335000
3,403227	774,055444	37,105	0,187833	22,370000	52,335000
3,399858	771,166642	37,206	0,186626	22,370000	52,335000
3,396581	767,732319	37,308	0,185190	22,370000	52,335000
3,393197	764,480226	37,409	0,183831	22,370000	52,335000
3,389834	761,513158	37,510	0,182591	22,370000	52,335000
3,386511	757,223759	37,610	0,180798	22,370000	52,335000
3,383230	753,868870	37,710	0,179396	22,370000	52,335000
3,379868	751,210190	37,810	0,178284	22,370000	52,335000
3,376572	748,757102	37,912	0,177259	22,370000	52,335000
3,373242	745,291240	38,013	0,175810	22,370000	52,335000
3,369915	741,603432	38,113	0,174269	22,370000	52,335000
3,366537	738,596647	38,214	0,173012	22,370000	52,335000
3,363204	735,962498	38,315	0,171911	22,370000	52,335000
3,359876	732,251327	38,415	0,170359	22,370000	52,335000
3,356575	728,934986	38,515	0,168973	22,370000	52,335000
3,353185	725,777512	38,615	0,167653	22,370000	52,335000
3,349883	722,541773	38,715	0,166301	22,370000	52,335000
3,346547	719,067733	38,815	0,164849	22,370000	52,335000
3,343168	716,171922	38,915	0,163638	22,380000	52,345000
3,339867	712,895298	39,015	0,162269	22,380000	52,345000
3,336515	709,682921	39,115	0,160926	22,380000	52,345000
3,333204	706,636420	39,215	0,159652	22,380000	52,345000
3,329819	703,558379	39,315	0,158366	22,380000	52,345000
3,326539	700,472161	39,416	0,157076	22,380000	52,345000
3,323202	697,054192	39,517	0,155647	22,380000	52,345000
3,319888	693,628047	39,618	0,154215	22,380000	52,345000
3,316545	690,881757	39,719	0,153067	22,380000	52,345000
3,313239	687,344638	39,819	0,151588	22,380000	52,345000
3,309866	684,187164	39,919	0,150269	22,380000	52,345000
3,306607	681,410502	40,020	0,149108	22,380000	52,345000
3,303243	677,817313	40,121	0,147606	22,380000	52,345000
3,299951	674,826882	40,221	0,146356	22,380000	52,345000
3,296501	671,407745	40,322	0,144927	22,380000	52,345000
3,293241	668,392784	40,422	0,143667	22,380000	52,345000
3,289935	663,455069	40,522	0,141603	22,380000	52,345000
3,286537	660,408568	40,623	0,140329	22,380000	52,345000
3,283228	657,529110	40,728	0,139125	22,380000	52,345000
3,279868	655,028129	40,831	0,138080	22,380000	52,345000
3,276593	651,728142	40,931	0,136701	22,390000	52,345000
3,273197	648,476049	41,031	0,135341	22,390000	52,345000
3,269932	645,508981	41,132	0,134101	22,390000	52,345000
3,266560	642,351506	41,232	0,132781	22,390000	52,345000
3,263231	639,462704	41,332	0,131574	22,390000	52,345000
3,259884	636,163885	41,432	0,130195	22,390000	52,345000
3,256558	633,140746	41,539	0,128931	22,390000	52,345000
3,253271	629,762494	41,640	0,127519	22,390000	52,345000
3,249916	626,446154	41,740	0,126133	22,390000	52,345000
3,246537	623,644961	41,840	0,124962	22,390000	52,345000
3,243244	620,384691	41,941	0,123599	22,390000	52,345000
3,239950	617,195677	42,042	0,122266	22,390000	52,345000
3,236576	614,094273	42,143	0,120970	22,390000	52,345000
3,233214	609,489477	42,243	0,119045	22,390000	52,345000
3,229942	607,558547	42,344	0,118238	22,390000	52,345000
3,226550	604,353179	42,444	0,116898	22,390000	52,345000
3,223295	601,220236	42,545	0,115588	22,390000	52,345000
3,219923	597,310481	42,645	0,113954	22,390000	52,345000
3,216559	594,636616	42,751	0,112836	22,390000	52,345000
3,213225	591,383355	42,851	0,111477	22,390000	52,345000
3,209916	588,250411	42,951	0,110167	22,380000	52,345000
3,206579	585,101114	43,051	0,108851	22,380000	52,345000
3,203274	582,197125	43,152	0,107637	22,380000	52,345000
3,199887	578,628467	43,252	0,106145	22,380000	52,345000
3,196545	575,542249	43,354	0,104855	22,380000	52,345000
3,193296	570,612711	43,454	0,102794	22,380000	52,345000
3,189936	569,013532	43,555	0,102126	22,380000	52,345000
3,186576	565,912128	43,655	0,100830	22,380000	52,345000
3,183311	561,465031	43,756	0,098971	22,380000	52,345000
3,179987	558,093787	43,856	0,097562	22,380000	52,345000
3,176587	554,929304	43,957	0,096239	22,380000	52,345000
3,173233	551,787016	44,058	0,094925	22,380000	52,345000
3,169902	548,811771	44,158	0,093682	22,380000	52,345000
3,166589	545,465059	44,258	0,092283	22,380000	52,345000
3,163206	542,481637	44,362	0,091036	22,380000	52,345000
3,159936	539,189827	44,463	0,089660	22,380000	52,345000
3,156582	535,993804	44,563	0,088324	22,380000	52,345000
3,153265	532,922772	44,663	0,087040	22,380000	52,345000
3,149905	531,039735	44,763	0,086253	22,380000	52,345000
3,146553	527,756102	44,863	0,084880	22,380000	52,345000
3,143250	523,490066	44,963	0,083097	22,380000	52,345000
3,139921	521,361721	45,064	0,082208	22,380000	52,345000
3,136573	518,117804	45,164	0,080852	22,380000	52,345000
3,133263	513,473292	45,265	0,078910	22,380000	52,345000
3,129895	511,494468	45,366	0,078083	22,380000	52,345000
3,126554	507,664147	45,466	0,076482	22,380000	52,345000
3,123256	504,586106	45,566	0,075195	22,380000	52,345000
3,119936	501,113235	45,667	0,073744	22,380000	52,345000
3,116603	498,762943	45,768	0,072761	22,380000	52,345000
3,113265	494,433827	45,868	0,070952	22,380000	52,345000
3,109928	491,806687	45,968	0,069854	22,380000	52,345000
3,106553	489,646802	46,068	0,068951	22,380000	52,345000
3,103268	486,267382	46,169	0,067538	22,380000	52,345000
3,099888	483,356385	46,269	0,066321	22,380000	52,345000
3,096602	479,937248	46,370	0,064892	22,380000	52,345000
3,093263	475,173585	46,471	0,062901	22,380000	52,345000
3,089958	473,378159	46,571	0,062150	22,380000	52,345000
3,086551	470,449639	46,671	0,060926	22,380000	52,345000
3,083259	465,820313	46,771	0,058991	22,380000	52,345000
3,079954	463,786586	46,871	0,058141	22,380000	52,345000
3,076601	461,049641	46,972	0,056997	22,380000	52,335000
3,073243	456,150475	47,072	0,054949	22,380000	52,335000
3,069939	454,378411	47,172	0,054208	22,380000	52,335000
3,066582	451,111132	47,272	0,052843	22,380000	52,335000
3,063271	448,119533	47,372	0,051592	22,380000	52,335000
3,059928	443,221535	47,472	0,049545	22,380000	52,335000
3,056629	440,103777	47,579	0,048242	22,380000	52,335000
3,053280	437,120355	47,679	0,046995	22,380000	52,335000
3,049948	433,931342	47,780	0,045662	22,380000	52,335000
3,046605	431,027353	47,880	0,044448	22,380000	52,335000
3,043251	428,107011	47,985	0,043227	22,380000	52,335000
3,039920	424,879448	48,086	0,041878	22,380000	52,335000
3,036577	422,101619	48,187	0,040717	22,380000	52,335000
3,033242	418,136962	48,288	0,039060	22,380000	52,335000
3,029939	415,834564	48,390	0,038097	22,380000	52,335000
3,026637	412,977301	48,490	0,036903	22,380000	52,335000
3,023238	409,836180	48,591	0,035590	22,380000	52,335000
3,019898	406,980086	48,692	0,034396	22,380000	52,335000
3,016565	403,648559	48,792	0,033003	22,380000	52,335000
3,013198	398,616225	48,892	0,030900	22,380000	52,335000
3,009892	395,545193	48,993	0,029616	22,380000	52,335000
3,006626	394,066331	49,105	0,028998	22,380000	52,335000
3,003240	389,903091	49,205	0,027258	22,380000	52,335000
2,999955	386,793511	49,305	0,025958	22,380000	52,335000
2,996653	383,581134	49,406	0,024615	22,380000	52,335000
2,993286	381,373355	49,506	0,023692	22,380000	52,335000
2,989896	377,860767	49,608	0,022224	22,380000	52,335000
2,986613	374,947434	49,709	0,021006	22,380000	52,335000
2,983251	371,625252	49,810	0,019618	22,380000	52,335000
2,979948	368,681547	49,911	0,018387	22,380000	52,335000
2,976625	365,255401	50,011	0,016955	22,380000	52,335000
2,973289	360,902923	50,111	0,015136	22,380000	52,335000
2,969948	357,650830	50,211	0,013776	22,380000	52,335000
2,966627	354,485179	50,312	0,012453	22,380000	52,335000
2,963303	352,942070	50,412	0,011808	22,380000	52,335000
2,959938	349,689976	50,512	0,010449	22,380000	52,335000
2,956612	346,580396	50,612	0,009149	22,380000	52,335000
2,953210	343,383205	50,714	0,007812	22,380000	52,335000
2,949957	340,131112	50,815	0,006453	22,380000	52,335000
2,946592	336,744683	50,916	0,005038	22,370000	52,345000
2,943313	333,950499	51,018	0,003870	22,370000	52,345000
2,939922	330,018550	51,119	0,002226	22,370000	52,345000
2,936689	326,181220	51,220	0,000622	22,370000	52,345000
2,933253	322,619570	51,320	-0,000867	22,370000	52,345000
2,929921	321,099824	51,424	-0,001502	22,370000	52,345000
2,926660	317,713395	51,526	-0,002917	22,370000	52,345000
2,923309	314,555921	51,627	-0,004237	22,370000	52,345000
2,919924	311,620393	51,729	-0,005464	22,370000	52,345000
2,916569	308,462919	51,830	-0,006784	22,370000	52,345000
2,913281	305,116206	51,930	-0,008183	22,370000	52,345000
2,909915	302,315014	52,030	-0,009354	22,370000	52,345000
2,906617	298,840975	52,130	-0,010806	22,370000	52,345000
2,903281	295,976703	52,230	-0,012003	22,370000	52,345000
2,900007	290,817042	52,331	-0,014160	22,370000	52,345000
2,896625	287,707461	52,431	-0,015460	22,370000	52,345000
2,893288	284,495084	52,532	-0,016803	22,370000	52,345000
2,889953	281,360973	52,632	-0,018113	22,370000	52,345000
2,886665	278,385728	52,732	-0,019356	22,370000	52,345000
2,883336	275,102095	52,832	-0,020729	22,370000	52,345000
2,879955	273,495907	52,932	-0,021400	22,380000	52,335000
2,876591	270,631635	53,033	-0,022598	22,380000	52,335000
2,873264	267,205489	53,140	-0,024030	22,380000	52,335000
2,869978	263,937042	53,240	-0,025396	22,380000	52,335000
2,866641	260,779568	53,340	-0,026716	22,380000	52,335000
2,863323	256,957424	53,440	-0,028313	22,380000	52,335000
2,859939	253,856020	53,543	-0,029610	22,380000	52,335000
2,856663	251,260420	53,643	-0,030695	22,380000	52,335000
2,853253	247,295763	53,743	-0,032352	22,380000	52,335000
2,849981	244,756233	53,843	-0,033414	22,380000	52,335000
2,846629	241,812528	53,946	-0,034644	22,380000	52,335000
2,843308	238,457639	54,046	-0,036046	22,380000	52,335000
2,839941	235,315350	54,147	-0,037360	22,380000	52,335000
2,836622	232,197593	54,248	-0,038663	22,380000	52,335000
2,833332	227,616160	54,348	-0,040578	22,380000	52,335000
2,829970	224,506579	54,449	-0,041878	22,380000	52,335000
2,826594	221,405175	54,550	-0,043174	22,380000	52,335000
2,823295	217,803809	54,650	-0,044680	22,380000	52,335000
2,819974	216,356487	54,751	-0,045285	22,380000	52,335000
2,816611	213,318163	54,852	-0,046555	22,380000	52,335000
2,813265	210,089433	54,953	-0,047904	22,380000	52,305000
2,809894	206,940135	55,053	-0,049221	22,380000	52,305000
2,806682	202,112225	55,153	-0,051239	22,380000	52,305000
2,803286	199,406820	55,253	-0,052370	22,380000	52,305000
2,799903	195,909418	55,353	-0,053832	22,380000	52,305000
2,796645	192,720404	55,453	-0,055165	22,380000	52,305000
2,793341	191,462321	55,555	-0,055690	22,380000	52,305000
2,789947	187,671716	55,655	-0,057275	22,380000	52,305000
2,786572	185,004859	55,756	-0,058390	22,380000	52,305000
2,783365	181,847385	55,856	-0,059709	22,380000	52,305000
2,779927	177,219227	55,957	-0,061644	22,380000	52,305000
2,776680	174,733431	56,057	-0,062683	22,380000	52,305000
2,773300	170,864562	56,158	-0,064300	22,380000	52,305000
2,769984	167,983936	56,258	-0,065504	22,380000	52,305000
2,766657	165,966563	56,369	-0,066348	22,380000	52,305000
2,763336	162,856983	56,470	-0,067647	22,380000	52,305000
2,759995	159,810481	56,572	-0,068921	22,380000	52,305000
2,756674	156,376159	56,672	-0,070356	22,380000	52,305000
2,753303	153,298118	56,772	-0,071643	22,380000	52,305000
2,750036	150,218909	56,872	-0,072930	22,380000	52,305000
2,746635	146,864020	56,972	-0,074333	22,390000	52,335000
2,743285	142,290763	57,072	-0,076244	22,390000	52,335000
2,739969	138,911343	57,172	-0,077657	22,390000	52,335000
2,736586	137,613543	57,272	-0,078199	22,390000	52,335000
2,733304	134,377804	57,372	-0,079552	22,390000	52,335000
2,730006	131,077817	57,473	-0,080931	22,390000	52,335000
2,726648	128,055846	57,574	-0,082194	22,390000	52,335000
2,723288	125,016354	57,676	-0,083465	22,390000	52,335000
2,719999	121,518952	57,776	-0,084927	22,390000	52,335000
2,716627	116,486618	57,877	-0,087030	22,390000	52,335000
2,713263	114,358272	57,978	-0,087920	22,390000	52,335000
2,709931	110,915773	58,079	-0,089359	22,390000	52,335000
2,706622	108,976665	58,179	-0,090169	22,390000	52,335000
2,703299	105,328574	58,280	-0,091694	22,390000	52,335000
2,699915	102,290249	58,380	-0,092964	22,390000	52,335000
2,696638	99,545127	58,480	-0,094112	22,390000	52,335000
2,693278	96,268503	58,581	-0,095481	22,390000	52,335000
2,689997	92,653119	58,681	-0,096993	22,390000	52,335000
2,686695	89,756140	58,782	-0,098204	22,390000	52,335000
2,683376	86,654736	58,883	-0,099500	22,390000	52,335000
2,679979	83,442359	58,984	-0,100843	22,380000	52,320000
2,676662	80,419221	59,085	-0,102106	22,380000	52,320000
2,673284	77,364543	59,185	-0,103383	22,380000	52,320000
2,669999	74,096096	59,285	-0,104750	22,380000	52,320000
2,666636	71,342797	59,386	-0,105900	22,380000	52,320000
2,663316	66,159773	59,487	-0,108067	22,380000	52,320000
2,659968	64,656381	59,587	-0,108695	22,380000	52,320000
2,656644	59,607693	59,689	-0,110806	22,380000	52,320000
2,653282	56,688519	59,789	-0,112026	22,380000	52,320000
2,649965	53,428248	59,889	-0,113389	22,380000	52,320000
2,646689	51,101320	59,998	-0,114361	22,380000	52,320000
2,643277	47,999916	60,099	-0,115658	22,380000	52,320000
2,639983	44,739646	60,200	-0,117021	22,380000	52,320000
2,636652	41,328686	60,301	-0,118446	22,380000	52,320000
2,633357	38,733085	60,402	-0,119531	22,380000	52,320000
2,629991	35,457629	60,502	-0,120900	22,380000	52,320000
2,626691	32,577004	60,602	-0,122104	22,380000	52,320000
2,623374	28,802753	60,704	-0,123682	22,380000	52,320000
2,619931	26,238692	60,804	-0,124754	22,380000	52,320000
2,616627	22,883803	60,905	-0,126156	22,380000	52,320000
2,613307	19,702966	61,005	-0,127486	22,380000	52,320000
2,610002	16,474236	61,119	-0,128835	22,380000	52,320000
2,606679	11,584414	61,219	-0,130879	22,380000	52,320000
2,603297	9,653484	61,319	-0,131687	22,380000	52,320000
2,600001	6,321957	61,419	-0,133079	22,380000	52,320000
2,596641	2,587423	61,519	-0,134640	22,380000	52,320000
2,593375	-0,047894	61,619	-0,135742	22,380000	52,320000
2,589965	-3,117758	61,719	-0,137025	22,380000	52,320000