File: Nanoindentation Datenauswertung/data/S_calib/S_calib_0509-3
Quasi static measurement routine
Tip parameters (shape,radius, material...)
05.09.2022

Piezo position[nm]	MEMS displ.[nm]	Time[ms]	Cap [pf]	Temp [°C]	Rh [%]
eoh
1,935986	-0,024472	0,196	-0,069632	94,160000	0,000000
1,939979	2,447233	0,397	-0,068597	94,160000	0,000000
1,943927	6,503813	0,597	-0,066897	94,160000	0,000000
1,948006	10,040647	0,797	-0,065415	94,160000	0,000000
1,951984	14,374580	0,997	-0,063599	94,160000	0,000000
1,956050	18,147981	1,197	-0,062018	94,160000	0,000000
1,959986	22,293127	1,398	-0,060281	94,160000	0,000000
1,963923	28,236407	1,599	-0,057791	94,160000	0,000000
1,967960	30,217501	1,799	-0,056961	94,160000	0,000000
1,971966	34,511812	2,001	-0,055162	94,160000	0,000000
1,975889	38,215291	2,201	-0,053610	94,160000	0,000000
1,979951	42,327808	2,401	-0,051887	94,160000	0,000000
1,983986	48,374804	2,601	-0,049353	94,160000	0,000000
1,987974	52,439542	2,801	-0,047650	94,160000	0,000000
1,992001	56,379587	3,001	-0,045999	94,160000	0,000000
1,995921	58,344365	3,203	-0,045176	94,160000	0,000000
1,999979	62,529134	3,403	-0,043422	94,160000	0,000000
2,003984	66,428392	3,603	-0,041789	94,160000	0,000000
2,007961	72,435766	3,804	-0,039271	94,160000	0,000000
2,011976	76,295402	4,004	-0,037654	94,160000	0,000000
2,015951	78,348747	4,205	-0,036794	94,160000	0,000000
2,019971	84,371271	4,407	-0,034271	94,160000	0,000000
2,023948	88,176136	4,608	-0,032676	94,110000	0,000000
2,027919	91,246830	4,809	-0,031390	94,110000	0,000000
2,031981	96,607436	5,010	-0,029144	94,110000	0,000000
2,035966	99,812146	5,210	-0,027801	94,110000	0,000000
2,039951	103,159028	5,413	-0,026398	94,110000	0,000000
2,043987	107,319324	5,613	-0,024655	94,110000	0,000000
2,047968	110,856159	5,814	-0,023173	94,110000	0,000000
2,052006	114,945368	6,015	-0,021460	94,110000	0,000000
2,056003	118,742076	6,216	-0,019869	94,110000	0,000000
2,059998	124,694679	6,417	-0,017375	94,110000	0,000000
2,063937	126,865724	6,617	-0,016465	94,170000	0,000000
2,067919	132,210015	6,818	-0,014226	94,170000	0,000000
2,071913	134,837877	7,018	-0,013125	94,170000	0,000000
2,076030	138,793071	7,219	-0,011468	94,170000	0,000000
2,079986	142,875289	7,420	-0,009757	94,170000	0,000000
2,083902	148,479453	7,620	-0,007409	94,170000	0,000000
2,087933	153,074424	7,821	-0,005484	94,170000	0,000000
2,091963	157,289491	8,022	-0,003718	94,170000	0,000000
2,095958	161,039585	8,222	-0,002146	94,170000	0,000000
2,099951	165,269802	8,423	-0,000374	94,170000	0,000000
2,103906	168,798479	8,624	0,001104	94,080000	0,000000
2,107972	172,816602	8,824	0,002788	94,080000	0,000000
2,112047	174,995805	9,024	0,003701	94,080000	0,000000
2,115898	181,105730	9,224	0,006261	94,080000	0,000000
2,119928	184,705493	9,425	0,007770	94,080000	0,000000
2,123941	188,746923	9,625	0,009463	94,080000	0,000000
2,127918	193,223029	9,825	0,011338	94,080000	0,000000
2,131964	195,299681	10,027	0,012208	94,080000	0,000000
2,135997	199,253710	10,227	0,013865	94,080000	0,000000
2,140015	204,108555	10,429	0,015899	94,080000	0,000000
2,143904	207,527689	10,630	0,017332	94,160000	0,000000
2,147938	213,645771	10,830	0,019896	94,160000	0,000000
2,151993	215,413606	11,030	0,020636	94,160000	0,000000
2,155968	219,304706	11,231	0,022267	94,160000	0,000000
2,159908	223,402073	11,432	0,023983	94,160000	0,000000
2,163962	229,315054	11,633	0,026461	94,160000	0,000000
2,167956	233,348327	11,833	0,028151	94,160000	0,000000
2,171982	235,235028	12,033	0,028941	94,160000	0,000000
2,175995	238,835956	12,234	0,030450	94,160000	0,000000
2,179936	243,272440	12,434	0,032309	94,160000	0,000000
2,183945	247,322028	12,634	0,034006	94,160000	0,000000
2,187967	252,587075	12,835	0,036212	94,130000	0,000000
2,191935	255,523754	13,035	0,037442	94,130000	0,000000
2,195984	261,112768	13,235	0,039784	94,130000	0,000000
2,199934	263,497073	13,436	0,040783	94,130000	0,000000
2,203984	268,177114	13,637	0,042744	94,130000	0,000000
2,207955	273,403705	13,837	0,044934	94,130000	0,000000
2,211980	275,669143	14,037	0,045883	94,130000	0,000000
2,215960	279,394764	14,238	0,047444	94,130000	0,000000
2,219981	283,563218	14,439	0,049191	94,130000	0,000000
2,223962	289,585742	14,639	0,051714	94,130000	0,000000
2,227988	291,268506	14,840	0,052419	94,130000	0,000000
2,231963	296,817898	15,040	0,054745	94,130000	0,000000
2,235981	300,945564	15,240	0,056474	94,130000	0,000000
2,239936	303,503505	15,442	0,057546	94,130000	0,000000
2,243938	307,655644	15,642	0,059286	94,130000	0,000000
2,247981	313,781884	15,842	0,061853	94,130000	0,000000
2,251960	316,710406	16,043	0,063080	94,130000	0,000000
2,256014	320,498956	16,243	0,064667	94,130000	0,000000
2,259977	324,169805	16,443	0,066205	94,130000	0,000000
2,264006	328,291645	16,644	0,067932	94,130000	0,000000
2,268024	331,724763	16,844	0,069371	94,130000	0,000000
2,271921	336,422285	17,044	0,071339	94,130000	0,000000
2,276005	340,156064	17,244	0,072903	94,130000	0,000000
2,279939	343,818756	17,445	0,074438	94,130000	0,000000
2,284038	348,215618	17,645	0,076280	94,130000	0,000000
2,287980	352,036797	17,845	0,077881	94,130000	0,000000
2,291901	357,586189	18,045	0,080207	94,130000	0,000000
2,295992	360,238524	18,245	0,081318	94,130000	0,000000
2,300018	365,819380	18,447	0,083656	94,130000	0,000000
2,304005	367,816788	18,647	0,084493	94,130000	0,000000
2,307918	373,824163	18,848	0,087010	94,130000	0,000000
2,311983	375,750485	19,048	0,087817	94,130000	0,000000
2,315958	379,626436	19,249	0,089441	94,130000	0,000000
2,319940	383,928904	19,449	0,091244	94,130000	0,000000
2,324023	389,731177	19,649	0,093675	94,130000	0,000000
2,327964	391,751893	19,850	0,094522	94,130000	0,000000
2,331990	397,775582	20,051	0,097046	94,130000	0,000000
2,336020	400,056170	20,252	0,098001	94,130000	0,000000
2,339976	403,766641	20,452	0,099556	94,130000	0,000000
2,343917	410,066518	20,653	0,102196	94,130000	0,000000
2,347973	413,973933	20,853	0,103833	94,110000	0,000000
2,351982	417,802105	21,055	0,105437	94,110000	0,000000
2,355964	421,615127	21,256	0,107035	94,110000	0,000000
2,359977	423,991274	21,457	0,108030	94,110000	0,000000
2,363911	428,720260	21,657	0,110012	94,110000	0,000000
2,367935	432,974950	21,857	0,111794	94,110000	0,000000
2,371986	436,179660	22,059	0,113137	94,110000	0,000000
2,375980	440,837560	22,259	0,115089	94,110000	0,000000
2,379982	444,500252	22,460	0,116624	94,110000	0,000000
2,383967	448,296959	22,661	0,118214	94,180000	0,000000
2,387966	452,220689	22,862	0,119858	94,180000	0,000000
2,391982	456,072168	23,062	0,121472	94,180000	0,000000
2,396034	460,083299	23,262	0,123153	94,180000	0,000000
2,399995	464,543090	23,462	0,125021	94,180000	0,000000
2,403948	470,006246	23,662	0,127311	94,180000	0,000000
2,407956	472,334614	23,862	0,128286	94,180000	0,000000
2,411973	477,915470	24,062	0,130625	94,180000	0,000000
2,415941	480,000280	24,263	0,131498	94,180000	0,000000
2,419964	484,033553	24,464	0,133188	94,180000	0,000000
2,424002	487,917661	24,665	0,134815	94,180000	0,000000
2,427989	492,061642	24,865	0,136552	94,180000	0,000000
2,431943	495,906129	25,065	0,138163	94,180000	0,000000
2,435943	502,143077	25,266	0,140776	94,180000	0,000000
2,439929	506,295216	25,467	0,142516	94,180000	0,000000
2,443956	507,952342	25,667	0,143210	94,180000	0,000000
2,447983	511,781679	25,869	0,144814	94,180000	0,000000
2,451974	518,025619	26,069	0,147431	94,180000	0,000000
2,455969	521,870106	26,270	0,149042	94,180000	0,000000
2,459946	526,030402	26,471	0,150785	94,170000	0,000000
2,463968	529,542764	26,672	0,152256	94,170000	0,000000
2,467970	532,029619	26,873	0,153298	94,170000	0,000000
2,471997	535,968498	27,073	0,154949	94,170000	0,000000
2,475948	540,397990	27,274	0,156805	94,170000	0,000000
2,479944	545,544171	27,474	0,158961	94,170000	0,000000
2,483960	549,720782	27,674	0,160711	94,170000	0,000000
2,487983	553,651505	27,874	0,162358	94,170000	0,000000
2,491979	555,862172	28,075	0,163284	94,170000	0,000000
2,495948	560,148326	28,275	0,165080	94,170000	0,000000
2,499949	564,253850	28,476	0,166800	94,170000	0,000000
2,503959	568,414146	28,677	0,168543	94,160000	0,000000
2,507966	572,163074	28,878	0,170114	94,160000	0,000000
2,511915	576,007561	29,079	0,171725	94,160000	0,000000
2,515963	580,508139	29,279	0,173611	94,160000	0,000000
2,519993	584,344468	29,479	0,175218	94,160000	0,000000
2,523945	588,275190	29,679	0,176865	94,160000	0,000000
2,527947	594,132234	29,880	0,179319	94,160000	0,000000
2,531914	595,979313	30,081	0,180093	94,160000	0,000000
2,535928	600,092995	30,281	0,181817	94,160000	0,000000
2,539954	604,094803	30,483	0,183494	94,130000	0,000000
2,543923	610,047406	30,683	0,185988	94,130000	0,000000
2,548001	614,009593	30,883	0,187648	94,130000	0,000000
2,551983	617,917009	31,084	0,189285	94,130000	0,000000
2,555942	621,256899	31,285	0,190685	94,130000	0,000000
2,559937	623,545644	31,485	0,191644	94,130000	0,000000
2,563936	628,251324	31,686	0,193615	94,130000	0,000000
2,567943	632,056188	31,888	0,195209	94,130000	0,000000
2,571949	636,097619	32,089	0,196903	94,130000	0,000000
2,575928	641,615547	32,289	0,199215	94,130000	0,000000
2,579956	645,594048	32,489	0,200882	94,130000	0,000000
2,583994	648,049439	32,689	0,201911	94,130000	0,000000
2,588008	651,664352	32,889	0,203425	94,130000	0,000000
2,591980	656,748769	33,089	0,205556	94,130000	0,000000
2,595941	661,089695	33,290	0,207375	94,130000	0,000000
2,599931	664,272263	33,491	0,208708	94,130000	0,000000
2,603911	668,479173	33,691	0,210471	94,130000	0,000000
2,607937	672,860885	33,893	0,212307	94,130000	0,000000
2,611950	676,665750	34,093	0,213901	94,130000	0,000000
2,615939	680,186269	34,293	0,215376	94,130000	0,000000
2,619993	683,746411	34,495	0,216868	94,130000	0,000000
2,623992	687,733070	34,695	0,218538	94,130000	0,000000
2,627955	693,985167	34,896	0,221158	94,110000	0,000000
2,631986	697,900740	35,098	0,222798	94,110000	0,000000
2,635959	699,827062	35,299	0,223605	94,110000	0,000000
2,639969	703,521219	35,499	0,225153	94,110000	0,000000
2,643926	709,970260	35,700	0,227855	94,110000	0,000000
2,647943	711,848803	35,900	0,228643	94,110000	0,000000
2,651935	715,772533	36,100	0,230287	94,110000	0,000000
2,655937	719,703256	36,301	0,231934	94,110000	0,000000
2,659916	723,706229	36,502	0,233611	94,110000	0,000000
2,663956	728,766175	36,703	0,235731	94,110000	0,000000
2,667998	731,765783	36,903	0,236988	94,110000	0,000000
2,671918	735,965701	37,103	0,238748	94,110000	0,000000
2,675949	741,665424	37,303	0,241136	94,110000	0,000000
2,679974	744,980842	37,504	0,242525	94,110000	0,000000
2,683962	749,630584	37,704	0,244473	94,110000	0,000000
2,687929	753,592771	37,904	0,246133	94,110000	0,000000
2,691956	757,279935	38,105	0,247678	94,110000	0,000000
2,695946	760,871541	38,306	0,249183	94,110000	0,000000
2,700028	764,716028	38,507	0,250794	94,110000	0,000000
2,703949	769,129205	38,707	0,252643	94,110000	0,000000
2,707996	771,639366	38,907	0,253695	94,110000	0,000000
2,711970	776,541990	39,108	0,255749	94,110000	0,000000
2,715939	780,598570	39,309	0,257449	94,110000	0,000000
2,719919	784,120255	39,510	0,258924	94,110000	0,000000
2,724005	788,454188	39,710	0,260740	94,110000	0,000000
2,727964	791,880314	39,911	0,262176	94,110000	0,000000
2,731960	795,921744	40,111	0,263869	94,110000	0,000000
2,735958	799,868782	40,311	0,265523	94,110000	0,000000
2,739912	803,673646	40,511	0,267117	94,130000	0,000000
2,743936	809,641399	40,711	0,269618	94,130000	0,000000
2,747894	813,470736	40,912	0,271222	94,130000	0,000000
2,751968	815,663923	41,112	0,272141	94,130000	0,000000
2,755980	819,398866	41,314	0,273706	94,130000	0,000000
2,759931	825,729042	41,515	0,276358	94,130000	0,000000
2,763924	827,213697	41,715	0,276980	94,130000	0,000000
2,767928	831,570937	41,916	0,278806	94,130000	0,000000
2,771932	837,617933	42,117	0,281340	94,130000	0,000000
2,775924	841,573128	42,318	0,282997	94,130000	0,000000
2,779959	845,685645	42,519	0,284720	94,080000	0,000000
2,783939	847,415023	42,720	0,285445	94,080000	0,000000
2,787967	851,621933	42,920	0,287208	94,080000	0,000000
2,791928	857,250569	43,121	0,289566	94,080000	0,000000
2,795912	861,687053	43,322	0,291425	94,080000	0,000000
2,799982	865,057242	43,523	0,292837	94,080000	0,000000
2,803923	867,481168	43,723	0,293853	94,080000	0,000000
2,807947	871,965431	43,923	0,295731	94,080000	0,000000
2,811907	875,833225	44,124	0,297352	94,080000	0,000000
2,815948	880,396731	44,325	0,299264	94,080000	0,000000
2,819919	884,051266	44,526	0,300795	94,110000	0,000000
2,823910	887,437770	44,727	0,302214	94,110000	0,000000
2,827956	891,447736	44,928	0,303895	94,110000	0,000000
2,831976	895,355152	45,128	0,305532	94,110000	0,000000
2,835937	899,728707	45,329	0,307364	94,110000	0,000000
2,839951	903,794610	45,529	0,309068	94,110000	0,000000
2,843952	907,781269	45,729	0,310738	94,110000	0,000000
2,847948	912,824899	45,931	0,312852	94,110000	0,000000
2,851937	915,541328	46,131	0,313990	94,110000	0,000000
2,855910	921,706024	46,332	0,316573	94,110000	0,000000
2,859949	923,726740	46,533	0,317419	94,170000	0,000000
2,863898	927,871886	46,734	0,319156	94,170000	0,000000
2,867977	931,321319	46,934	0,320602	94,170000	0,000000
2,871952	935,481615	47,134	0,322345	94,170000	0,000000
2,875904	941,456360	47,334	0,324848	94,170000	0,000000
2,879925	945,396405	47,534	0,326499	94,170000	0,000000
2,883994	949,358592	47,736	0,328159	94,170000	0,000000
2,887932	951,585574	47,937	0,329092	94,170000	0,000000
2,891892	955,673618	48,138	0,330805	94,170000	0,000000
2,895901	959,649789	48,339	0,332471	94,170000	0,000000
2,899925	963,734338	48,539	0,334183	94,130000	0,000000
2,903889	967,790918	48,739	0,335882	94,130000	0,000000
2,907912	972,582833	48,940	0,337890	94,130000	0,000000
2,911916	976,529870	49,141	0,339544	94,130000	0,000000
2,915947	980,296278	49,341	0,341122	94,130000	0,000000
2,919975	984,471724	49,541	0,342872	94,130000	0,000000
2,923987	987,385097	49,742	0,344092	94,130000	0,000000
2,927924	992,003375	49,942	0,346027	94,130000	0,000000
2,931981	995,405029	50,142	0,347453	94,130000	0,000000
2,935925	999,289137	50,342	0,349080	94,130000	0,000000
2,935956	1001,562733	50,542	0,350033	94,130000	0,000000
2,935932	1001,736370	50,742	0,350105	94,080000	0,000000
2,935906	1001,262073	50,942	0,349907	94,080000	0,000000
2,935879	1001,041822	51,142	0,349814	94,080000	0,000000
2,935907	1001,048814	51,343	0,349817	94,080000	0,000000
2,931859	999,320602	51,544	0,349093	94,080000	0,000000
2,927941	994,867803	51,744	0,347228	94,080000	0,000000
2,923905	989,271797	51,944	0,344883	94,080000	0,000000
2,919933	985,055564	52,144	0,343116	94,080000	0,000000
2,915881	980,934890	52,345	0,341390	94,080000	0,000000
2,911927	979,056347	52,545	0,340603	94,080000	0,000000
2,907884	975,125625	52,745	0,338956	94,080000	0,000000
2,903923	970,831313	52,947	0,337156	94,080000	0,000000
2,899924	966,757253	53,149	0,335449	94,080000	0,000000
2,895897	960,892051	53,349	0,332992	94,080000	0,000000
2,891945	957,007943	53,549	0,331364	94,080000	0,000000
2,887905	954,742504	53,751	0,330415	94,080000	0,000000
2,883966	950,755845	53,953	0,328745	94,080000	0,000000
2,879835	945,434862	54,154	0,326515	94,080000	0,000000
2,875960	941,062472	54,354	0,324683	94,080000	0,000000
2,871912	936,917325	54,555	0,322946	94,080000	0,000000
2,867941	933,760395	54,756	0,321624	94,080000	0,000000
2,863919	929,457926	54,957	0,319821	94,080000	0,000000
2,859941	926,489782	55,157	0,318577	94,080000	0,000000
2,855916	922,164007	55,357	0,316765	94,080000	0,000000
2,851909	917,964089	55,557	0,315005	94,080000	0,000000
2,847978	914,230310	55,757	0,313440	94,080000	0,000000
2,843955	909,810141	55,958	0,311588	94,080000	0,000000
2,839914	906,209213	56,158	0,310080	94,080000	0,000000
2,835963	902,129326	56,358	0,308370	94,080000	0,000000
2,831899	898,134509	56,560	0,306696	94,160000	0,000000
2,827966	894,486967	56,761	0,305168	94,160000	0,000000
2,823964	890,611016	56,961	0,303544	94,160000	0,000000
2,819941	884,390383	57,164	0,300938	94,160000	0,000000
2,815945	882,179715	57,365	0,300011	94,160000	0,000000
2,811942	877,420430	57,566	0,298017	94,160000	0,000000
2,807938	873,134276	57,767	0,296221	94,160000	0,000000
2,803935	868,294582	57,967	0,294193	94,160000	0,000000
2,799940	864,425623	58,167	0,292572	94,160000	0,000000
2,795930	860,771088	58,367	0,291041	94,160000	0,000000
2,791949	858,300548	58,568	0,290006	94,160000	0,000000
2,787971	852,466811	58,769	0,287562	94,160000	0,000000
2,783946	850,280616	58,969	0,286646	94,160000	0,000000
2,779926	846,285800	59,169	0,284972	94,160000	0,000000
2,775956	842,109189	59,369	0,283222	94,160000	0,000000
2,771931	836,520175	59,569	0,280880	94,160000	0,000000
2,767966	832,819026	59,769	0,279329	94,160000	0,000000
2,763923	830,079290	59,969	0,278181	94,160000	0,000000
2,759916	825,958616	60,170	0,276455	94,160000	0,000000
2,755971	821,948650	60,372	0,274774	94,160000	0,000000
2,751928	817,196357	60,573	0,272783	94,190000	0,000000
2,747950	811,867215	60,773	0,270550	94,190000	0,000000
2,743944	807,794321	60,975	0,268844	94,190000	0,000000
2,739974	805,449638	61,175	0,267861	94,190000	0,000000
2,735927	799,829160	61,377	0,265506	94,190000	0,000000
2,731921	797,982082	61,577	0,264732	94,190000	0,000000
2,727960	794,018729	61,777	0,263072	94,190000	0,000000
2,723920	787,648932	61,978	0,260403	94,190000	0,000000
2,719944	785,871774	62,180	0,259658	94,190000	0,000000
2,715920	779,690763	62,381	0,257068	94,190000	0,000000
2,711927	775,973300	62,581	0,255511	94,120000	0,000000
2,707948	771,765224	62,781	0,253748	94,120000	0,000000
2,703956	768,474278	62,982	0,252369	94,120000	0,000000
2,699939	763,594962	63,182	0,250324	94,120000	0,000000
2,695923	761,850434	63,382	0,249593	94,120000	0,000000
2,691945	757,263621	63,582	0,247671	94,120000	0,000000
2,687938	751,887865	63,782	0,245419	94,120000	0,000000
2,683919	749,693513	63,984	0,244500	94,120000	0,000000
2,679968	745,589154	64,185	0,242780	94,120000	0,000000
2,675951	741,776132	64,386	0,241182	94,120000	0,000000
2,671941	736,218582	64,586	0,238854	94,140000	0,000000
2,668007	731,608461	64,788	0,236922	94,140000	0,000000
2,663911	727,574023	64,989	0,235231	94,140000	0,000000
2,659982	724,361156	65,190	0,233885	94,140000	0,000000
2,655931	721,503720	65,391	0,232688	94,140000	0,000000
2,651955	716,711805	65,593	0,230680	94,140000	0,000000
2,647970	713,530402	65,794	0,229347	94,140000	0,000000
2,643899	709,252405	65,994	0,227555	94,140000	0,000000
2,639963	705,202817	66,195	0,225858	94,140000	0,000000
2,635959	701,263938	66,396	0,224208	94,140000	0,000000
2,631941	697,419451	66,596	0,222597	94,160000	0,000000
2,627949	693,614586	66,796	0,221002	94,160000	0,000000
2,623980	689,414668	66,996	0,219243	94,160000	0,000000
2,619945	683,241815	67,197	0,216656	94,160000	0,000000
2,615975	679,381013	67,399	0,215039	94,160000	0,000000
2,611997	677,249590	67,599	0,214146	94,160000	0,000000
2,608010	673,191844	67,799	0,212445	94,160000	0,000000
2,603956	668,945312	67,999	0,210666	94,160000	0,000000
2,599980	664,824638	68,199	0,208939	94,160000	0,000000
2,595974	661,445126	68,399	0,207523	94,160000	0,000000
2,591912	655,516995	68,601	0,205040	94,160000	0,000000
2,587991	650,986118	68,802	0,203141	94,130000	0,000000
2,583960	649,091261	69,002	0,202347	94,130000	0,000000
2,579933	643,407854	69,202	0,199966	94,130000	0,000000
2,575929	639,105385	69,402	0,198163	94,130000	0,000000
2,571975	635,008018	69,602	0,196446	94,130000	0,000000
2,567986	632,924374	69,802	0,195573	94,130000	0,000000
2,563970	628,977336	70,003	0,193919	94,130000	0,000000
2,559932	624,643403	70,203	0,192104	94,130000	0,000000
2,555966	619,748937	70,403	0,190053	94,130000	0,000000
2,551972	614,996644	70,604	0,188062	94,130000	0,000000
2,547914	611,396881	70,805	0,186553	94,160000	0,000000
2,543976	608,342501	71,006	0,185273	94,160000	0,000000
2,539912	604,165890	71,208	0,183523	94,160000	0,000000
2,535900	600,763071	71,409	0,182098	94,160000	0,000000
2,531981	596,729798	71,609	0,180408	94,160000	0,000000
2,527980	592,561344	71,810	0,178661	94,160000	0,000000
2,523962	588,677236	72,010	0,177034	94,160000	0,000000
2,519986	584,762828	72,211	0,175394	94,160000	0,000000
2,515925	578,730982	72,411	0,172866	94,160000	0,000000
2,511986	576,686959	72,611	0,172010	94,160000	0,000000
2,507913	572,811008	72,813	0,170386	94,210000	0,000000
2,503974	568,619248	73,013	0,168629	94,210000	0,000000
2,499979	564,680368	73,213	0,166979	94,210000	0,000000
2,495955	558,617057	73,414	0,164438	94,210000	0,000000
2,491960	554,575626	73,615	0,162745	94,210000	0,000000
2,487945	550,944399	73,816	0,161224	94,210000	0,000000
2,483931	548,560095	74,019	0,160225	94,210000	0,000000
2,479959	544,604900	74,219	0,158567	94,210000	0,000000
2,475930	538,763005	74,420	0,156120	94,210000	0,000000
2,471929	535,108471	74,621	0,154588	94,210000	0,000000
2,467991	532,290657	74,822	0,153408	94,110000	0,000000
2,463946	528,493950	75,022	0,151817	94,110000	0,000000
2,459980	523,907136	75,223	0,149895	94,110000	0,000000
2,455955	520,638332	75,423	0,148525	94,110000	0,000000
2,451986	516,320713	75,623	0,146716	94,110000	0,000000
2,447963	511,560263	75,824	0,144722	94,110000	0,000000
2,443946	507,912720	76,024	0,143193	94,110000	0,000000
2,439939	503,927226	76,225	0,141523	94,110000	0,000000
2,435924	500,177133	76,426	0,139952	94,110000	0,000000
2,431981	496,514441	76,627	0,138417	94,130000	0,000000
2,427975	492,542931	76,827	0,136753	94,130000	0,000000
2,424002	486,433006	77,027	0,134193	94,130000	0,000000
2,419957	484,602243	77,227	0,133426	94,130000	0,000000
2,415921	480,630734	77,427	0,131762	94,130000	0,000000
2,411978	474,252778	77,627	0,129090	94,130000	0,000000
2,407944	472,437164	77,827	0,128329	94,130000	0,000000
2,403988	468,213939	78,028	0,126560	94,130000	0,000000
2,399964	462,016613	78,228	0,123963	94,130000	0,000000
2,395990	458,630109	78,428	0,122544	94,130000	0,000000
2,391990	456,270277	78,629	0,121555	94,130000	0,000000
2,387972	452,315082	78,829	0,119898	94,130000	0,000000
2,383975	447,579104	79,030	0,117914	94,130000	0,000000
2,379964	444,326615	79,231	0,116551	94,130000	0,000000
2,375910	440,095232	79,431	0,114778	94,130000	0,000000
2,372021	434,671698	79,632	0,112505	94,130000	0,000000
2,367893	430,180443	79,832	0,110624	94,130000	0,000000
2,363967	428,293743	80,032	0,109833	94,130000	0,000000
2,360005	422,238589	80,234	0,107296	94,130000	0,000000
2,355901	418,646983	80,436	0,105791	94,180000	0,000000
2,351906	414,509994	80,636	0,104058	94,180000	0,000000
2,347886	412,331957	80,837	0,103145	94,180000	0,000000
2,343914	405,929529	81,038	0,100462	94,180000	0,000000
2,339982	403,837727	81,239	0,099586	94,180000	0,000000
2,335936	399,171670	81,439	0,097631	94,180000	0,000000
2,331991	394,222433	81,640	0,095557	94,180000	0,000000
2,327984	391,688964	81,841	0,094496	94,180000	0,000000
2,323963	387,922556	82,042	0,092917	94,180000	0,000000
2,319968	382,152912	82,244	0,090500	94,180000	0,000000
2,316006	378,229182	82,444	0,088856	94,180000	0,000000
2,311960	376,058137	82,644	0,087946	94,180000	0,000000
2,307954	372,213650	82,846	0,086335	94,080000	0,000000
2,303953	366,057111	83,046	0,083756	94,080000	0,000000
2,299959	362,630985	83,247	0,082320	94,080000	0,000000
2,295986	358,241115	83,448	0,080481	94,080000	0,000000
2,292028	353,963119	83,648	0,078688	94,080000	0,000000
2,287976	351,373713	83,849	0,077604	94,080000	0,000000
2,283952	348,104909	84,049	0,076234	94,080000	0,000000
2,279902	344,008707	84,250	0,074518	94,080000	0,000000
2,275922	340,045355	84,450	0,072857	94,160000	0,000000
2,271951	334,874702	84,651	0,070690	94,160000	0,000000
2,267960	332,000951	84,852	0,069486	94,160000	0,000000
2,263918	326,578582	85,052	0,067214	94,160000	0,000000
2,259968	322,125783	85,253	0,065349	94,160000	0,000000
2,255955	319,038773	85,454	0,064055	94,160000	0,000000
2,252005	315,589340	85,655	0,062610	94,160000	0,000000
2,248014	310,071413	85,855	0,060298	94,160000	0,000000
2,243972	307,025190	86,057	0,059021	94,160000	0,000000
2,239994	303,764544	86,258	0,057655	94,160000	0,000000
2,235940	297,772319	86,460	0,055145	94,160000	0,000000
2,231966	296,115192	86,661	0,054450	94,160000	0,000000
2,227922	291,954896	86,861	0,052707	94,160000	0,000000
2,223935	285,765728	87,061	0,050114	94,160000	0,000000
2,219931	283,784634	87,261	0,049284	94,160000	0,000000
2,215956	279,915675	87,462	0,047663	94,160000	0,000000
2,211964	275,685458	87,663	0,045890	94,160000	0,000000
2,207955	272,385190	87,864	0,044507	94,160000	0,000000
2,203997	268,051257	88,064	0,042691	94,160000	0,000000
2,199936	263,875811	88,264	0,040942	94,160000	0,000000
2,195972	259,880995	88,465	0,039268	94,180000	0,000000
2,191963	254,030942	88,666	0,036817	94,180000	0,000000
2,187967	249,934740	88,867	0,035101	94,180000	0,000000
2,183931	247,905868	89,067	0,034250	94,180000	0,000000
2,179983	242,940315	89,268	0,032170	94,180000	0,000000
2,176000	237,959614	89,468	0,030083	94,180000	0,000000
2,171996	234,059190	89,669	0,028449	94,180000	0,000000
2,167959	230,427963	89,870	0,026927	94,180000	0,000000
2,163910	225,746756	90,070	0,024966	94,180000	0,000000
2,160023	223,907835	90,270	0,024195	94,180000	0,000000
2,155966	219,502815	90,472	0,022350	94,180000	0,000000
2,151927	213,913801	90,672	0,020008	94,160000	0,000000
2,147967	210,100779	90,872	0,018410	94,160000	0,000000
2,144004	207,086021	91,072	0,017147	94,160000	0,000000
2,140009	203,051583	91,272	0,015457	94,160000	0,000000
2,135975	200,004195	91,473	0,014180	94,160000	0,000000
2,131977	195,765821	91,674	0,012404	94,160000	0,000000
2,127943	189,836525	91,874	0,009919	94,160000	0,000000
2,124023	187,531464	92,074	0,008954	94,160000	0,000000
2,119981	183,521498	92,275	0,007273	94,160000	0,000000
2,116007	177,972106	92,477	0,004948	94,110000	0,000000
2,111980	176,045784	92,677	0,004141	94,110000	0,000000
2,107949	171,988039	92,877	0,002441	94,110000	0,000000
2,103920	167,978073	93,078	0,000761	94,110000	0,000000
2,099994	162,175800	93,280	-0,001670	94,110000	0,000000
2,095943	158,205456	93,480	-0,003334	94,110000	0,000000
2,091938	156,342063	93,681	-0,004115	94,110000	0,000000
2,087949	152,292475	93,881	-0,005812	94,110000	0,000000
2,084004	146,261793	94,081	-0,008338	94,110000	0,000000
2,079965	142,093340	94,282	-0,010085	94,110000	0,000000
2,075938	138,067059	94,483	-0,011772	94,110000	0,000000
2,071995	135,958942	94,684	-0,012655	94,110000	0,000000
2,067955	132,004913	94,885	-0,014312	94,110000	0,000000
2,063917	126,944968	95,086	-0,016432	94,110000	0,000000
2,059946	122,002722	95,287	-0,018503	94,110000	0,000000
2,055970	118,670989	95,487	-0,019899	94,110000	0,000000
2,051921	116,342622	95,689	-0,020875	94,110000	0,000000
2,047974	111,945760	95,889	-0,022717	94,110000	0,000000
2,044016	106,404525	96,089	-0,025039	94,110000	0,000000
2,039991	104,185701	96,290	-0,025968	94,110000	0,000000
2,036026	98,130547	96,490	-0,028505	94,110000	0,000000
2,031996	95,691472	96,690	-0,029527	94,110000	0,000000
2,027963	92,005472	96,890	-0,031072	94,110000	0,000000
2,023955	88,200608	97,092	-0,032666	94,110000	0,000000
2,019986	82,405327	97,293	-0,035094	94,110000	0,000000
2,015929	78,372054	97,494	-0,036784	94,110000	0,000000
2,012000	74,401710	97,694	-0,038448	94,110000	0,000000
2,007944	69,996690	97,894	-0,040293	94,110000	0,000000
2,004026	66,152204	98,094	-0,041904	94,110000	0,000000
1,999964	64,242197	98,295	-0,042705	94,110000	0,000000
1,996000	58,463231	98,497	-0,045126	94,110000	0,000000
1,991974	56,174485	98,698	-0,046085	94,110000	0,000000
1,988021	50,529535	98,899	-0,048450	94,110000	0,000000
1,984014	48,603213	99,099	-0,049257	94,110000	0,000000
1,979900	42,911648	99,299	-0,051642	94,110000	0,000000
1,975995	38,665116	99,499	-0,053421	94,110000	0,000000
1,971956	34,480348	99,700	-0,055175	94,110000	0,000000
1,967973	30,739577	99,901	-0,056742	94,110000	0,000000
1,963938	26,941705	100,101	-0,058333	94,110000	0,000000
1,959980	24,724045	100,302	-0,059263	94,110000	0,000000
1,955995	20,192003	100,502	-0,061162	94,160000	0,000000
1,952027	15,495646	100,704	-0,063129	94,160000	0,000000
1,947964	10,798124	100,904	-0,065098	94,160000	0,000000
1,943972	7,917381	101,105	-0,066305	94,160000	0,000000
1,939914	2,754885	101,305	-0,068468	94,160000	0,000000
1,936008	-0,198109	101,505	-0,069705	94,160000	0,000000