File: Nanoindentation Datenauswertung/data/S_calib/S_calib_1808-1
Quasi static measurement routine
Tip parameters (shape,radius, material...)
18.08.2022

Piezo position[nm]	MEMS displ.[nm]	Time[ms]	Cap [pf]	Temp [°C]	Rh [%]
eoh
2,659894	0,008177	0,179	-0,134647	22,440000	56,235000
2,664964	4,677220	0,279	-0,132695	22,440000	56,235000
2,669904	9,250477	0,381	-0,130784	22,440000	56,235000
2,674896	14,030493	0,481	-0,128786	22,440000	56,235000
2,679921	19,165623	0,581	-0,126639	22,430000	56,250000
2,684888	23,019307	0,702	-0,125028	22,430000	56,250000
2,690019	28,518896	0,802	-0,122729	22,430000	56,250000
2,694911	33,108506	0,902	-0,120811	22,430000	56,250000
2,699970	38,457405	1,002	-0,118575	22,430000	56,250000
2,704913	41,440827	1,105	-0,117328	22,430000	56,250000
2,709893	45,650792	1,207	-0,115568	22,430000	56,250000
2,714920	50,635233	1,307	-0,113485	22,430000	56,250000
2,719892	55,652381	1,407	-0,111388	22,430000	56,250000
2,724922	59,671940	1,525	-0,109708	22,430000	56,250000
2,729956	64,697266	1,627	-0,107607	22,430000	56,250000
2,734955	71,723609	1,728	-0,104670	22,430000	56,250000
2,739929	76,233786	1,841	-0,102785	22,430000	56,250000
2,744927	79,225385	1,941	-0,101534	22,430000	56,250000
2,749938	84,035773	2,041	-0,099523	22,430000	56,250000
2,754939	88,308818	2,141	-0,097737	22,430000	56,250000
2,759914	94,426351	2,241	-0,095180	22,430000	56,250000
2,764922	98,406194	2,343	-0,093517	22,430000	56,250000
2,769921	103,075237	2,443	-0,091565	22,430000	56,250000
2,774915	107,775820	2,543	-0,089600	22,430000	56,250000
2,779911	114,525316	2,644	-0,086779	22,430000	56,250000
2,784898	117,104562	2,745	-0,085701	22,430000	56,250000
2,789910	122,343657	2,845	-0,083511	22,430000	56,250000
2,794919	127,036063	2,945	-0,081549	22,430000	56,250000
2,799877	132,953845	3,046	-0,079076	22,430000	56,250000
2,804893	135,945443	3,147	-0,077825	22,430000	56,250000
2,809844	140,424080	3,247	-0,075953	22,430000	56,250000
2,814876	145,330256	3,348	-0,073902	22,430000	56,250000
2,819903	152,547006	3,448	-0,070886	22,430000	56,250000
2,824849	154,524662	3,550	-0,070059	22,430000	56,250000
2,829929	159,233422	3,650	-0,068091	22,430000	56,250000
2,834939	164,305472	3,750	-0,065971	22,430000	56,250000
2,839892	169,092498	3,850	-0,063970	22,430000	56,250000
2,844877	176,103656	3,950	-0,061039	22,430000	56,250000
2,849905	180,764522	4,050	-0,059091	22,430000	56,250000
2,854868	185,504822	4,151	-0,057109	22,430000	56,250000
2,859865	190,038362	4,268	-0,055214	22,430000	56,250000
2,864938	192,444724	4,370	-0,054208	22,430000	56,250000
2,869924	197,041343	4,471	-0,052287	22,430000	56,250000
2,874864	202,224366	4,572	-0,050121	22,420000	56,250000
2,879902	206,243926	4,672	-0,048440	22,420000	56,250000
2,884900	211,197995	4,772	-0,046370	22,420000	56,250000
2,889899	216,024736	4,874	-0,044352	22,420000	56,250000
2,894938	221,018522	4,974	-0,042265	22,420000	56,250000
2,899944	225,536876	5,074	-0,040376	22,420000	56,250000
2,904891	230,497953	5,174	-0,038302	22,420000	56,250000
2,909877	235,039670	5,275	-0,036404	22,420000	56,250000
2,914913	242,097553	5,375	-0,033454	22,420000	56,250000
2,919869	246,822667	5,475	-0,031479	22,420000	56,250000
2,924906	251,498720	5,577	-0,029524	22,420000	56,250000
2,929903	255,407306	5,678	-0,027890	22,420000	56,250000
2,934904	261,326256	5,778	-0,025416	22,420000	56,250000
2,939915	263,708087	5,891	-0,024420	22,420000	56,250000
2,944869	271,035810	5,991	-0,021357	22,420000	56,250000
2,949884	275,308855	6,091	-0,019571	22,420000	56,250000
2,954900	280,309650	6,192	-0,017481	22,420000	56,250000
2,959886	282,232403	6,294	-0,016677	22,420000	56,250000
2,964851	287,075499	6,394	-0,014653	22,420000	56,250000
2,969906	291,585676	6,494	-0,012768	22,420000	56,250000
2,974932	298,280269	6,594	-0,009969	22,430000	56,250000
2,979914	301,334947	6,697	-0,008692	22,430000	56,250000
2,984890	306,501617	6,797	-0,006533	22,430000	56,250000
2,989883	311,653101	6,897	-0,004379	22,430000	56,250000
2,994889	317,651484	6,997	-0,001872	22,430000	56,250000
2,999908	321,457274	7,101	-0,000281	22,430000	56,250000
3,004894	325,524727	7,201	0,001419	22,430000	56,250000
3,009868	330,263859	7,301	0,003400	22,430000	56,250000
3,014896	333,865225	7,401	0,004905	22,430000	56,250000
3,019839	338,960638	7,501	0,007035	22,430000	56,250000
3,024916	344,103945	7,602	0,009185	22,430000	56,250000
3,029884	348,963395	7,702	0,011216	22,430000	56,250000
3,034901	355,680183	7,803	0,014024	22,430000	56,250000
3,039832	359,906502	7,917	0,015791	22,430000	56,250000
3,044865	363,910876	8,018	0,017464	22,430000	56,250000
3,049894	368,855600	8,118	0,019531	22,430000	56,250000
3,054862	371,775942	8,222	0,020752	22,430000	56,250000
3,059847	377,323424	8,322	0,023071	22,430000	56,250000
3,064899	383,724815	8,423	0,025747	22,430000	56,250000
3,069869	388,211629	8,525	0,027622	22,430000	56,250000
3,074862	393,022017	8,626	0,029633	22,430000	56,250000
3,079918	397,699237	8,727	0,031588	22,430000	56,250000
3,084852	402,636952	8,827	0,033652	22,430000	56,250000
3,089881	404,709227	8,927	0,034518	22,430000	56,250000
3,094897	411,047539	9,027	0,037167	22,430000	56,250000
3,099855	414,221367	9,128	0,038494	22,430000	56,250000
3,104851	421,318967	9,229	0,041461	22,430000	56,250000
3,109870	423,756869	9,330	0,042480	22,430000	56,250000
3,114865	429,097591	9,433	0,044712	22,430000	56,250000
3,119880	434,890382	9,535	0,047134	22,430000	56,250000
3,124966	438,094582	9,635	0,048473	22,430000	56,250000
3,129869	442,478600	9,736	0,050306	22,430000	56,250000
3,134903	447,431500	9,838	0,052376	22,430000	56,250000
3,139876	451,886775	9,938	0,054238	22,430000	56,250000
3,144923	457,798716	10,038	0,056709	22,430000	56,250000
3,149902	461,445640	10,138	0,058234	22,430000	56,250000
3,154897	467,190537	10,238	0,060635	22,430000	56,250000
3,159924	471,138840	10,338	0,062286	22,430000	56,250000
3,164906	475,396699	10,439	0,064065	22,430000	56,250000
3,169813	480,120645	10,539	0,066040	22,430000	56,250000
3,174863	484,813051	10,640	0,068001	22,430000	56,235000
3,179829	489,956358	10,740	0,070151	22,430000	56,235000
3,184872	494,822817	10,841	0,072186	22,430000	56,235000
3,189878	499,064322	10,942	0,073958	22,430000	56,235000
3,194872	503,914427	11,042	0,075986	22,430000	56,235000
3,199860	508,765700	11,143	0,078014	22,430000	56,235000
3,204825	513,299239	11,243	0,079909	22,430000	56,235000
3,209871	517,754514	11,344	0,081771	22,430000	56,235000
3,214897	525,002804	11,452	0,084801	22,430000	56,235000
3,219895	527,883429	11,553	0,086005	22,430000	56,235000
3,224876	532,448509	11,654	0,087913	22,430000	56,235000
3,229851	536,911960	11,755	0,089779	22,430000	56,235000
3,234841	543,273634	11,856	0,092438	22,430000	56,235000
3,239803	546,272241	11,959	0,093691	22,430000	56,235000
3,244833	550,585003	12,060	0,095494	22,430000	56,235000
3,249830	555,325303	12,160	0,097476	22,430000	56,235000
3,254866	560,128682	12,260	0,099483	22,430000	56,235000
3,259814	564,923884	12,360	0,101488	22,430000	56,235000
3,264848	569,316079	12,462	0,103324	22,430000	56,235000
3,269838	574,308697	12,562	0,105411	22,430000	56,235000
3,274848	578,550202	12,663	0,107184	22,430000	56,235000
3,279828	583,511280	12,763	0,109257	22,430000	56,235000
3,284859	588,331013	12,864	0,111272	22,430000	56,235000
3,289835	592,579527	12,966	0,113048	22,430000	56,235000
3,294864	599,930613	13,067	0,116121	22,430000	56,235000
3,299824	601,877897	13,167	0,116935	22,430000	56,235000
3,304849	609,063107	13,268	0,119938	22,430000	56,235000
3,309851	611,571097	13,368	0,120986	22,430000	56,235000
3,314804	616,033381	13,490	0,122852	22,430000	56,235000
3,319883	621,065715	13,591	0,124955	22,430000	56,235000
3,324818	625,656493	13,692	0,126874	22,430000	56,235000
3,329846	630,206386	13,792	0,128776	22,430000	56,235000
3,334824	634,945518	13,893	0,130757	22,430000	56,235000
3,339837	640,619159	13,994	0,133128	22,430000	56,235000
3,344866	645,097796	14,095	0,135000	22,430000	56,235000
3,349822	649,972432	14,196	0,137038	22,430000	56,235000
3,354842	653,738506	14,297	0,138612	22,430000	56,235000
3,359789	658,470628	14,397	0,140590	22,430000	56,235000
3,364890	663,076592	14,497	0,142516	22,430000	56,235000
3,369817	670,261803	14,598	0,145519	22,420000	56,235000
3,374802	672,777970	14,699	0,146571	22,420000	56,235000
3,379804	677,130448	14,799	0,148390	22,420000	56,235000
3,384813	682,068163	14,899	0,150454	22,420000	56,235000
3,389797	688,975357	14,999	0,153341	22,420000	56,235000
3,394810	691,159773	15,101	0,154254	22,420000	56,235000
3,399769	695,669950	15,202	0,156140	22,420000	56,235000
3,404794	700,607665	15,302	0,158204	22,420000	56,235000
3,409802	707,872309	15,402	0,161240	22,420000	56,235000
3,414795	709,747168	15,503	0,162024	22,420000	56,235000
3,419770	714,565733	15,604	0,164038	22,420000	56,235000
3,424796	719,511625	15,706	0,166105	22,420000	56,235000
3,429821	726,119776	15,807	0,168868	22,420000	56,235000
3,434761	728,738739	15,907	0,169962	22,420000	56,235000
3,439822	733,288633	16,008	0,171864	22,420000	56,235000
3,444758	738,155091	16,108	0,173898	22,420000	56,235000
3,449776	745,015560	16,209	0,176766	22,420000	56,235000
3,454797	747,326134	16,310	0,177732	22,420000	56,235000
3,459780	751,923922	16,410	0,179654	22,420000	56,235000
3,464740	756,948079	16,511	0,181754	22,420000	56,235000
3,469718	761,909156	16,612	0,183828	22,420000	56,235000
3,474811	766,309528	16,717	0,185667	22,420000	56,235000
3,479793	770,930678	16,817	0,187599	22,420000	56,235000
3,484777	775,346236	16,917	0,189444	22,420000	56,235000
3,489804	779,975563	17,018	0,191379	22,420000	56,235000
3,494821	785,014905	17,122	0,193486	22,420000	56,235000
3,499813	787,239038	17,223	0,194416	22,420000	56,235000
3,504776	796,655390	17,324	0,198352	22,420000	56,235000
3,509777	801,434239	17,425	0,200349	22,420000	56,235000
3,514741	805,960769	17,526	0,202241	22,420000	56,235000
3,519817	810,653175	17,627	0,204203	22,420000	56,235000
3,524856	815,227600	17,728	0,206115	22,420000	56,235000
3,529754	820,180501	17,829	0,208185	22,420000	56,235000
3,534808	822,071714	17,946	0,208976	22,420000	56,235000
3,539764	826,898456	18,046	0,210993	22,420000	56,235000
3,544818	832,089657	18,146	0,213163	22,420000	56,235000
3,549827	836,473675	18,247	0,214996	22,420000	56,235000
3,554802	841,245514	18,347	0,216990	22,420000	56,235000
3,559782	846,024363	18,447	0,218988	22,420000	56,235000
3,564810	850,693406	18,547	0,220939	22,430000	56,250000
3,569707	856,097208	18,648	0,223198	22,430000	56,250000
3,574818	861,581611	18,748	0,225491	22,430000	56,250000
3,579795	866,337096	18,849	0,227479	22,430000	56,250000
3,584773	871,385784	18,949	0,229589	22,430000	56,250000
3,589783	875,325910	19,050	0,231236	22,430000	56,250000
3,594734	880,066210	19,151	0,233217	22,430000	56,250000
3,599779	884,624280	19,251	0,235123	22,430000	56,250000
3,604801	889,229076	19,351	0,237047	22,430000	56,250000
3,609731	895,219283	19,451	0,239551	22,430000	56,250000
3,614766	897,664193	19,552	0,240573	22,430000	56,250000
3,619715	902,427856	19,653	0,242564	22,430000	56,250000
3,624755	906,756971	19,753	0,244374	22,430000	56,250000
3,629779	911,330228	19,853	0,246286	22,430000	56,250000
3,634753	916,781923	19,953	0,248564	22,430000	56,250000
3,639796	921,371533	20,053	0,250483	22,430000	56,250000
3,644767	925,906241	20,153	0,252378	22,430000	56,250000
3,649838	930,416417	20,254	0,254264	22,430000	56,250000
3,654750	935,219797	20,354	0,256271	22,430000	56,250000
3,659789	939,572275	20,454	0,258091	22,430000	56,250000
3,659724	941,604833	20,554	0,258940	22,430000	56,250000
3,659757	941,359525	20,655	0,258838	22,430000	56,250000
3,659730	941,210003	20,755	0,258775	22,430000	56,250000
3,659742	941,233366	20,855	0,258785	22,430000	56,250000
3,659737	940,838535	20,956	0,258620	22,430000	56,250000
3,659820	941,075667	21,057	0,258719	22,430000	56,250000
3,659769	940,988057	21,157	0,258683	22,430000	56,250000
3,659811	941,019597	21,258	0,258696	22,430000	56,250000
3,659781	940,814005	21,359	0,258610	22,430000	56,250000
3,659746	941,153932	21,460	0,258752	22,430000	56,250000
3,659813	940,759102	21,560	0,258587	22,430000	56,250000
3,659753	940,363104	21,661	0,258421	22,430000	56,250000
3,659785	940,474077	21,761	0,258468	22,430000	56,250000
3,659774	940,608412	21,871	0,258524	22,430000	56,250000
3,659766	940,117795	21,973	0,258319	22,430000	56,250000
3,659802	940,117795	22,073	0,258319	22,430000	56,250000
3,659747	939,816416	22,173	0,258193	22,430000	56,250000
3,659737	940,069901	22,281	0,258299	22,430000	56,250000
3,659773	940,141158	22,382	0,258329	22,430000	56,250000
3,659822	939,824593	22,482	0,258196	22,430000	56,250000
3,659806	939,943743	22,582	0,258246	22,430000	56,235000
3,659769	939,880663	22,684	0,258220	22,430000	56,235000
3,659814	939,666894	22,784	0,258130	22,430000	56,235000
3,659759	939,809407	22,884	0,258190	22,430000	56,235000
3,659788	939,706611	22,984	0,258147	22,430000	56,235000
3,659796	939,501019	23,094	0,258061	22,430000	56,235000
3,659833	939,390046	23,194	0,258015	22,430000	56,235000
3,659789	939,453125	23,295	0,258041	22,430000	56,235000
3,659775	939,524381	23,397	0,258071	22,430000	56,235000
3,659753	939,429762	23,497	0,258031	22,430000	56,235000
3,659739	939,231179	23,598	0,257948	22,430000	56,235000
3,659723	939,057127	23,698	0,257875	22,430000	56,235000
3,659818	938,867888	23,799	0,257796	22,430000	56,235000
3,659733	939,088666	23,899	0,257889	22,430000	56,235000
3,659774	939,057127	24,002	0,257875	22,430000	56,235000
3,659783	938,669305	24,103	0,257713	22,430000	56,235000
3,659774	939,065304	24,203	0,257879	22,430000	56,235000
3,659722	938,488244	24,303	0,257638	22,430000	56,235000
3,659758	938,654119	24,404	0,257707	22,430000	56,235000
3,659751	938,606226	24,504	0,257687	22,430000	56,235000
3,659797	938,488244	24,604	0,257638	22,430000	56,260000
3,659780	938,740561	24,704	0,257743	22,430000	56,260000
3,659782	938,526792	24,805	0,257654	22,430000	56,260000
3,659749	938,170511	24,906	0,257505	22,430000	56,260000
3,659730	938,360917	25,006	0,257584	22,430000	56,260000
3,659721	938,400634	25,107	0,257601	22,430000	56,260000
3,659840	938,400634	25,208	0,257601	22,430000	56,260000
3,659748	938,416988	25,308	0,257608	22,430000	56,260000
3,659784	938,107431	25,408	0,257479	22,430000	56,260000
3,659769	938,163502	25,508	0,257502	22,430000	56,260000
3,659745	938,337554	25,608	0,257575	22,430000	56,260000
3,659793	938,203218	25,709	0,257519	22,430000	56,260000
3,659823	937,870299	25,809	0,257379	22,430000	56,260000
3,659735	938,052529	25,909	0,257456	22,430000	56,260000
3,659791	938,084068	26,010	0,257469	22,430000	56,260000
3,659816	938,075892	26,111	0,257465	22,430000	56,260000
3,659770	937,751149	26,211	0,257330	22,430000	56,260000
3,659815	937,775680	26,312	0,257340	22,430000	56,260000
3,659757	937,767503	26,413	0,257336	22,430000	56,260000
3,659757	937,893662	26,513	0,257389	22,430000	56,260000
3,659818	937,522195	26,614	0,257234	22,430000	56,235000
3,659777	937,807220	26,715	0,257353	22,430000	56,235000
3,659709	937,886653	26,815	0,257386	22,430000	56,235000
3,659757	937,387859	26,916	0,257178	22,430000	56,235000
3,659723	937,649522	27,017	0,257287	22,430000	56,235000
3,659781	937,490655	27,117	0,257221	22,430000	56,235000
3,659736	937,396036	27,217	0,257181	22,430000	56,235000
3,659748	937,293240	27,317	0,257138	22,430000	56,235000
3,659773	937,316602	27,420	0,257148	22,430000	56,235000
3,659751	937,134373	27,522	0,257072	22,430000	56,235000
3,659692	937,102833	27,622	0,257059	22,430000	56,235000
3,659745	937,023400	27,722	0,257025	22,430000	56,235000
3,659791	937,205629	27,823	0,257102	22,430000	56,235000
3,659780	936,794445	27,924	0,256930	22,430000	56,235000
3,659879	937,054940	28,024	0,257039	22,430000	56,235000
3,659786	936,746552	28,125	0,256910	22,430000	56,235000
3,659786	936,691649	28,225	0,256887	22,430000	56,235000
3,659781	936,936958	28,326	0,256989	22,430000	56,235000
3,659790	936,595862	28,446	0,256847	22,430000	56,235000
3,659822	936,817808	28,546	0,256939	22,430000	56,235000
3,659780	936,532783	28,648	0,256820	22,430000	56,235000
3,659705	936,786268	28,748	0,256926	22,430000	56,235000
3,659745	936,461526	28,849	0,256791	22,430000	56,235000
3,659782	936,477880	28,949	0,256797	22,430000	56,235000
3,659742	936,509420	29,051	0,256811	22,430000	56,235000
3,659728	936,809631	29,151	0,256936	22,430000	56,235000
3,659743	936,343544	29,251	0,256741	22,430000	56,235000
3,659816	936,486057	29,353	0,256801	22,430000	56,235000
3,659759	935,939369	29,456	0,256572	22,430000	56,235000
3,659790	936,675295	29,556	0,256880	22,430000	56,235000
3,659757	936,280465	29,656	0,256715	22,430000	56,235000
3,659698	936,272288	29,756	0,256711	22,430000	56,235000
3,659776	936,208041	29,856	0,256685	22,430000	56,235000
3,659755	936,192855	29,957	0,256678	22,430000	56,235000
3,659862	936,335367	30,060	0,256738	22,430000	56,235000
3,659740	936,201032	30,160	0,256682	22,430000	56,235000
3,659834	935,821387	30,260	0,256523	22,430000	56,235000
3,659731	935,916006	30,360	0,256563	22,430000	56,235000
3,659807	935,947546	30,461	0,256576	22,430000	56,235000
3,659778	936,146129	30,561	0,256659	22,430000	56,250000
3,654764	933,225787	30,661	0,255438	22,430000	56,250000
3,649754	926,761317	30,761	0,252736	22,430000	56,250000
3,644732	921,918221	30,861	0,250711	22,430000	56,250000
3,639755	916,727020	30,961	0,248542	22,430000	56,250000
3,634740	913,387317	31,061	0,247146	22,430000	56,250000
3,629747	907,856188	31,163	0,244833	22,430000	56,250000
3,624787	902,958190	31,263	0,242786	22,430000	56,250000
3,619716	898,448013	31,363	0,240901	22,430000	56,250000
3,614813	894,816275	31,463	0,239383	22,430000	56,250000
3,609758	888,928865	31,563	0,236922	22,430000	56,250000
3,604787	884,892952	31,664	0,235235	22,430000	56,250000
3,599742	879,424903	31,764	0,232949	22,430000	56,250000
3,594744	875,421697	31,865	0,231276	22,430000	56,250000
3,589711	870,555239	31,966	0,229242	22,430000	56,250000
3,584856	865,609347	32,066	0,227174	22,430000	56,250000
3,579774	860,845684	32,166	0,225183	22,430000	56,250000
3,574692	856,271260	32,268	0,223271	22,430000	56,250000
3,569799	851,159493	32,369	0,221134	22,430000	56,250000
3,564794	846,791829	32,469	0,219309	22,430000	56,250000
3,559804	841,727955	32,570	0,217192	22,430000	56,250000
3,554715	837,114982	32,670	0,215264	22,430000	56,250000
3,549705	829,739365	32,770	0,212181	22,430000	56,250000
3,544796	827,413605	32,871	0,211208	22,430000	56,250000
3,539731	820,505243	32,973	0,208321	22,430000	56,250000
3,534795	817,704050	33,074	0,207150	22,430000	56,250000
3,529834	813,265130	33,176	0,205294	22,430000	56,250000
3,524743	808,121823	33,276	0,203145	22,430000	56,250000
3,519811	803,389700	33,376	0,201167	22,430000	56,250000
3,514844	796,441621	33,476	0,198262	22,430000	56,250000
3,509757	792,010878	33,577	0,196410	22,430000	56,250000
3,504810	787,191145	33,677	0,194396	22,430000	56,250000
3,499786	782,008121	33,778	0,192229	22,430000	56,250000
3,494848	777,086760	33,878	0,190172	22,430000	56,250000
3,489767	773,201536	33,979	0,188548	22,430000	56,250000
3,484779	768,232282	34,079	0,186471	22,430000	56,250000
3,479753	763,120514	34,180	0,184334	22,430000	56,250000
3,474739	760,690789	34,298	0,183318	22,430000	56,250000
3,469777	755,373430	34,399	0,181096	22,430000	56,250000
3,464753	750,871430	34,499	0,179214	22,430000	56,250000
3,459750	746,036511	34,599	0,177193	22,430000	56,235000
3,454789	741,059080	34,704	0,175112	22,430000	56,235000
3,449813	736,651699	34,805	0,173270	22,430000	56,235000
3,444755	731,618197	34,906	0,171166	22,430000	56,235000
3,439809	727,353329	35,007	0,169383	22,430000	56,235000
3,434823	722,012607	35,116	0,167151	22,430000	56,235000
3,429773	717,351740	35,216	0,165203	22,430000	56,235000
3,424859	712,405848	35,317	0,163135	22,430000	56,235000
3,419786	706,660951	35,417	0,160734	22,430000	56,235000
3,414793	702,800258	35,520	0,159120	22,430000	56,235000
3,409804	698,502682	35,620	0,157324	22,430000	56,235000
3,404834	692,354777	35,720	0,154754	22,430000	56,235000
3,399769	686,467367	35,821	0,152293	22,430000	56,235000
3,394785	684,108898	35,922	0,151307	22,430000	56,235000
3,389814	678,474974	36,023	0,148952	22,430000	56,235000
3,384858	674,375981	36,123	0,147239	22,430000	56,235000
3,379837	667,286558	36,223	0,144275	22,430000	56,235000
3,374851	664,508728	36,323	0,143114	22,430000	56,235000
3,369831	659,594376	36,423	0,141060	22,430000	56,235000
3,364787	654,973226	36,523	0,139128	22,430000	56,250000
3,359808	650,479403	36,623	0,137250	22,430000	56,250000
3,354734	645,730927	36,725	0,135265	22,430000	56,250000
3,349802	641,141317	36,826	0,133347	22,430000	56,250000
3,344830	636,196593	36,928	0,131280	22,430000	56,250000
3,339809	628,955312	37,028	0,128253	22,430000	56,250000
3,334822	626,826966	37,129	0,127363	22,430000	56,250000
3,329850	621,983870	37,229	0,125339	22,430000	56,250000
3,324859	617,362721	37,329	0,123407	22,430000	56,250000
3,319833	610,495243	37,429	0,120537	22,430000	56,250000
3,314809	606,111225	37,540	0,118704	22,430000	56,250000
3,309823	602,383700	37,641	0,117146	22,430000	56,250000
3,304904	597,437808	37,742	0,115079	22,430000	56,250000
3,299795	593,815416	37,843	0,113564	22,430000	56,250000
3,294849	586,178136	37,950	0,110372	22,430000	56,250000
3,289845	581,628243	38,051	0,108470	22,430000	56,250000
3,284850	576,778138	38,151	0,106443	22,430000	56,250000
3,279794	574,379953	38,264	0,105440	22,430000	56,250000
3,274878	569,497140	38,366	0,103399	22,430000	56,250000
3,269815	564,978787	38,467	0,101511	22,430000	56,250000
3,264839	560,319088	38,567	0,099563	22,430000	56,250000
3,259803	553,465629	38,668	0,096698	22,430000	56,250000
3,254825	548,203172	38,769	0,094499	22,430000	56,250000
3,249863	543,606553	38,869	0,092577	22,430000	56,250000
3,244828	541,082209	38,969	0,091522	22,430000	56,250000
3,239841	535,622337	39,074	0,089240	22,430000	56,250000
3,234800	530,929930	39,177	0,087278	22,430000	56,250000
3,229826	526,189631	39,277	0,085297	22,430000	56,250000
3,224876	521,402605	39,378	0,083296	22,430000	56,250000
3,219854	517,081667	39,479	0,081490	22,430000	56,250000
3,214827	512,729188	39,579	0,079670	22,430000	56,250000
3,209841	507,879084	39,681	0,077643	22,430000	56,250000
3,204873	503,218217	39,782	0,075695	22,430000	56,250000
3,199878	498,502448	39,892	0,073724	22,430000	56,250000
3,194817	493,841582	39,992	0,071775	22,430000	56,250000
3,189930	489,006663	40,092	0,069754	22,430000	56,250000
3,184876	484,243001	40,192	0,067763	22,430000	56,250000
3,179859	478,910455	40,301	0,065534	22,430000	56,250000
3,174858	474,438827	40,401	0,063665	22,430000	56,250000
3,169841	469,556015	40,502	0,061624	22,430000	56,250000
3,164877	465,141625	40,604	0,059779	22,420000	56,220000
3,159822	460,543838	40,706	0,057857	22,420000	56,220000
3,154829	455,859609	40,807	0,055899	22,420000	56,220000
3,149860	451,104123	40,908	0,053911	22,420000	56,220000
3,144839	446,189771	41,008	0,051857	22,420000	56,220000
3,139828	440,602572	41,118	0,049521	22,420000	56,220000
3,134905	436,472039	41,219	0,047795	22,420000	56,220000
3,129812	432,286605	41,319	0,046045	22,420000	56,220000
3,124853	424,975235	41,419	0,042989	22,420000	56,220000
3,119860	421,841124	41,519	0,041679	22,420000	56,220000
3,114906	416,967657	41,619	0,039642	22,420000	56,220000
3,109869	412,385055	41,719	0,037727	22,420000	56,220000
3,104860	405,690462	41,820	0,034928	22,420000	56,220000
3,099864	401,022587	41,925	0,032977	22,420000	56,220000
3,094831	398,861534	42,026	0,032074	22,420000	56,220000
3,089851	391,455545	42,128	0,028978	22,420000	56,220000
3,084807	386,786502	42,229	0,027026	22,420000	56,220000
3,079880	384,610263	42,331	0,026117	22,420000	56,220000
3,074800	379,072125	42,432	0,023802	22,420000	56,220000
3,069869	374,078340	42,532	0,021714	22,420000	56,220000
3,064836	369,505084	42,633	0,019803	22,430000	56,250000
3,059936	364,322060	42,735	0,017636	22,430000	56,250000
3,054830	359,851600	42,835	0,015768	22,430000	56,250000
3,049884	355,997916	42,937	0,014157	22,430000	56,250000
3,044864	349,461022	43,037	0,011424	22,430000	56,250000
3,039893	344,445041	43,147	0,009328	22,430000	56,250000
3,034917	339,570406	43,248	0,007290	22,430000	56,250000
3,029905	334,719133	43,348	0,005262	22,430000	56,250000
3,024854	332,693584	43,460	0,004416	22,430000	56,250000
3,019861	327,613356	43,561	0,002292	22,430000	56,250000
3,014861	323,474647	43,661	0,000562	22,430000	56,250000
3,009838	318,094208	43,761	-0,001687	22,430000	56,250000
3,004890	312,903007	43,870	-0,003857	22,430000	56,250000
2,999856	307,269083	43,970	-0,006212	22,430000	56,250000
2,994801	302,047510	44,070	-0,008395	22,430000	56,250000
2,989849	297,630785	44,171	-0,010241	22,430000	56,250000
2,984877	294,845946	44,273	-0,011405	22,430000	56,250000
2,979928	288,396662	44,373	-0,014101	22,430000	56,250000
2,974878	285,096675	44,474	-0,015480	22,430000	56,250000
2,969912	279,083106	44,574	-0,017994	22,430000	56,250000
2,964887	274,810061	44,676	-0,019780	22,430000	56,250000
2,959937	270,601263	44,777	-0,021539	22,430000	56,250000
2,954896	266,018662	44,878	-0,023455	22,430000	56,250000
2,949898	261,357796	44,979	-0,025403	22,430000	56,250000
2,944890	256,658381	45,081	-0,027367	22,430000	56,250000
2,939877	252,748626	45,181	-0,029001	22,430000	56,250000
2,934861	247,534063	45,281	-0,031181	22,430000	56,250000
2,929859	242,644242	45,381	-0,033225	22,430000	56,250000
2,924898	238,102525	45,481	-0,035124	22,430000	56,250000
2,919895	233,338863	45,582	-0,037115	22,430000	56,250000
2,914864	229,001570	45,682	-0,038928	22,430000	56,250000
2,909860	224,278792	45,783	-0,040902	22,430000	56,250000
2,904874	216,886822	45,883	-0,043992	22,430000	56,250000
2,899853	212,179230	45,985	-0,045959	22,430000	56,250000
2,894861	207,320948	46,086	-0,047990	22,430000	56,250000
2,889903	202,762878	46,187	-0,049896	22,430000	56,250000
2,884818	200,523559	46,307	-0,050832	22,430000	56,250000
2,879941	195,775082	46,408	-0,052816	22,430000	56,250000
2,874886	191,146924	46,508	-0,054751	22,430000	56,250000
2,869924	186,327190	46,609	-0,056766	22,430000	56,235000
2,864857	181,294856	46,713	-0,058869	22,430000	56,235000
2,859910	177,093068	46,813	-0,060625	22,430000	56,235000
2,854877	172,511635	46,914	-0,062541	22,430000	56,235000
2,849922	167,336788	47,014	-0,064704	22,430000	56,235000
2,844886	162,960947	47,122	-0,066533	22,430000	56,235000
2,839879	158,386523	47,223	-0,068445	22,430000	56,235000
2,834881	153,456985	47,324	-0,070505	22,430000	56,235000
2,829887	146,303314	47,425	-0,073496	22,430000	56,235000
2,824888	144,032456	47,526	-0,074445	22,430000	56,235000
2,819923	139,363412	47,627	-0,076396	22,430000	56,235000
2,814867	132,448041	47,728	-0,079287	22,430000	56,235000
2,809899	127,684379	47,829	-0,081278	22,430000	56,235000
2,804877	124,740674	47,930	-0,082509	22,430000	56,235000
2,799912	120,127701	48,031	-0,084437	22,430000	56,235000
2,794902	113,986805	48,131	-0,087004	22,430000	56,235000
2,789920	108,361057	48,231	-0,089355	22,430000	56,235000
2,784882	104,934911	48,331	-0,090788	22,430000	56,235000
2,779882	100,708592	48,433	-0,092554	22,430000	56,235000
2,774905	96,301211	48,535	-0,094396	22,430000	56,235000
2,769910	89,884635	48,635	-0,097079	22,420000	56,250000
2,764965	87,715404	48,736	-0,097985	22,420000	56,250000
2,759905	82,374682	48,836	-0,100218	22,420000	56,250000
2,754918	77,950948	48,936	-0,102067	22,420000	56,250000
2,749943	70,916427	49,037	-0,105007	22,420000	56,250000
2,744861	68,534596	49,137	-0,106003	22,420000	56,250000
2,739970	61,697490	49,238	-0,108861	22,420000	56,250000
2,734950	56,815846	49,339	-0,110901	22,420000	56,250000
2,729926	52,131616	49,439	-0,112859	22,420000	56,250000
2,724918	48,641223	49,552	-0,114318	22,420000	56,250000
2,719913	44,479151	49,653	-0,116058	22,420000	56,250000
2,714886	40,103310	49,755	-0,117887	22,420000	56,250000
2,709911	33,179762	49,855	-0,120781	22,420000	56,250000
2,704917	28,810930	49,962	-0,122607	22,420000	56,250000
2,699967	23,921109	50,062	-0,124651	22,420000	56,250000
2,694935	19,142260	50,162	-0,126649	22,420000	56,250000
2,689898	14,845853	50,279	-0,128445	22,420000	56,250000
2,684935	9,986403	50,380	-0,130476	22,420000	56,250000
2,679934	5,476226	50,481	-0,132361	22,420000	56,250000
2,674887	0,641307	50,581	-0,134382	22,420000	56,250000
2,669935	-1,543109	50,682	-0,135295	22,420000	56,250000
2,664893	-6,321957	50,783	-0,137293	22,420000	56,250000
2,659920	-11,156876	50,884	-0,139314	22,420000	56,250000